# Wavelength (nm)	Intensity (a.u.)
197.7802	0.000237
197.9842	-0.000142
198.1882	-0.000522
198.3922	0.001461
198.5963	0.001693
198.8003	-0.001240
199.0044	0.001504
199.2085	-0.000881
199.4126	0.000195
199.6168	0.000069
199.8209	0.001187
200.0251	0.000575
200.2292	0.000090
200.4334	0.000596
200.6376	-0.000396
200.8418	-0.000121
201.0461	0.000364
201.2503	-0.000987
201.4546	0.000892
201.6589	-0.000248
201.8631	0.001377
202.0674	0.000470
202.2718	0.000364
202.4761	-0.000311
202.6805	0.001229
202.8848	0.000470
203.0892	0.000723
203.2936	0.001335
203.4980	0.000955
203.7024	-0.000142
203.9069	-0.000543
204.1113	0.000955
204.3158	-0.000480
204.5203	0.000681
204.7248	0.001250
204.9293	-0.000269
205.1338	0.000955
205.3384	0.000849
205.5430	-0.000016
205.7475	-0.000206
205.9521	0.000174
206.1567	-0.000248
206.3614	0.000111
206.5660	0.000765
206.7706	0.000997
206.9753	-0.001324
207.1800	0.001208
207.3847	0.001651
207.5894	-0.000164
207.7941	0.000681
207.9989	0.000174
208.2036	-0.000607
208.4084	0.000005
208.6132	-0.000818
208.8180	0.000512
209.0228	-0.000733
209.2276	0.001166
209.4325	0.000448
209.6373	0.001377
209.8422	-0.000248
210.0471	-0.000353
210.2520	-0.000607
210.4569	0.000849
210.6618	0.000702
210.8668	-0.000121
211.0718	0.000744
211.2767	0.000575
211.4817	0.001208
211.6867	-0.000332
211.8918	0.000575
212.0968	0.001208
212.3018	0.000765
212.5069	0.000047
212.7120	0.000596
212.9171	0.000723
213.1222	0.000491
213.3273	0.001482
213.5325	-0.001071
213.7376	-0.000670
213.9428	-0.000375
214.1480	0.000786
214.3532	-0.000459
214.5584	-0.000860
214.7636	0.000765
214.9689	0.000596
215.1741	0.000174
215.3794	0.000512
215.5847	0.000090
215.7900	0.000533
215.9953	-0.000733
216.2007	0.001419
216.4060	0.001018
216.6114	-0.000670
216.8168	-0.000396
217.0222	0.000554
217.2276	-0.001746
217.4330	-0.000818
217.6384	0.000870
217.8439	-0.000079
218.0494	0.000132
218.2548	0.000681
218.4603	-0.000185
218.6659	0.000322
218.8714	-0.000670
219.0769	0.000512
219.2825	-0.000227
219.4881	0.000280
219.6936	0.000343
219.8992	0.000913
220.1049	0.000849
220.3105	-0.000586
220.5161	-0.000712
220.7218	-0.000248
220.9275	0.000153
221.1332	0.001757
221.3389	0.000406
221.5446	0.000280
221.7503	0.000702
221.9561	0.000575
222.1618	0.000069
222.3676	0.000765
222.5734	0.000069
222.7792	-0.000058
222.9850	-0.000480
223.1909	0.000575
223.3967	-0.000227
223.6026	0.000385
223.8085	0.000258
224.0144	-0.000121
224.2203	-0.000142
224.4262	-0.000079
224.6322	-0.000628
224.8381	0.000111
225.0441	-0.000185
225.2501	0.001398
225.4561	-0.000058
225.6621	0.001419
225.8681	0.001292
226.0742	0.000512
226.2802	-0.000185
226.4863	0.000090
226.6924	-0.000965
226.8985	0.000174
227.1046	-0.000269
227.3107	0.000258
227.5169	0.001335
227.7230	0.000385
227.9292	-0.000754
228.1354	0.001018
228.3416	-0.000965
228.5478	0.000343
228.7541	0.001398
228.9603	0.001060
229.1666	-0.001261
229.3729	0.001018
229.5791	0.001124
229.7855	-0.000902
229.9918	0.001250
230.1981	0.000575
230.4045	0.000702
230.6108	0.000723
230.8172	0.000026
231.0236	0.000385
231.2300	0.000828
231.4364	0.000617
231.6429	-0.000586
231.8493	0.001377
232.0558	-0.000248
232.2623	0.002896
232.4688	-0.000227
232.6753	0.000870
232.8818	0.000301
233.0884	-0.000016
233.2949	0.000216
233.5015	0.000047
233.7081	0.000448
233.9147	0.000174
234.1213	0.000617
234.3279	0.001651
234.5346	-0.000417
234.7413	0.000723
234.9479	-0.000396
235.1546	0.000491
235.3613	0.001208
235.5680	0.001250
235.7748	-0.000775
235.9815	0.000174
236.1883	-0.000142
236.3951	0.000744
236.6018	0.000132
236.8087	-0.001620
237.0155	0.000681
237.2223	0.001314
237.4292	0.001018
237.6360	-0.000206
237.8429	-0.000733
238.0498	0.000976
238.2567	0.000512
238.4636	0.000554
238.6706	-0.000185
238.8775	-0.000185
239.0845	-0.001366
239.2915	0.000301
239.4985	-0.000269
239.7055	0.002115
239.9125	-0.000522
240.1195	0.000047
240.3266	0.001018
240.5337	-0.001113
240.7407	0.000470
240.9478	0.000237
241.1549	0.000047
241.3621	0.000786
241.5692	-0.000100
241.7764	0.001229
241.9835	0.000005
242.1907	0.000322
242.3979	0.000934
242.6051	0.002052
242.8124	0.000870
243.0196	0.000322
243.2269	0.001081
243.4341	0.001103
243.6414	0.000153
243.8487	0.001461
244.0560	-0.000564
244.2634	0.000216
244.4707	-0.000987
244.6781	0.000385
244.8854	0.000216
245.0928	0.000554
245.3002	-0.000459
245.5076	0.000702
245.7151	0.000090
245.9225	-0.000902
246.1300	0.000786
246.3375	0.000090
246.5449	-0.000586
246.7524	0.001968
246.9600	-0.000438
247.1675	0.001060
247.3750	0.000491
247.5826	0.001039
247.7902	0.000892
247.9978	0.000385
248.2054	-0.000923
248.4130	0.001103
248.6206	0.000533
248.8283	-0.000564
249.0359	-0.000733
249.2436	0.001356
249.4513	0.000892
249.6590	0.000216
249.8667	0.001060
250.0745	-0.001008
250.2822	-0.000775
250.4900	0.000765
250.6978	-0.000480
250.9056	-0.000142
251.1134	-0.001556
251.3212	0.001525
251.5290	-0.001050
251.7369	0.000216
251.9447	-0.001831
252.1526	0.000913
252.3605	-0.000248
252.5684	0.000892
252.7763	0.001820
252.9843	0.000216
253.1922	-0.000543
253.4002	-0.000079
253.6082	-0.000121
253.8162	0.000385
254.0242	0.000005
254.2322	0.000322
254.4402	0.000870
254.6483	-0.000396
254.8564	0.001166
255.0644	0.000237
255.2725	0.000111
255.4806	0.001145
255.6888	0.000491
255.8969	0.000955
256.1051	0.000153
256.3132	0.000955
256.5214	0.000533
256.7296	0.000406
256.9378	0.001440
257.1460	-0.000058
257.3543	0.000301
257.5625	0.000892
257.7708	0.000406
257.9791	-0.000290
258.1874	-0.000058
258.3957	0.000005
258.6040	0.000448
258.8124	0.000723
259.0207	-0.000417
259.2291	0.000744
259.4375	0.000470
259.6459	0.000026
259.8543	0.000512
260.0627	0.000596
260.2711	-0.000248
260.4796	0.001145
260.6881	0.001229
260.8965	0.001736
261.1050	0.000406
261.3135	-0.000586
261.5221	0.000533
261.7306	0.002537
261.9392	-0.000564
262.1477	-0.000733
262.3563	0.000512
262.5649	0.000849
262.7735	0.000554
262.9822	0.001292
263.1908	0.000596
263.3995	0.001124
263.6081	-0.001092
263.8168	0.000343
264.0255	0.000364
264.2342	0.000216
264.4429	0.000596
264.6517	0.000090
264.8604	-0.000417
265.0692	-0.000058
265.2780	0.001208
265.4868	0.000744
265.6956	0.000512
265.9044	0.001314
266.1133	-0.000375
266.3221	0.001947
266.5310	-0.000818
266.7399	-0.000269
266.9488	-0.000691
267.1577	0.000153
267.3666	-0.000100
267.5755	-0.000628
267.7845	-0.000058
267.9935	-0.000670
268.2024	-0.000628
268.4114	-0.000818
268.6205	0.000870
268.8295	0.001208
269.0385	-0.000248
269.2476	-0.000248
269.4566	-0.000058
269.6657	0.001504
269.8748	0.000385
270.0839	-0.001366
270.2931	-0.000902
270.5022	0.000448
270.7114	-0.000227
270.9205	0.000934
271.1297	-0.001303
271.3389	-0.000670
271.5481	0.000005
271.7573	0.000237
271.9666	-0.001176
272.1758	0.001883
272.3851	0.000216
272.5944	-0.000164
272.8037	0.000913
273.0130	0.000512
273.2223	-0.000311
273.4316	0.001081
273.6410	-0.000248
273.8504	-0.000607
274.0597	-0.000501
274.2691	0.000280
274.4785	-0.000501
274.6880	0.001081
274.8974	-0.000543
275.1069	0.000638
275.3163	0.000364
275.5258	-0.000142
275.7353	0.000174
275.9448	0.000870
276.1543	0.001377
276.3639	0.001567
276.5734	0.002580
276.7830	0.001039
276.9926	0.000343
277.2022	0.001018
277.4118	-0.000079
277.6214	0.000997
277.8310	-0.000375
278.0407	-0.000691
278.2503	-0.000037
278.4600	0.001124
278.6697	0.000343
278.8794	-0.000016
279.0891	0.000195
279.2989	0.000069
279.5086	0.000237
279.7184	0.000617
279.9281	0.000427
280.1379	0.000406
280.3477	-0.000775
280.5576	0.000364
280.7674	0.000828
280.9772	0.000786
281.1871	0.000343
281.3970	-0.000670
281.6069	0.000934
281.8168	0.000976
282.0267	0.000638
282.2366	0.000807
282.4466	0.000786
282.6565	-0.000079
282.8665	-0.000881
283.0765	0.001398
283.2865	-0.001134
283.4965	0.000427
283.7065	0.001208
283.9166	0.000258
284.1266	-0.000058
284.3367	0.001398
284.5468	0.000723
284.7569	-0.000564
284.9670	0.000786
285.1771	0.000427
285.3873	0.000702
285.5974	0.000491
285.8076	-0.000881
286.0178	-0.000185
286.2280	0.000385
286.4382	0.000976
286.6484	-0.001071
286.8587	-0.000332
287.0689	-0.000628
287.2792	0.001039
287.4895	0.000892
287.6998	0.000448
287.9101	-0.000079
288.1204	0.000870
288.3308	0.000090
288.5411	-0.001008
288.7515	0.000343
288.9619	0.000026
289.1723	0.001039
289.3827	0.001440
289.5931	0.000174
289.8035	0.001398
290.0140	-0.000839
290.2245	0.000280
290.4349	-0.001641
290.6454	0.000702
290.8559	0.000280
291.0665	-0.000121
291.2770	0.000005
291.4875	0.001567
291.6981	0.000723
291.9087	0.001504
292.1193	0.000216
292.3299	0.000723
292.5405	0.000702
292.7511	-0.000206
292.9618	-0.000375
293.1724	-0.000965
293.3831	0.000702
293.5938	0.000997
293.8045	0.000786
294.0152	0.001081
294.2260	-0.000586
294.4367	0.000765
294.6475	0.000153
294.8582	0.000343
295.0690	0.000406
295.2798	0.000849
295.4906	0.000870
295.7015	-0.000290
295.9123	0.000554
296.1232	0.000659
296.3340	0.000533
296.5449	-0.000164
296.7558	0.000258
296.9667	0.001630
297.1777	0.000828
297.3886	0.000343
297.5995	0.000364
297.8105	0.000047
298.0215	0.000659
298.2325	0.000343
298.4435	0.000744
298.6545	0.000554
298.8656	0.000533
299.0766	0.000364
299.2877	-0.000164
299.4988	-0.001134
299.7099	0.000638
299.9210	0.000237
300.1321	-0.000058
300.3432	0.002073
300.5544	0.000047
300.7655	0.000216
300.9767	-0.000965
301.1879	-0.001261
301.3991	-0.000839
301.6103	0.002221
301.8215	-0.000037
302.0328	0.000617
302.2441	-0.000164
302.4553	-0.000375
302.6666	0.000870
302.8779	0.000491
303.0892	-0.001176
303.3006	0.000111
303.5119	-0.000923
303.7233	0.001166
303.9346	-0.000058
304.1460	-0.000480
304.3574	0.000090
304.5688	0.001103
304.7803	-0.000860
304.9917	-0.000607
305.2031	0.000258
305.4146	-0.000227
305.6261	-0.000079
305.8376	0.001039
306.0491	0.000744
306.2606	0.000807
306.4722	0.001039
306.6837	-0.000543
306.8953	0.000448
307.1069	0.000301
307.3184	0.000280
307.5301	0.001060
307.7417	0.000681
307.9533	0.000638
308.1650	0.000153
308.3766	0.000807
308.5883	0.001060
308.8000	0.000955
309.0117	0.000153
309.2234	0.000659
309.4351	0.000554
309.6469	-0.000754
309.8586	0.000427
310.0704	0.001292
310.2822	0.000005
310.4940	0.000406
310.7058	-0.000691
310.9176	0.000111
311.1295	-0.000311
311.3413	0.000448
311.5532	-0.000016
311.7651	0.001588
311.9770	0.000870
312.1889	-0.000142
312.4008	0.000744
312.6127	0.000934
312.8247	0.000955
313.0366	0.000491
313.2486	0.000955
313.4606	0.000047
313.6726	-0.000185
313.8846	0.000617
314.0967	0.000195
314.3087	0.000301
314.5208	-0.000649
314.7328	-0.000712
314.9449	0.000258
315.1570	-0.001029
315.3692	-0.000860
315.5813	0.000681
315.7934	0.001018
316.0056	-0.000142
316.2177	0.000258
316.4299	0.000005
316.6421	-0.000543
316.8543	0.000406
317.0666	0.000892
317.2788	0.000512
317.4911	-0.000100
317.7033	-0.000037
317.9156	0.000258
318.1279	0.000892
318.3402	0.001630
318.5525	0.000174
318.7649	-0.000016
318.9772	0.000322
319.1896	0.000765
319.4019	-0.000311
319.6143	-0.000121
319.8267	-0.000227
320.0392	0.000470
320.2516	0.000470
320.4640	-0.000121
320.6765	0.000533
320.8890	-0.000037
321.1014	-0.000269
321.3139	-0.000100
321.5265	0.000491
321.7390	-0.000586
321.9515	-0.000543
322.1641	-0.000438
322.3766	-0.000037
322.5892	-0.000501
322.8018	0.000448
323.0144	0.000090
323.2270	0.000174
323.4397	0.000681
323.6523	0.000470
323.8650	-0.000543
324.0777	0.000533
324.2904	0.000512
324.5031	0.000491
324.7158	-0.000311
324.9285	-0.000248
325.1412	0.000723
325.3540	0.000554
325.5668	0.000533
325.7796	0.000258
325.9924	0.000237
326.2052	0.001018
326.4180	-0.000417
326.6308	0.000174
326.8437	0.000427
327.0566	-0.000248
327.2694	0.000026
327.4823	0.001757
327.6952	0.001124
327.9082	0.001124
328.1211	-0.000375
328.3340	0.001546
328.5470	0.000406
328.7600	0.001039
328.9730	-0.001198
329.1860	0.000512
329.3990	0.000301
329.6120	0.000047
329.8251	0.000533
330.0381	-0.000396
330.2512	-0.000058
330.4643	0.000533
330.6774	0.000132
330.8905	0.001187
331.1036	-0.000121
331.3167	0.001482
331.5299	0.000448
331.7431	-0.000691
331.9562	0.001229
332.1694	0.000026
332.3826	-0.000142
332.5959	0.000343
332.8091	-0.000396
333.0223	0.000913
333.2356	0.000702
333.4489	0.001229
333.6622	-0.000522
333.8755	0.001820
334.0888	-0.000185
334.3021	0.000280
334.5154	-0.000058
334.7288	0.000638
334.9422	0.000892
335.1555	0.000807
335.3689	-0.000121
335.5823	0.000765
335.7958	-0.000522
336.0092	0.001482
336.2227	0.001187
336.4361	-0.000375
336.6496	0.000491
336.8631	0.001356
337.0766	-0.000227
337.2901	0.000849
337.5036	-0.000269
337.7172	-0.000164
337.9307	-0.001155
338.1443	0.001081
338.3579	0.000090
338.5715	0.001103
338.7851	-0.000311
338.9987	0.000702
339.2124	-0.001767
339.4260	-0.000206
339.6397	-0.000797
339.8533	-0.001176
340.0670	0.000617
340.2807	0.000427
340.4945	-0.000691
340.7082	0.001250
340.9219	0.000343
341.1357	0.000512
341.3495	0.000723
341.5633	0.000934
341.7771	-0.000522
341.9909	0.000765
342.2047	-0.000607
342.4185	0.000301
342.6324	-0.000818
342.8463	0.000744
343.0601	-0.001683
343.2740	-0.000438
343.4879	0.000132
343.7019	0.000216
343.9158	-0.000902
344.1297	0.000343
344.3437	-0.001134
344.5577	0.000132
344.7717	0.000849
344.9857	0.001187
345.1997	0.001039
345.4137	-0.000691
345.6277	0.000343
345.8418	0.001651
346.0559	0.000913
346.2699	0.000047
346.4840	0.000174
346.6981	-0.000691
346.9123	-0.001261
347.1264	-0.000923
347.3406	-0.001303
347.5547	-0.000248
347.7689	0.000406
347.9831	-0.000248
348.1973	-0.000164
348.4115	-0.000142
348.6257	-0.000227
348.8400	0.001229
349.0542	0.001609
349.2685	0.000934
349.4828	0.001567
349.6971	0.001145
349.9114	0.000512
350.1257	0.001103
350.3400	-0.000227
350.5544	0.002559
350.7687	-0.000797
350.9831	0.000807
351.1975	0.000047
351.4119	0.000723
351.6263	0.001166
351.8407	0.002348
352.0552	0.000090
352.2696	-0.000248
352.4841	0.000069
352.6986	0.001229
352.9131	0.000807
353.1276	0.001609
353.3421	-0.000037
353.5566	0.001377
353.7712	-0.000142
353.9858	0.002137
354.2003	0.001060
354.4149	0.001081
354.6295	-0.000775
354.8441	-0.000417
355.0588	-0.000353
355.2734	0.001187
355.4881	-0.000649
355.7027	-0.000121
355.9174	-0.000459
356.1321	0.000849
356.3468	-0.000164
356.5615	0.001377
356.7763	0.000448
356.9910	0.000702
357.2058	0.000638
357.4206	0.000976
357.6353	0.000026
357.8501	0.001292
358.0650	0.001588
358.2798	0.000005
358.4946	0.001377
358.7095	-0.002316
358.9243	-0.001620
359.1392	-0.000396
359.3541	0.001039
359.5690	0.001314
359.7839	0.001103
359.9989	-0.000185
360.2138	0.001947
360.4288	0.001145
360.6438	-0.000290
360.8587	0.001461
361.0737	0.001419
361.2888	0.001335
361.5038	-0.000564
361.7188	0.000385
361.9339	-0.000269
362.1489	0.000491
362.3640	0.001250
362.5791	0.001060
362.7942	0.000533
363.0093	0.002115
363.2245	-0.000311
363.4396	0.001166
363.6548	0.000132
363.8699	0.000385
364.0851	0.000005
364.3003	-0.000248
364.5155	-0.000797
364.7308	0.001799
364.9460	0.001525
365.1612	0.000659
365.3765	0.000744
365.5918	0.000364
365.8071	0.000047
366.0224	0.000343
366.2377	0.000406
366.4530	0.000723
366.6684	-0.000079
366.8837	-0.000564
367.0991	-0.000797
367.3145	0.000617
367.5299	0.000090
367.7453	0.001187
367.9607	0.000554
368.1761	0.000575
368.3916	0.000681
368.6070	0.000997
368.8225	-0.000058
369.0380	0.001567
369.2535	0.000237
369.4690	0.000322
369.6845	-0.000142
369.9001	0.002073
370.1156	0.001187
370.3312	0.000069
370.5468	-0.000058
370.7624	0.000681
370.9780	-0.000375
371.1936	0.000702
371.4092	0.000237
371.6249	0.000195
371.8405	0.000723
372.0562	-0.000248
372.2719	0.000448
372.4876	0.000765
372.7033	-0.000438
372.9190	0.000237
373.1348	0.000301
373.3505	0.000533
373.5663	-0.001240
373.7820	0.002115
373.9978	-0.000227
374.2136	0.000870
374.4294	-0.001282
374.6453	0.000047
374.8611	-0.000459
375.0770	-0.000353
375.2928	-0.000164
375.5087	0.000723
375.7246	-0.000100
375.9405	0.000322
376.1564	-0.000185
376.3724	0.001081
376.5883	0.000807
376.8043	0.001968
377.0203	0.000596
377.2362	0.001292
377.4522	-0.000987
377.6682	0.000427
377.8843	0.000280
378.1003	-0.000438
378.3164	-0.001092
378.5324	0.001103
378.7485	-0.000185
378.9646	0.000807
379.1807	0.000111
379.3968	0.000301
379.6129	0.001250
379.8291	0.001124
380.0452	-0.000269
380.2614	0.000280
380.4776	0.000427
380.6938	0.000385
380.9100	-0.000016
381.1262	-0.000607
381.3424	-0.000079
381.5587	0.000047
381.7749	0.000617
381.9912	0.001841
382.2075	-0.000396
382.4238	-0.000311
382.6401	0.000280
382.8564	0.001989
383.0728	0.000153
383.2891	0.000596
383.5055	0.000406
383.7219	0.000955
383.9382	0.001482
384.1546	0.001567
384.3711	-0.000100
384.5875	0.001715
384.8039	0.001292
385.0204	0.000617
385.2368	0.000026
385.4533	0.000069
385.6698	0.000786
385.8863	0.001862
386.1028	0.001292
386.3194	0.001356
386.5359	0.001588
386.7525	0.002242
386.9690	0.000596
387.1856	0.002284
387.4022	0.002052
387.6188	0.003023
387.8355	0.002305
388.0521	0.003339
388.2687	0.000870
388.4854	0.002875
388.7021	0.002770
388.9188	0.003171
389.1355	0.003930
389.3522	0.002031
389.5689	0.002432
389.7856	0.003571
390.0024	0.005006
390.2192	0.002052
390.4359	0.002875
390.6527	0.003677
390.8695	0.004648
391.0863	0.004753
391.3032	0.004943
391.5200	0.005344
391.7369	0.005070
391.9537	0.008024
392.1706	0.006357
392.3875	0.005407
392.6044	0.005935
392.8213	0.005492
393.0383	0.008340
393.2552	0.008467
393.4722	0.008699
393.6891	0.007961
393.9061	0.007644
394.1231	0.008784
394.3401	0.008615
394.5572	0.009986
394.7742	0.010134
394.9912	0.009185
395.2083	0.008784
395.4254	0.010662
395.6425	0.010746
395.8596	0.011253
396.0767	0.011717
396.2938	0.012603
396.5109	0.011611
396.7281	0.013088
396.9453	0.012962
397.1624	0.014481
397.3796	0.013447
397.5968	0.016317
397.8140	0.014270
398.0313	0.016655
398.2485	0.014608
398.4658	0.017140
398.6830	0.017815
398.9003	0.018448
399.1176	0.019271
399.3349	0.017963
399.5522	0.018490
399.7696	0.020179
399.9869	0.018976
400.2043	0.017245
400.4216	0.017119
400.6390	0.019398
400.8564	0.019883
401.0738	0.019799
401.2912	0.020305
401.5087	0.019292
401.7261	0.018870
401.9436	0.019651
402.1610	0.019208
402.3785	0.023302
402.5960	0.019862
402.8135	0.021107
403.0310	0.022289
403.2486	0.020643
403.4661	0.021424
403.6837	0.022331
403.9013	0.022753
404.1189	0.022226
404.3365	0.024526
404.5541	0.023428
404.7717	0.023660
404.9893	0.024357
405.2070	0.024399
405.4246	0.026741
405.6423	0.025876
405.8600	0.026467
406.0777	0.025285
406.2954	0.026045
406.5131	0.027058
406.7309	0.025750
406.9486	0.024019
407.1664	0.024082
407.3842	0.023766
407.6020	0.025665
407.8198	0.025285
408.0376	0.024420
408.2554	0.025116
408.4733	0.026425
408.6911	0.025918
408.9090	0.026931
409.1269	0.026129
409.3448	0.025581
409.5627	0.029020
409.7806	0.027374
409.9985	0.026615
410.2165	0.026973
410.4344	0.026762
410.6524	0.026551
410.8704	0.027311
411.0884	0.025201
411.3064	0.027269
411.5244	0.026509
411.7424	0.027712
411.9605	0.027290
412.1785	0.028788
412.3966	0.027564
412.6147	0.029105
412.8328	0.027923
413.0509	0.030519
413.2690	0.028746
413.4871	0.029632
413.7053	0.032017
413.9234	0.030075
414.1416	0.028218
414.3598	0.029400
414.5780	0.028366
414.7962	0.029379
415.0144	0.027628
415.2326	0.028134
415.4509	0.031764
415.6692	0.027606
415.8874	0.027016
416.1057	0.027902
416.3240	0.030308
416.5423	0.029527
416.7606	0.028134
416.9790	0.029759
417.1973	0.031025
417.4157	0.028556
417.6341	0.027965
417.8524	0.028324
418.0708	0.028303
418.2893	0.029928
418.5077	0.029210
418.7261	0.030012
418.9446	0.028936
419.1630	0.029885
419.3815	0.031088
419.6000	0.031742
419.8185	0.030455
420.0370	0.031004
420.2555	0.030118
420.4741	0.032629
420.6926	0.032228
420.9112	0.032186
421.1298	0.035414
421.3483	0.033705
421.5669	0.034697
421.7856	0.037567
422.0042	0.036912
422.2228	0.037714
422.4415	0.035921
422.6601	0.035899
422.8788	0.031975
423.0975	0.034232
423.3162	0.034359
423.5349	0.035541
423.7536	0.036089
423.9724	0.034802
424.1911	0.031785
424.4099	0.033895
424.6287	0.033135
424.8475	0.033895
425.0663	0.033177
425.2851	0.031911
425.5039	0.031721
425.7228	0.032544
425.9416	0.028261
426.1605	0.029548
426.3793	0.028788
426.5982	0.028345
426.8171	0.029400
427.0361	0.030202
427.2550	0.031152
427.4739	0.031468
427.6929	0.033325
427.9118	0.033114
428.1308	0.030666
428.3498	0.029506
428.5688	0.029611
428.7878	0.029928
429.0068	0.029548
429.2259	0.031004
429.4449	0.034064
429.6640	0.034992
429.8831	0.034401
430.1022	0.036153
430.3213	0.035857
430.5404	0.037018
430.7595	0.033979
430.9787	0.033494
431.1978	0.032650
431.4170	0.032439
431.6362	0.032059
431.8553	0.030919
432.0745	0.029316
432.2938	0.028746
432.5130	0.027796
432.7322	0.029041
432.9515	0.028830
433.1707	0.027459
433.3900	0.028809
433.6093	0.032122
433.8286	0.034760
434.0479	0.034275
434.2673	0.031679
434.4866	0.032017
434.7059	0.029463
434.9253	0.029252
435.1447	0.029780
435.3641	0.029780
435.5835	0.027417
435.8029	0.028387
436.0223	0.029991
436.2418	0.031067
436.4612	0.032587
436.6807	0.031932
436.9001	0.029843
437.1196	0.029274
437.3391	0.031616
437.5586	0.029231
437.7782	0.031257
437.9977	0.031405
438.2173	0.029421
438.4368	0.029632
438.6564	0.030666
438.8760	0.030962
439.0956	0.029885
439.3152	0.029696
439.5348	0.030012
439.7545	0.028324
439.9741	0.028071
440.1938	0.029949
440.4135	0.029210
440.6331	0.029632
440.8528	0.029252
441.0725	0.031004
441.2923	0.034971
441.5120	0.033810
441.7318	0.033304
441.9515	0.034823
442.1713	0.033789
442.3911	0.034486
442.6109	0.034169
442.8307	0.032397
443.0505	0.030624
443.2703	0.031257
443.4902	0.033346
443.7101	0.033747
443.9299	0.034507
444.1498	0.034929
444.3697	0.032439
444.5896	0.033241
444.8095	0.031742
445.0295	0.029864
445.2494	0.031975
445.4694	0.029717
445.6894	0.030751
445.9093	0.029611
446.1293	0.031848
446.3493	0.030286
446.5694	0.031194
446.7894	0.030413
447.0094	0.029379
447.2295	0.030033
447.4496	0.031194
447.6696	0.028282
447.8897	0.029400
448.1098	0.027691
448.3300	0.027923
448.5501	0.028556
448.7702	0.028387
448.9904	0.027374
449.2106	0.028472
449.4307	0.027860
449.6509	0.026594
449.8711	0.027227
450.0914	0.026657
450.3116	0.025538
450.5318	0.028197
450.7521	0.024694
450.9724	0.025032
451.1926	0.026678
451.4129	0.025116
451.6332	0.026826
451.8535	0.026024
452.0739	0.023956
452.2942	0.022669
452.5146	0.026045
452.7349	0.024188
452.9553	0.024737
453.1757	0.022479
453.3961	0.023217
453.6165	0.023555
453.8369	0.021614
454.0574	0.022521
454.2778	0.022226
454.4983	0.021951
454.7188	0.021128
454.9393	0.021360
455.1597	0.022289
455.3803	0.022078
455.6008	0.021698
455.8213	0.020073
456.0419	0.022373
456.2624	0.021381
456.4830	0.021023
456.7036	0.020347
456.9242	0.019546
457.1448	0.019018
457.3654	0.019904
457.5860	0.020622
457.8067	0.020959
458.0274	0.022331
458.2480	0.022162
458.4687	0.020875
458.6894	0.022057
458.9101	0.022500
459.1308	0.019672
459.3516	0.020474
459.5723	0.019862
459.7931	0.020917
460.0138	0.020748
460.2346	0.020516
460.4554	0.018955
460.6762	0.019968
460.8970	0.017900
461.1178	0.018596
461.3387	0.017267
461.5595	0.017520
461.7804	0.018406
462.0013	0.018849
462.2222	0.015220
462.4431	0.015979
462.6640	0.016971
462.8849	0.015389
463.1059	0.015452
463.3268	0.017161
463.5478	0.016043
463.7687	0.018955
463.9897	0.016423
464.2107	0.018322
464.4317	0.016676
464.6528	0.016950
464.8738	0.017056
465.0948	0.017731
465.3159	0.015832
465.5370	0.017393
465.7581	0.017773
465.9792	0.018216
466.2003	0.016085
466.4214	0.016233
466.6425	0.014291
466.8637	0.014924
467.0848	0.013679
467.3060	0.014650
467.5272	0.013637
467.7484	0.013342
467.9696	0.011632
468.1908	0.013321
468.4120	0.011653
468.6333	0.011759
468.8545	0.013658
469.0758	0.012054
469.2970	0.012751
469.5183	0.011675
469.7396	0.012223
469.9610	0.012097
470.1823	0.008573
470.4036	0.011189
470.6250	0.010472
470.8463	0.011632
471.0677	0.009670
471.2891	0.010008
471.5105	0.009543
471.7319	0.010598
471.9533	0.009775
472.1748	0.009037
472.3962	0.011337
472.6177	0.009754
472.8391	0.010577
473.0606	0.011126
473.2821	0.009839
473.5036	0.009353
473.7251	0.011020
473.9467	0.010641
474.1682	0.009733
474.3898	0.009839
474.6113	0.009100
474.8329	0.009860
475.0545	0.009986
475.2761	0.009311
475.4977	0.009079
475.7193	0.008699
475.9410	0.009754
476.1626	0.008636
476.3843	0.010240
476.6060	0.010071
476.8277	0.009185
477.0494	0.009100
477.2711	0.006737
477.4928	0.009058
477.7145	0.009311
477.9363	0.008319
478.1580	0.008256
478.3798	0.008108
478.6016	0.008277
478.8234	0.008509
479.0452	0.007349
479.2670	0.007813
479.4888	0.007644
479.7107	0.006863
479.9325	0.006800
480.1544	0.008615
480.3763	0.008741
480.5982	0.006779
480.8201	0.008193
481.0420	0.007602
481.2639	0.007370
481.4859	0.008003
481.7078	0.007855
481.9298	0.008784
482.1517	0.005661
482.3737	0.004943
482.5957	0.006948
482.8177	0.005492
483.0398	0.007750
483.2618	0.006863
483.4838	0.006927
483.7059	0.007897
483.9280	0.005703
484.1501	0.006547
484.3721	0.007117
484.5943	0.007665
484.8164	0.005724
485.0385	0.008277
485.2606	0.007792
485.4828	0.009733
485.7050	0.014101
485.9271	0.019503
486.1493	0.020875
486.3715	0.017879
486.5937	0.013088
486.8160	0.010472
487.0382	0.010746
487.2605	0.010999
487.4827	0.007011
487.7050	0.007686
487.9273	0.007792
488.1496	0.006273
488.3719	0.004416
488.5942	0.005829
488.8165	0.004521
489.0389	0.005217
489.2612	0.005154
489.4836	0.005534
489.7060	0.003888
489.9284	0.003972
490.1508	0.005175
490.3732	0.005534
490.5956	0.004099
490.8180	0.004859
491.0405	0.004584
491.2630	0.005112
491.4854	0.004753
491.7079	0.004521
491.9304	0.004141
492.1529	0.002960
492.3755	0.004922
492.5980	0.004648
492.8205	0.003635
493.0431	0.004542
493.2657	0.002896
493.4882	0.004331
493.7108	0.004437
493.9334	0.004183
494.1561	0.005914
494.3787	0.005049
494.6013	0.004648
494.8240	0.004268
495.0466	0.004141
495.2693	0.005787
495.4920	0.003149
495.7147	0.003339
495.9374	0.002537
496.1601	0.005028
496.3829	0.003382
496.6056	0.005386
496.8284	0.003086
497.0511	0.004078
497.2739	0.002643
497.4967	0.004437
497.7195	0.002854
497.9423	0.004331
498.1652	0.001778
498.3880	0.003994
498.6109	0.003002
498.8337	0.004352
499.0566	0.004120
499.2795	0.003909
499.5024	0.002115
499.7253	0.005386
499.9482	0.002537
500.1712	0.003529
500.3941	0.003529
500.6171	0.004352
500.8400	0.002622
501.0630	0.004036
501.2860	0.004964
501.5090	0.003023
501.7320	0.002960
501.9551	0.003382
502.1781	0.002516
502.4012	0.004437
502.6242	0.002242
502.8473	0.001947
503.0704	0.002727
503.2935	0.004521
503.5166	0.002559
503.7397	0.004500
503.9628	0.003529
504.1860	0.002010
504.4092	0.003318
504.6323	0.004648
504.8555	0.001947
505.0787	0.003867
505.3019	0.002537
505.5251	0.003002
505.7483	0.003297
505.9716	0.003888
506.1948	0.002791
506.4181	0.002179
506.6414	0.003487
506.8647	0.003339
507.0880	0.003276
507.3113	0.004015
507.5346	0.004352
507.7579	0.003318
507.9813	0.003550
508.2046	0.004331
508.4280	0.002411
508.6514	0.003403
508.8748	0.003466
509.0982	0.003086
509.3216	0.001567
509.5450	0.004373
509.7685	0.002052
509.9919	0.003951
510.2154	0.001715
510.4388	0.002115
510.6623	0.001757
510.8858	0.004099
511.1093	0.001419
511.3329	0.003466
511.5564	0.003424
511.7799	0.003192
512.0035	0.003065
512.2270	0.004141
512.4506	0.002390
512.6742	0.002580
512.8978	0.002580
513.1214	0.002854
513.3451	0.003044
513.5687	0.003086
513.7923	0.003107
514.0160	0.003149
514.2397	0.002917
514.4634	0.002537
514.6871	0.002643
514.9108	0.003171
515.1345	0.002960
515.3582	0.002791
515.5819	0.001103
515.8057	0.001862
516.0295	0.001947
516.2532	0.003466
516.4770	0.001609
516.7008	0.003023
516.9246	0.002432
517.1485	0.003825
517.3723	0.002537
517.5961	0.004394
517.8200	0.003487
518.0439	0.003783
518.2677	0.002200
518.4916	0.003276
518.7155	0.003593
518.9395	0.003994
519.1634	0.002474
519.3873	0.003888
519.6113	0.004268
519.8352	0.002749
520.0592	0.004542
520.2832	0.002115
520.5072	0.003297
520.7312	0.002390
520.9552	0.004521
521.1792	0.002031
521.4033	0.004859
521.6273	0.003487
521.8514	0.002559
522.0755	0.002411
522.2996	0.003086
522.5237	0.002791
522.7478	0.003698
522.9719	0.004162
523.1960	0.003318
523.4202	0.004838
523.6443	0.002601
523.8685	0.004310
524.0927	0.004690
524.3169	0.003930
524.5411	0.004268
524.7653	0.003445
524.9895	0.004120
525.2138	0.003466
525.4380	0.004711
525.6623	0.003719
525.8865	0.003614
526.1108	0.003382
526.3351	0.003487
526.5594	0.002559
526.7837	0.004500
527.0081	0.003023
527.2324	0.004247
527.4568	0.003128
527.6811	0.004310
527.9055	0.002981
528.1299	0.004416
528.3543	0.002896
528.5787	0.004500
528.8031	0.005154
529.0276	0.006505
529.2520	0.004669
529.4765	0.004880
529.7009	0.003276
529.9254	0.005513
530.1499	0.005787
530.3744	0.005956
530.5989	0.005091
530.8234	0.006040
531.0480	0.004985
531.2725	0.005323
531.4971	0.005365
531.7217	0.005977
531.9462	0.004922
532.1708	0.005745
532.3954	0.004859
532.6200	0.006420
532.8447	0.004141
533.0693	0.004690
533.2940	0.005471
533.5186	0.007264
533.7433	0.006294
533.9680	0.006821
534.1927	0.007180
534.4174	0.007581
534.6421	0.008425
534.8668	0.006969
535.0916	0.006927
535.3163	0.007897
535.5411	0.007539
535.7659	0.006884
535.9907	0.006526
536.2155	0.007074
536.4403	0.008383
536.6651	0.005956
536.8899	0.007074
537.1148	0.007539
537.3396	0.008087
537.5645	0.008045
537.7894	0.009206
538.0143	0.009712
538.2392	0.008868
538.4641	0.009290
538.6890	0.009206
538.9139	0.009142
539.1389	0.010029
539.3638	0.010092
539.5888	0.010261
539.8138	0.011569
540.0388	0.010767
540.2638	0.009986
540.4888	0.010430
540.7138	0.010852
540.9389	0.010472
541.1639	0.011168
541.3890	0.011696
541.6140	0.010408
541.8391	0.012371
542.0642	0.013553
542.2893	0.012413
542.5144	0.012371
542.7396	0.012265
542.9647	0.012181
543.1899	0.013996
543.4150	0.013489
543.6402	0.013954
543.8654	0.015009
544.0906	0.013257
544.3158	0.015515
544.5410	0.014692
544.7662	0.014566
544.9915	0.014713
545.2167	0.015789
545.4420	0.014945
545.6673	0.014966
545.8926	0.013489
546.1179	0.014629
546.3432	0.013700
546.5685	0.014333
546.7938	0.013616
547.0192	0.015916
547.2445	0.016148
547.4699	0.017583
547.6953	0.015937
547.9206	0.019081
548.1460	0.018723
548.3715	0.019799
548.5969	0.018828
548.8223	0.019166
549.0478	0.017921
549.2732	0.018111
549.4987	0.017203
549.7242	0.019440
549.9496	0.017203
550.1751	0.017879
550.4007	0.018955
550.6262	0.017815
550.8517	0.017942
551.0773	0.019377
551.3028	0.018596
551.5284	0.017499
551.7540	0.020263
551.9796	0.022183
552.2052	0.021635
552.4308	0.023048
552.6564	0.022732
552.8820	0.022774
553.1077	0.023745
553.3333	0.023471
553.5590	0.022753
553.7847	0.024315
554.0104	0.023175
554.2361	0.023998
554.4618	0.023302
554.6875	0.023555
554.9132	0.020980
555.1390	0.022922
555.3648	0.024378
555.5905	0.025517
555.8163	0.025792
556.0421	0.028134
556.2679	0.026847
556.4937	0.028683
556.7195	0.025834
556.9454	0.025180
557.1712	0.026594
557.3971	0.024716
557.6230	0.025665
557.8488	0.026383
558.0747	0.025707
558.3006	0.026615
558.5266	0.025306
558.7525	0.024589
558.9784	0.024863
559.2044	0.024082
559.4303	0.026298
559.6563	0.025644
559.8823	0.026425
560.1083	0.030455
560.3343	0.030983
560.5603	0.031932
560.7863	0.033051
561.0124	0.031975
561.2384	0.036448
561.4645	0.035921
561.6905	0.036722
561.9166	0.035836
562.1427	0.032481
562.3688	0.035245
562.5949	0.034507
562.8211	0.032523
563.0472	0.035984
563.2733	0.035984
563.4995	0.035077
563.7257	0.035161
563.9519	0.038390
564.1781	0.038136
564.4043	0.039191
564.6305	0.039803
564.8567	0.040795
565.0829	0.040310
565.3092	0.042103
565.5355	0.040816
565.7617	0.040647
565.9880	0.041154
566.2143	0.041702
566.4406	0.042884
566.6669	0.042948
566.8932	0.046577
567.1196	0.047717
567.3459	0.050228
567.5723	0.054237
567.7987	0.055988
568.0250	0.054722
568.2514	0.057866
568.4778	0.062593
568.7043	0.067215
568.9307	0.067236
569.1571	0.073440
569.3836	0.079855
569.6100	0.086987
569.8365	0.096272
570.0630	0.102180
570.2895	0.105915
570.5160	0.104143
570.7425	0.107329
570.9690	0.115559
571.1956	0.125097
571.4221	0.124865
571.6487	0.128515
571.8752	0.134551
572.1018	0.141620
572.3284	0.142147
572.5550	0.131280
572.7816	0.120518
573.0082	0.119906
573.2349	0.130056
573.4615	0.143835
573.6882	0.150314
573.9149	0.156285
574.1415	0.161772
574.3682	0.171437
574.5949	0.173568
574.8216	0.171289
575.0484	0.176100
575.2751	0.177999
575.5018	0.179075
575.7286	0.170529
575.9554	0.163629
576.1821	0.159704
576.4089	0.165929
576.6357	0.174053
576.8626	0.184309
577.0894	0.189099
577.3162	0.193256
577.5431	0.199713
577.7699	0.217249
577.9968	0.250568
578.2237	0.243373
578.4505	0.230543
578.6774	0.220794
578.9044	0.207099
579.1313	0.196189
579.3582	0.199207
579.5851	0.201971
579.8121	0.211593
580.0391	0.213028
580.2660	0.210559
580.4930	0.209757
580.7200	0.204651
580.9470	0.211045
581.1741	0.245462
581.4011	0.291147
581.6281	0.324847
581.8552	0.325986
582.0822	0.316533
582.3093	0.311468
582.5364	0.286020
582.7635	0.264664
582.9906	0.244364
583.2177	0.230754
583.4449	0.210412
583.6720	0.199945
583.8991	0.194649
584.1263	0.201021
584.3535	0.199396
584.5807	0.203364
584.8079	0.213725
585.0351	0.225900
585.2623	0.240144
585.4895	0.236282
585.7167	0.240566
585.9440	0.232948
586.1713	0.218198
586.3985	0.209441
586.6258	0.197645
586.8531	0.204735
587.0804	0.219591
587.3077	0.229023
587.5350	0.233961
587.7624	0.229741
587.9897	0.220034
588.2171	0.208069
588.4445	0.206845
588.6718	0.202520
588.8992	0.190787
589.1266	0.177915
589.3540	0.170065
589.5815	0.164093
589.8089	0.168102
590.0363	0.164642
590.2638	0.155821
590.4913	0.151010
590.7187	0.148098
590.9462	0.138180
591.1737	0.133411
591.4012	0.134318
591.6288	0.132461
591.8563	0.136175
592.0838	0.132862
592.3114	0.132841
592.5389	0.157594
592.7665	0.187136
592.9941	0.203575
593.2217	0.202963
593.4493	0.213092
593.6769	0.200663
593.9046	0.195134
594.1322	0.186123
594.3598	0.174686
594.5875	0.171352
594.8152	0.182452
595.0429	0.193404
595.2705	0.200599
595.4983	0.189964
595.7260	0.185701
595.9537	0.175910
596.1814	0.166710
596.4092	0.156750
596.6369	0.145713
596.8647	0.146557
597.0925	0.146958
597.3203	0.156729
597.5481	0.157193
597.7759	0.153542
598.0037	0.146283
598.2315	0.143392
598.4594	0.144490
598.6872	0.158775
598.9151	0.178738
599.1430	0.189247
599.3709	0.187284
599.5988	0.180700
599.8267	0.178316
600.0546	0.188001
600.2825	0.188318
600.5105	0.185300
600.7384	0.184372
600.9664	0.186714
601.1944	0.192348
601.4223	0.187601
601.6503	0.180890
601.8783	0.172682
602.1064	0.170002
602.3344	0.165929
602.5624	0.169073
602.7905	0.174222
603.0185	0.175425
603.2466	0.183296
603.4747	0.192285
603.7028	0.192792
603.9309	0.185701
604.1590	0.175298
604.3871	0.171563
604.6152	0.170192
604.8434	0.159894
605.0715	0.156581
605.2997	0.163945
605.5279	0.167068
605.7561	0.175298
605.9843	0.176691
606.2125	0.176902
606.4407	0.161666
606.6689	0.158818
606.8972	0.157805
607.1254	0.157214
607.3537	0.158712
607.5819	0.161033
607.8102	0.161012
608.0385	0.155652
608.2668	0.151749
608.4951	0.152382
608.7235	0.144933
608.9518	0.146114
609.1801	0.143477
609.4085	0.134213
609.6369	0.133369
609.8653	0.140923
610.0936	0.148921
610.3220	0.154239
610.5505	0.147212
610.7789	0.142253
611.0073	0.140649
611.2357	0.139889
611.4642	0.139932
611.6927	0.140227
611.9211	0.136239
612.1496	0.131491
612.3781	0.132039
612.6066	0.128368
612.8351	0.132461
613.0637	0.132229
613.2922	0.128072
613.5208	0.131238
613.7493	0.126722
613.9779	0.130246
614.2065	0.129718
614.4351	0.128072
614.6637	0.130330
614.8923	0.128114
615.1209	0.130372
615.3495	0.131069
615.5782	0.132483
615.8068	0.132651
616.0355	0.127650
616.2642	0.122670
616.4929	0.115643
616.7216	0.113407
616.9503	0.113976
617.1790	0.109946
617.4077	0.110452
617.6365	0.114229
617.8652	0.114208
618.0940	0.109460
618.3227	0.111317
618.5515	0.106464
618.7803	0.098825
619.0091	0.091883
619.2379	0.091735
619.4667	0.088000
619.6956	0.090638
619.9244	0.091883
620.1533	0.097770
620.3821	0.097580
620.6110	0.098382
620.8399	0.088570
621.0688	0.081690
621.2977	0.076288
621.5266	0.071773
621.7556	0.077766
621.9845	0.078103
622.2135	0.086797
622.4424	0.082049
622.6714	0.086270
622.9004	0.084603
623.1294	0.086713
623.3584	0.087325
623.5874	0.091355
623.8164	0.088042
624.0454	0.088422
624.2745	0.085721
624.5035	0.090384
624.7326	0.092896
624.9617	0.090891
625.1908	0.088190
625.4199	0.086185
625.6490	0.081479
625.8781	0.078483
626.1072	0.077892
626.3364	0.077470
626.5655	0.073039
626.7947	0.072849
627.0238	0.071266
627.2530	0.069325
627.4822	0.071182
627.7114	0.072216
627.9406	0.068966
628.1698	0.064703
628.3991	0.062150
628.6283	0.060926
628.8576	0.058922
629.0868	0.061981
629.3161	0.059597
629.5454	0.063311
629.7747	0.060251
630.0040	0.062551
630.2333	0.063036
630.4626	0.059597
630.6920	0.057212
630.9213	0.057402
631.1507	0.053857
631.3801	0.054364
631.6094	0.054406
631.8388	0.054279
632.0682	0.052127
632.2976	0.050460
632.5271	0.050059
632.7565	0.047083
632.9859	0.047210
633.2154	0.046387
633.4448	0.043159
633.6743	0.046683
633.9038	0.043623
634.1333	0.045395
634.3628	0.044889
634.5923	0.041639
634.8218	0.041091
635.0514	0.040310
635.2809	0.042167
635.5105	0.041449
635.7400	0.039951
635.9696	0.042779
636.1992	0.042103
636.4288	0.047759
636.6584	0.047569
636.8880	0.045670
637.1177	0.044699
637.3473	0.042758
637.5770	0.043137
637.8066	0.042188
638.0363	0.039846
638.2660	0.040753
638.4957	0.041829
638.7254	0.042779
638.9551	0.042884
639.1848	0.040394
639.4145	0.040964
639.6443	0.037952
639.8740	0.040006
640.1038	0.036131
640.3336	0.036752
640.5633	0.036549
640.7931	0.037532
641.0229	0.035323
641.2528	0.033610
641.4826	0.034058
641.7124	0.034903
641.9423	0.031392
642.1721	0.031790
642.4020	0.031517
642.6319	0.031177
642.8617	0.029811
643.0916	0.030795
643.3216	0.031540
643.5515	0.032263
643.7814	0.030257
644.0113	0.030461
644.2413	0.027735
644.4712	0.027342
644.7012	0.028275
644.9312	0.026379
645.1612	0.028459
645.3912	0.025192
645.6212	0.026495
645.8512	0.026467
646.0812	0.027944
646.3113	0.024873
646.5413	0.024409
646.7714	0.025375
647.0015	0.023722
647.2316	0.024705
647.4616	0.024789
647.6918	0.027681
647.9219	0.028932
648.1520	0.030714
648.3821	0.029935
648.6123	0.032263
648.8424	0.031116
649.0726	0.035515
649.3028	0.032358
649.5329	0.033250
649.7631	0.033793
649.9933	0.033075
650.2236	0.029979
650.4538	0.027788
650.6840	0.029595
650.9143	0.029169
651.1445	0.029472
651.3748	0.028766
651.6051	0.029693
651.8354	0.030278
652.0657	0.031283
652.2960	0.030478
652.5263	0.032976
652.7566	0.033911
652.9870	0.032578
653.2173	0.031795
653.4477	0.031783
653.6780	0.032178
653.9084	0.032856
654.1388	0.031922
654.3692	0.034936
654.5996	0.036209
654.8300	0.041086
655.0605	0.064217
655.2909	0.184595
655.5213	0.524933
655.7518	0.966973
655.9823	1.000000
656.2128	1.000000
656.4433	1.000000
656.6738	1.000000
656.9043	1.000000
657.1348	0.870463
657.3653	0.713814
657.5959	0.619961
657.8264	0.540039
658.0570	0.486336
658.2875	0.452075
658.5181	0.409278
658.7487	0.382480
658.9793	0.371351
659.2099	0.328242
659.4406	0.246319
659.6712	0.165015
659.9018	0.096119
660.1325	0.056822
660.3632	0.039800
660.5938	0.030691
660.8245	0.025656
661.0552	0.024689
661.2859	0.024685
661.5166	0.023037
661.7474	0.022213
661.9781	0.021360
662.2088	0.021542
662.4396	0.022576
662.6704	0.023077
662.9011	0.022970
663.1319	0.022585
663.3627	0.024019
663.5935	0.021813
663.8243	0.022672
664.0552	0.021765
664.2860	0.023764
664.5168	0.021534
664.7477	0.023382
664.9786	0.021780
665.2094	0.025082
665.4403	0.024229
665.6712	0.025385
665.9021	0.023393
666.1330	0.021942
666.3640	0.021993
666.5949	0.021505
666.8259	0.020821
667.0568	0.020676
667.2878	0.019303
667.5188	0.021319
667.7497	0.019884
667.9807	0.020642
668.2117	0.020540
668.4428	0.022500
668.6738	0.020938
668.9048	0.022437
669.1359	0.021909
669.3669	0.020474
669.5980	0.019524
669.8291	0.021782
670.0602	0.021360
670.2913	0.020369
670.5224	0.022057
670.7535	0.020833
670.9846	0.022247
671.2157	0.023428
671.4469	0.025602
671.6781	0.029822
671.9092	0.028978
672.1404	0.032671
672.3716	0.033009
672.6028	0.035119
672.8340	0.035899
673.0652	0.033494
673.2964	0.031046
673.5277	0.032375
673.7589	0.029252
673.9902	0.028788
674.2214	0.028619
674.4527	0.028134
674.6840	0.026826
674.9153	0.027058
675.1466	0.024737
675.3779	0.025581
675.6093	0.027860
675.8406	0.026066
676.0719	0.026404
676.3033	0.027923
676.5347	0.024758
676.7661	0.024927
676.9974	0.022563
677.2288	0.024758
677.4602	0.024884
677.6917	0.028134
677.9231	0.029548
678.1545	0.028577
678.3860	0.027944
678.6174	0.030160
678.8489	0.030286
679.0804	0.031531
679.3119	0.031848
679.5434	0.034802
679.7749	0.035773
680.0064	0.035878
680.2379	0.033072
680.4694	0.035309
680.7010	0.034000
680.9325	0.034654
681.1641	0.034296
681.3957	0.035625
681.6273	0.033177
681.8589	0.032755
682.0905	0.035963
682.3221	0.033135
682.5537	0.031827
682.7854	0.031468
683.0170	0.029147
683.2487	0.032038
683.4803	0.030118
683.7120	0.034254
683.9437	0.032523
684.1754	0.033768
684.4071	0.033135
684.6388	0.037398
684.8705	0.035984
685.1023	0.040964
685.3340	0.043728
685.5658	0.043876
685.7975	0.042800
686.0293	0.043981
686.2611	0.041787
686.4929	0.043559
686.7247	0.044235
686.9565	0.043327
687.1883	0.044783
687.4202	0.044235
687.6520	0.043960
687.8838	0.041935
688.1157	0.040985
688.3476	0.039128
688.5795	0.038917
688.8114	0.037271
689.0433	0.037123
689.2752	0.036976
689.5071	0.035794
689.7390	0.039297
689.9710	0.035203
690.2029	0.035077
690.4349	0.032987
690.6669	0.034254
690.8988	0.034380
691.1308	0.037545
691.3628	0.037735
691.5948	0.038411
691.8269	0.037630
692.0589	0.037440
692.2909	0.037778
692.5230	0.036849
692.7550	0.038411
692.9871	0.039888
693.2192	0.039698
693.4513	0.039445
693.6834	0.040690
693.9155	0.036765
694.1476	0.037588
694.3797	0.034781
694.6119	0.033599
694.8440	0.034697
695.0762	0.034908
695.3083	0.034844
695.5405	0.035625
695.7727	0.031848
696.0049	0.030033
696.2371	0.027628
696.4693	0.030666
696.7016	0.037102
696.9338	0.039381
697.1660	0.039318
697.3983	0.038326
697.6306	0.037145
697.8628	0.038601
698.0951	0.039086
698.3274	0.037693
698.5597	0.037946
698.7920	0.036955
699.0243	0.038200
699.2567	0.037145
699.4890	0.035604
699.7214	0.033578
699.9537	0.033367
700.1861	0.031447
700.4185	0.030730
700.6509	0.031405
700.8833	0.030308
701.1157	0.031447
701.3481	0.026488
701.5806	0.025771
701.8130	0.030413
702.0454	0.028556
702.2779	0.030054
702.5104	0.030835
702.7429	0.030160
702.9753	0.029147
703.2078	0.027079
703.4403	0.028809
703.6729	0.027775
703.9054	0.028725
704.1379	0.028451
704.3705	0.028282
704.6030	0.027395
704.8356	0.024272
705.0682	0.026172
705.3008	0.025159
705.5334	0.022563
705.7660	0.025581
705.9986	0.026340
706.2312	0.028197
706.4638	0.031236
706.6965	0.034359
706.9291	0.035499
707.1618	0.036638
707.3945	0.038136
707.6272	0.037419
707.8599	0.037419
708.0926	0.037778
708.3253	0.038917
708.5580	0.037588
708.7907	0.036469
709.0235	0.035667
709.2562	0.032375
709.4890	0.034486
709.7217	0.032481
709.9545	0.034739
710.1873	0.033009
710.4201	0.036511
710.6529	0.033832
710.8857	0.034064
711.1186	0.032945
711.3514	0.031637
711.5842	0.031785
711.8171	0.030223
712.0500	0.027860
712.2828	0.029126
712.5157	0.027839
712.7486	0.030540
712.9815	0.030160
713.2144	0.030835
713.4474	0.031278
713.6803	0.031679
713.9132	0.031595
714.1462	0.034296
714.3791	0.034296
714.6121	0.034950
714.8451	0.031658
715.0781	0.035942
715.3111	0.033789
715.5441	0.034992
715.7771	0.034422
716.0102	0.032249
716.2432	0.029569
716.4762	0.030054
716.7093	0.028472
716.9424	0.029041
717.1754	0.027606
717.4085	0.030075
717.6416	0.027395
717.8747	0.027817
718.1078	0.027691
718.3410	0.028894
718.5741	0.028261
718.8072	0.026277
719.0404	0.028303
719.2736	0.026952
719.5067	0.030223
719.7399	0.029548
719.9731	0.027417
720.2063	0.027606
720.4395	0.027817
720.6727	0.028598
720.9060	0.028767
721.1392	0.030983
721.3725	0.030096
721.6057	0.029463
721.8390	0.027163
722.0723	0.029147
722.3055	0.028936
722.5388	0.027564
722.7721	0.028851
723.0055	0.027163
723.2388	0.029843
723.4721	0.026952
723.7055	0.027860
723.9388	0.026383
724.1722	0.026488
724.4056	0.027585
724.6389	0.026594
724.8723	0.027374
725.1057	0.029379
725.3391	0.031848
725.5726	0.032544
725.8060	0.032776
726.0394	0.032080
726.2729	0.033494
726.5063	0.034929
726.7398	0.031553
726.9733	0.031152
727.2068	0.031742
727.4403	0.032671
727.6738	0.030835
727.9073	0.033072
728.1408	0.031785
728.3743	0.033895
728.6079	0.034296
728.8414	0.037313
729.0750	0.032966
729.3086	0.036533
729.5421	0.035815
729.7757	0.037567
730.0093	0.038094
730.2429	0.034781
730.4766	0.037588
730.7102	0.039529
730.9438	0.042040
731.1775	0.044171
731.4111	0.042969
731.6448	0.043960
731.8785	0.045986
732.1122	0.040563
732.3458	0.041555
732.5795	0.041787
732.8133	0.042758
733.0470	0.042525
733.2807	0.040711
733.5145	0.043475
733.7482	0.044615
733.9820	0.047294
734.2157	0.052464
734.4495	0.052317
734.6833	0.051599
734.9171	0.047717
735.1509	0.045269
735.3847	0.047484
735.6185	0.049763
735.8524	0.046324
736.0862	0.048181
736.3201	0.047548
736.5539	0.047801
736.7878	0.046472
737.0217	0.046113
737.2556	0.048919
737.4895	0.046704
737.7234	0.043665
737.9573	0.045184
738.1912	0.043517
738.4252	0.043159
738.6591	0.039719
738.8931	0.043686
739.1271	0.044171
739.3610	0.047590
739.5950	0.046134
739.8290	0.045501
740.0630	0.042736
740.2970	0.041956
740.5310	0.041323
740.7651	0.040268
740.9991	0.037630
741.2332	0.036638
741.4672	0.035604
741.7013	0.034317
741.9354	0.034254
742.1695	0.032375
742.4036	0.035013
742.6377	0.035435
742.8718	0.035583
743.1059	0.032734
743.3400	0.032017
743.5742	0.032038
743.8083	0.032101
744.0425	0.031405
744.2767	0.029970
744.5108	0.028640
744.7450	0.029632
744.9792	0.028619
745.2134	0.028894
745.4477	0.029653
745.6819	0.028788
745.9161	0.028577
746.1504	0.030286
746.3846	0.029463
746.6189	0.028493
746.8532	0.028092
747.0874	0.030708
747.3217	0.030793
747.5560	0.030856
747.7903	0.029928
748.0247	0.030286
748.2590	0.029548
748.4933	0.029168
748.7277	0.029041
748.9620	0.029485
749.1964	0.032291
749.4308	0.031489
749.6652	0.035034
749.8995	0.038769
750.1339	0.037334
750.3684	0.041745
750.6028	0.040289
750.8372	0.040035
751.0717	0.036680
751.3061	0.040457
751.5406	0.038833
751.7750	0.038748
752.0095	0.041829
752.2440	0.040837
752.4785	0.039613
752.7130	0.039191
752.9475	0.038010
753.1820	0.035836
753.4166	0.038073
753.6511	0.039550
753.8856	0.041069
754.1202	0.045248
754.3548	0.042336
754.5894	0.041850
754.8239	0.040500
755.0585	0.037778
755.2931	0.041006
755.5278	0.040141
755.7624	0.042547
755.9970	0.044889
756.2317	0.047020
756.4663	0.048751
756.7010	0.049257
756.9356	0.050143
757.1703	0.051346
757.4050	0.057360
757.6397	0.060779
757.8744	0.060610
758.1091	0.058246
758.3438	0.057318
758.5786	0.056558
758.8133	0.052380
759.0481	0.055313
759.2828	0.057423
759.5176	0.057803
759.7524	0.059196
759.9872	0.061348
760.2220	0.062235
760.4568	0.063986
760.6916	0.063606
760.9264	0.063501
761.1613	0.061834
761.3961	0.059133
761.6310	0.054954
761.8658	0.054131
762.1007	0.052232
762.3356	0.050734
762.5705	0.049362
762.8054	0.049320
763.0403	0.049932
763.2752	0.051156
763.5101	0.049384
763.7450	0.049320
763.9800	0.049194
764.2149	0.052296
764.4499	0.055524
764.6849	0.058310
764.9198	0.059027
765.1548	0.060546
765.3898	0.057592
765.6248	0.053899
765.8599	0.052528
766.0949	0.049384
766.3299	0.048286
766.5650	0.044214
766.8000	0.043053
767.0351	0.039318
767.2701	0.040732
767.5052	0.039719
767.7403	0.040605
767.9754	0.040310
768.2105	0.042314
768.4456	0.044404
768.6808	0.049827
768.9159	0.046640
769.1510	0.048708
769.3862	0.047020
769.6214	0.045058
769.8565	0.044762
770.0917	0.044319
770.3269	0.046345
770.5621	0.042926
770.7973	0.046493
771.0325	0.049468
771.2677	0.048096
771.5030	0.047147
771.7382	0.046345
771.9735	0.042251
772.2087	0.043264
772.4440	0.040394
772.6793	0.040964
772.9146	0.040753
773.1499	0.037123
773.3852	0.038094
773.6205	0.039170
773.8558	0.037187
774.0911	0.037862
774.3265	0.032987
774.5618	0.034021
774.7972	0.033853
775.0326	0.031004
775.2679	0.030054
775.5033	0.029274
775.7387	0.029147
775.9741	0.028155
776.2095	0.026277
776.4450	0.026256
776.6804	0.024357
776.9158	0.023977
777.1513	0.023935
777.3868	0.023935
777.6222	0.024230
777.8577	0.023935
778.0932	0.024526
778.3287	0.026952
778.5642	0.027733
778.7997	0.027290
779.0352	0.029020
779.2707	0.030286
779.5063	0.030603
779.7418	0.029421
779.9774	0.030096
780.2130	0.029379
780.4485	0.029168
780.6841	0.027058
780.9197	0.032080
781.1553	0.034190
781.3909	0.034823
781.6265	0.034549
781.8622	0.033409
782.0978	0.034908
782.3335	0.033494
782.5691	0.035119
782.8048	0.034232
783.0405	0.034000
783.2761	0.035055
783.5118	0.033916
783.7475	0.036427
783.9832	0.033642
784.2190	0.034950
784.4547	0.033367
784.6904	0.027564
784.9262	0.028767
785.1619	0.027628
785.3977	0.028282
785.6335	0.029885
785.8692	0.028662
786.1050	0.029611
786.3408	0.028830
786.5766	0.028155
786.8124	0.027986
787.0483	0.026150
787.2841	0.030265
787.5199	0.027585
787.7558	0.027817
787.9917	0.030392
788.2275	0.028999
788.4634	0.030772
788.6993	0.030519
788.9352	0.031468
789.1711	0.032164
789.4070	0.029168
789.6429	0.028240
789.8789	0.026784
790.1148	0.027353
790.3507	0.025433
790.5867	0.025074
790.8227	0.023850
791.0586	0.024082
791.2946	0.025433
791.5306	0.023302
791.7666	0.024188
792.0026	0.025180
792.2387	0.023217
792.4747	0.022985
792.7107	0.022036
792.9468	0.024336
793.1828	0.022458
793.4189	0.021360
793.6550	0.022057
793.8910	0.027353
794.1271	0.028915
794.3632	0.032987
794.5993	0.029527
794.8355	0.029801
795.0716	0.030308
795.3077	0.032059
795.5439	0.031574
795.7800	0.028472
796.0162	0.026678
796.2523	0.025011
796.4885	0.023133
796.7247	0.021550
796.9609	0.021149
797.1971	0.022057
797.4333	0.022500
797.6695	0.021930
797.9058	0.024315
798.1420	0.021803
798.3783	0.022500
798.6145	0.022521
798.8508	0.023449
799.0871	0.023048
799.3233	0.021149
799.5596	0.020727
799.7959	0.022521
800.0322	0.021170
800.2686	0.021086
800.5049	0.019292
800.7412	0.019841
800.9776	0.018997
801.2139	0.019630
801.4503	0.019102
801.6867	0.018385
801.9230	0.018279
802.1594	0.018828
802.3958	0.016127
802.6322	0.017267
802.8686	0.017267
803.1051	0.017900
803.3415	0.016612
803.5779	0.018870
803.8144	0.018153
804.0508	0.018406
804.2873	0.016887
804.5238	0.016043
804.7603	0.016296
804.9968	0.018068
805.2333	0.016634
805.4698	0.018301
805.7063	0.017984
805.9428	0.019841
806.1794	0.024061
806.4159	0.022880
806.6525	0.024230
806.8890	0.024610
807.1256	0.023808
807.3622	0.024758
807.5988	0.020411
807.8354	0.022690
808.0720	0.022247
808.3086	0.023576
808.5452	0.024441
808.7818	0.024547
809.0185	0.024251
809.2551	0.022922
809.4918	0.022162
809.7284	0.020179
809.9651	0.019461
810.2018	0.018659
810.4385	0.019693
810.6752	0.019124
810.9119	0.020010
811.1486	0.020685
811.3853	0.018913
811.6221	0.016971
811.8588	0.016802
812.0956	0.016908
812.3323	0.014629
812.5691	0.015811
812.8059	0.012160
813.0427	0.015325
813.2795	0.012624
813.5163	0.016634
813.7531	0.017140
813.9899	0.019904
814.2267	0.017921
814.4636	0.018322
814.7004	0.016929
814.9373	0.016697
815.1742	0.015536
815.4110	0.016317
815.6479	0.014333
815.8848	0.014355
816.1217	0.016127
816.3586	0.012962
816.5955	0.013173
816.8324	0.015093
817.0694	0.016233
817.3063	0.014650
817.5433	0.015346
817.7802	0.014945
818.0172	0.016064
818.2542	0.014376
818.4912	0.013278
818.7282	0.013257
818.9652	0.012962
819.2022	0.013447
819.4392	0.014249
819.6762	0.011548
819.9133	0.011189
820.1503	0.012033
820.3874	0.013764
820.6244	0.014903
820.8615	0.015114
821.0986	0.016000
821.3357	0.015051
821.5727	0.013785
821.8099	0.014566
822.0470	0.014608
822.2841	0.015515
822.5212	0.011991
822.7584	0.013996
822.9955	0.012920
823.2327	0.013067
823.4698	0.011928
823.7070	0.010598
823.9442	0.010894
824.1814	0.010767
824.4186	0.010134
824.6558	0.010598
824.8930	0.010619
825.1302	0.011274
825.3675	0.011991
825.6047	0.013131
825.8419	0.013532
826.0792	0.012097
826.3165	0.011801
826.5537	0.012540
826.7910	0.014460
827.0283	0.013954
827.2656	0.012835
827.5029	0.013975
827.7402	0.014355
827.9776	0.014333
828.2149	0.012941
828.4522	0.011126
828.6896	0.011738
828.9270	0.014355
829.1643	0.012265
829.4017	0.012877
829.6391	0.012835
829.8765	0.012413
830.1139	0.012118
830.3513	0.011253
830.5887	0.010303
830.8261	0.009691
831.0636	0.008066
831.3010	0.009860
831.5385	0.006441
831.7759	0.009058
832.0134	0.007707
832.2509	0.006948
832.4884	0.007834
832.7259	0.010408
832.9634	0.008699
833.2009	0.009775
833.4384	0.009058
833.6759	0.009965
833.9135	0.009353
834.1510	0.009965
834.3886	0.011316
834.6261	0.011126
834.8637	0.010641
835.1013	0.011020
835.3389	0.009649
835.5765	0.010725
835.8141	0.010176
836.0517	0.009163
836.2893	0.009522
836.5269	0.008720
836.7646	0.006737
837.0022	0.008129
837.2399	0.008214
837.4775	0.005956
837.7152	0.007792
837.9529	0.006927
838.1906	0.006716
838.4283	0.008151
838.6660	0.007011
838.9037	0.006610
839.1414	0.007412
839.3791	0.008256
839.6169	0.007117
839.8546	0.007750
840.0924	0.008636
840.3302	0.007940
840.5679	0.007982
840.8057	0.007665
841.0435	0.006695
841.2813	0.006420
841.5191	0.005998
841.7569	0.007834
841.9947	0.005260
842.2326	0.006040
842.4704	0.004605
842.7082	0.005534
842.9461	0.005302
843.1840	0.006526
843.4218	0.005344
843.6597	0.005513
843.8976	0.005344
844.1355	0.005703
844.3734	0.004289
844.6113	0.005028
844.8492	0.004922
845.0872	0.005450
845.3251	0.004542
845.5631	0.007201
845.8010	0.005471
846.0390	0.005407
846.2770	0.004205
846.5149	0.006357
846.7529	0.005850
846.9909	0.005450
847.2289	0.003972
847.4669	0.005703
847.7050	0.005703
847.9430	0.007285
848.1810	0.005407
848.4191	0.003804
848.6571	0.004732
848.8952	0.005091
849.1333	0.006251
849.3713	0.004901
849.6094	0.004226
849.8475	0.005196
850.0856	0.005597
850.3237	0.004205
850.5619	0.004753
850.8000	0.005407
851.0381	0.004838
851.2763	0.006167
851.5144	0.005323
851.7526	0.006146
851.9908	0.004901
852.2289	0.005407
852.4671	0.005998
852.7053	0.009037
852.9435	0.010788
853.1817	0.012329
853.4200	0.014502
853.6582	0.014059
853.8964	0.014608
854.1347	0.015030
854.3729	0.012751
854.6112	0.013426
854.8495	0.014608
855.0877	0.014439
855.3260	0.012118
855.5643	0.012350
855.8026	0.012519
856.0409	0.013468
856.2792	0.011337
856.5176	0.012350
856.7559	0.012751
856.9942	0.011653
857.2326	0.011400
857.4710	0.010957
857.7093	0.009607
857.9477	0.009923
858.1861	0.011042
858.4245	0.008615
858.6629	0.008657
858.9013	0.009163
859.1397	0.008805
859.3781	0.010050
859.6166	0.008193
859.8550	0.008784
860.0935	0.009543
860.3319	0.007707
860.5704	0.007159
860.8089	0.008784
861.0473	0.007982
861.2858	0.008383
861.5243	0.006441
861.7628	0.006230
862.0013	0.006526
862.2399	0.006251
862.4784	0.005534
862.7169	0.006631
862.9555	0.005829
863.1940	0.005555
863.4326	0.007074
863.6712	0.007201
863.9098	0.006884
864.1483	0.006716
864.3869	0.006125
864.6255	0.006568
864.8642	0.006357
865.1028	0.006484
865.3414	0.005049
865.5800	0.006378
865.8187	0.005829
866.0573	0.004985
866.2960	0.003171
866.5347	0.004648
866.7733	0.004352
867.0120	0.007707
867.2507	0.004880
867.4894	0.005745
867.7281	0.005661
867.9669	0.006336
868.2056	0.005998
868.4443	0.006758
868.6831	0.004563
868.9218	0.003593
869.1606	0.007518
869.3993	0.004120
869.6381	0.005956
869.8769	0.005450
870.1157	0.006019
870.3545	0.004099
870.5933	0.006547
870.8321	0.005576
871.0709	0.005492
871.3097	0.005703
871.5486	0.005745
871.7874	0.006568
872.0263	0.003783
872.2651	0.006062
872.5040	0.005217
872.7429	0.005028
872.9818	0.004711
873.2207	0.005935
873.4596	0.003994
873.6985	0.005239
873.9374	0.005977
874.1763	0.005682
874.4153	0.006209
874.6542	0.005323
874.8932	0.005703
875.1321	0.007180
875.3711	0.005872
875.6101	0.006800
875.8491	0.005914
876.0880	0.004226
876.3270	0.004922
876.5661	0.005935
876.8051	0.006251
877.0441	0.005576
877.2831	0.006884
877.5222	0.006462
877.7612	0.005344
878.0003	0.007750
878.2393	0.007623
878.4784	0.007264
878.7175	0.006294
878.9566	0.006737
879.1957	0.007518
879.4348	0.007475
879.6739	0.008699
879.9130	0.005028
880.1521	0.006948
880.3913	0.007813
880.6304	0.009733
880.8696	0.007391
881.1087	0.008235
881.3479	0.006969
881.5871	0.007201
881.8262	0.007285
882.0654	0.007264
882.3046	0.007328
882.5438	0.005513
882.7831	0.006505
883.0223	0.006083
883.2615	0.005850
883.5007	0.007433
883.7400	0.006505
883.9792	0.006821
884.2185	0.007159
884.4578	0.006062
884.6971	0.005618
884.9363	0.007095
885.1756	0.006716
885.4149	0.008763
885.6542	0.006083
885.8936	0.006315
886.1329	0.005935
886.3722	0.006568
886.6116	0.007897
886.8509	0.005028
887.0903	0.004795
887.3296	0.006673
887.5690	0.005196
887.8084	0.005217
888.0478	0.005935
888.2872	0.005070
888.5266	0.004901
888.7660	0.004373
889.0054	0.003804
889.2448	0.005956
889.4843	0.002685
889.7237	0.005112
889.9632	0.004120
890.2026	0.005302
890.4421	0.004521
890.6816	0.005618
890.9211	0.004437
891.1606	0.003783
891.4001	0.005597
891.6396	0.006040
891.8791	0.005618
892.1186	0.005323
892.3581	0.005407
892.5977	0.005850
892.8372	0.005049
893.0768	0.005766
893.3163	0.004437
893.5559	0.004605
893.7955	0.005196
894.0351	0.004036
894.2747	0.004036
894.5143	0.004268
894.7539	0.005682
894.9935	0.004352
895.2331	0.002685
895.4727	0.003656
895.7124	0.003403
895.9520	0.004690
896.1917	0.003972
896.4314	0.005344
896.6710	0.004922
896.9107	0.005829
897.1504	0.005450
897.3901	0.005196
897.6298	0.004901
897.8695	0.005302
898.1092	0.003339
898.3489	0.003192
898.5887	0.004310
898.8284	0.006441
899.0682	0.005112
899.3079	0.004964
899.5477	0.005070
899.7875	0.003719
900.0272	0.003994
900.2670	0.004205
900.5068	0.004500
900.7466	0.003466
900.9864	0.003128
901.2263	0.004732
901.4661	0.004816
901.7059	0.005872
901.9458	0.004838
902.1856	0.004816
902.4255	0.004627
902.6654	0.005576
902.9052	0.003994
903.1451	0.003128
903.3850	0.005492
903.6249	0.004458
903.8648	0.003614
904.1047	0.004922
904.3446	0.005576
904.5846	0.003994
904.8245	0.004943
905.0644	0.004648
905.3044	0.004268
905.5444	0.004838
905.7843	0.005872
906.0243	0.005239
906.2643	0.004605
906.5043	0.004479
906.7443	0.005112
906.9843	0.006062
907.2243	0.003508
907.4643	0.003909
907.7043	0.004605
907.9444	0.004120
908.1844	0.003023
908.4245	0.003276
908.6645	0.003656
908.9046	0.004099
909.1447	0.003825
909.3847	0.003360
909.6248	0.003930
909.8649	0.002938
910.1050	0.001968
910.3452	0.004838
910.5853	0.002917
910.8254	0.003571
911.0655	0.002791
911.3057	0.004162
911.5458	0.001715
911.7860	0.002495
912.0262	0.004226
912.2663	0.004816
912.5065	0.004669
912.7467	0.003951
912.9869	0.003593
913.2271	0.005260
913.4673	0.003086
913.7075	0.002516
913.9478	0.004310
914.1880	0.003276
914.4283	0.003128
914.6685	0.001820
914.9088	0.002664
915.1490	0.003192
915.3893	0.003276
915.6296	0.002791
915.8699	0.003783
916.1102	0.003360
916.3505	0.002010
916.5908	0.004669
916.8311	0.002559
917.0714	0.003635
917.3118	0.004015
917.5521	0.004732
917.7925	0.003149
918.0328	0.003825
918.2732	0.004099
918.5136	0.004605
918.7539	0.004352
918.9943	0.005302
919.2347	0.005787
919.4751	0.004183
919.7155	0.002432
919.9560	0.003846
920.1964	0.002390
920.4368	0.002854
920.6773	0.002917
920.9177	0.003888
921.1582	0.001883
921.3986	0.003698
921.6391	0.003825
921.8796	0.004057
922.1201	0.002622
922.3606	0.003128
922.6011	0.004268
922.8416	0.003487
923.0821	0.003255
923.3226	0.004099
923.5631	0.004036
923.8037	0.003297
924.0442	0.003023
924.2848	0.004268
924.5254	0.002242
924.7659	0.002938
925.0065	0.003171
925.2471	0.001862
925.4877	0.001883
925.7283	0.003529
925.9689	0.001630
926.2095	0.000934
926.4501	0.002179
926.6908	0.003192
926.9314	0.001651
927.1720	0.002770
927.4127	0.003255
927.6533	0.001440
927.8940	0.004057
928.1347	0.002031
928.3754	0.002896
928.6161	0.002284
928.8568	0.002516
929.0975	0.003994
929.3382	0.000765
929.5789	0.002580
929.8196	0.000892
930.0604	0.003846
930.3011	0.001377
930.5419	0.001482
930.7826	0.004057
931.0234	0.002305
931.2642	0.000533
931.5049	0.002580
931.7457	0.001567
931.9865	0.003719
932.2273	0.001314
932.4681	0.001968
932.7089	0.002706
932.9498	0.001672
933.1906	0.001862
933.4314	0.002221
933.6723	0.001862
933.9131	0.002917
934.1540	0.002242
934.3949	0.004205
934.6358	0.001630
934.8766	0.001736
935.1175	0.004289
935.3584	0.002685
935.5993	0.002580
935.8403	0.001482
936.0812	0.001989
936.3221	0.000934
936.5630	0.001166
936.8040	0.002052
937.0449	0.001883
937.2859	0.002559
937.5269	0.000427
937.7678	0.002580
938.0088	0.001440
938.2498	0.001715
938.4908	0.000955
938.7318	0.000702
938.9728	0.001904
939.2138	0.000638
939.4549	0.001672
939.6959	0.002812
939.9369	0.002854
940.1780	0.001546
940.4190	0.001124
940.6601	0.001145
940.9012	0.002474
941.1422	0.000807
941.3833	0.002537
941.6244	0.001567
941.8655	0.001314
942.1066	0.002263
942.3477	0.001250
942.5889	-0.000121
942.8300	0.000828
943.0711	0.001525
943.3123	0.001672
943.5534	0.000554
943.7946	0.001736
944.0357	0.002052
944.2769	0.001904
944.5181	0.000702
944.7593	-0.000311
945.0005	0.001314
945.2417	0.001567
945.4829	0.000512
945.7241	0.002664
945.9653	0.000976
946.2066	0.000153
946.4478	0.000301
946.6891	0.000343
946.9303	0.001968
947.1716	0.000765
947.4128	0.000174
947.6541	0.001546
947.8954	0.000364
948.1367	0.001018
948.3780	0.001039
948.6193	0.000575
948.8606	0.002031
949.1019	0.000744
949.3433	0.000617
949.5846	0.000427
949.8259	-0.000797
950.0673	0.001271
950.3086	0.000237
950.5500	0.002242
950.7914	0.000934
951.0327	0.002537
951.2741	0.000512
951.5155	0.001799
951.7569	0.000723
951.9983	0.000554
952.2398	0.001504
952.4812	0.001947
952.7226	0.000849
952.9640	0.001567
953.2055	0.002305
953.4469	0.001314
953.6884	0.001103
953.9299	0.001292
954.1713	0.000934
954.4128	0.001482
954.6543	0.001124
954.8958	0.001187
955.1373	0.001672
955.3788	0.001440
955.6203	0.001883
955.8618	0.001314
956.1034	0.000765
956.3449	0.000934
956.5865	0.001060
956.8280	0.001271
957.0696	0.000491
957.3111	-0.000227
957.5527	0.000744
957.7943	0.000554
958.0359	0.001525
958.2775	0.000153
958.5191	0.002073
958.7607	0.002348
959.0023	0.001546
959.2439	0.001862
959.4856	0.001356
959.7272	0.001229
959.9688	0.000849
960.2105	0.000955
960.4522	0.001018
960.6938	0.000976
960.9355	0.001271
961.1772	0.002432
961.4189	0.000828
961.6606	0.001482
961.9023	0.000723
962.1440	0.001567
962.3857	0.003065
962.6274	0.001883
962.8692	0.000575
963.1109	0.001461
963.3527	-0.000670
963.5944	0.000976
963.8362	0.000997
964.0779	0.001736
964.3197	0.000195
964.5615	0.001060
964.8033	0.001208
965.0451	0.000132
965.2869	0.000744
965.5287	0.001546
965.7705	0.000195
966.0123	0.001862
966.2542	-0.000839
966.4960	0.001546
966.7379	0.000659
966.9797	0.001250
967.2216	0.002073
967.4634	0.000090
967.7053	-0.000037
967.9472	0.002137
968.1891	0.001841
968.4310	-0.000016
968.6729	0.001292
968.9148	0.001187
969.1567	0.001145
969.3987	0.001546
969.6406	-0.000438
969.8825	0.002200
970.1245	0.000258
970.3664	0.000195
970.6084	0.000470
970.8504	0.000807
971.0923	-0.000543
971.3343	0.000554
971.5763	0.000491
971.8183	0.000090
972.0603	0.000005
972.3023	0.001377
972.5443	0.000280
972.7864	0.001482
973.0284	-0.000965
973.2704	0.001039
973.5125	-0.000079
973.7545	0.001883
973.9966	0.000237
974.2387	0.002474
974.4807	0.001271
974.7228	0.001124
974.9649	0.000786
975.2070	0.000807
975.4491	0.001250
975.6912	0.000364
975.9333	0.000786
976.1755	0.001883
976.4176	0.001841
976.6597	-0.000142
976.9019	0.001060
977.1440	0.001187
977.3862	0.000786
977.6283	0.001525
977.8705	0.000997
978.1127	0.001229
978.3549	0.000512
978.5971	0.000892
978.8393	0.000638
979.0815	0.000322
979.3237	0.000849
979.5659	0.001335
979.8082	0.000470
980.0504	0.001799
980.2926	0.000786
980.5349	0.000659
980.7771	0.000828
981.0194	-0.000290
981.2617	0.000364
981.5040	0.001314
981.7462	0.000111
981.9885	0.000026
982.2308	-0.001345
982.4731	0.000427
982.7155	-0.000016
982.9578	0.000659
983.2001	-0.001092
983.4424	0.000681
983.6848	0.001250
983.9271	0.000237
984.1695	-0.000058
984.4118	0.000955
984.6542	0.000153
984.8966	-0.000586
985.1390	-0.000839
985.3814	0.000596
985.6238	0.000153
985.8662	-0.000079
986.1086	-0.000164
986.3510	0.002179
986.5934	0.000090
986.8358	0.000617
987.0783	-0.000543
987.3207	0.000807
987.5632	0.001018
987.8056	0.001060
988.0481	0.000153
988.2906	0.000301
988.5331	0.000512
988.7756	0.000385
989.0180	0.000047
989.2605	0.000343
989.5031	0.000427
989.7456	-0.000459
989.9881	0.000470
990.2306	0.000913
990.4732	0.001525
990.7157	0.001314
990.9582	-0.000100
991.2008	0.000934
991.4434	0.000069
991.6859	0.000280
991.9285	0.000047
992.1711	0.000090
992.4137	0.001081
992.6563	0.001356
992.8989	0.000343
993.1415	-0.000902
993.3841	0.001947
993.6267	0.001525
993.8694	-0.000311
994.1120	0.002537
994.3547	0.000406
994.5973	0.000997
994.8400	0.001799
995.0826	0.000427
995.3253	-0.000185
995.5680	-0.000311
995.8107	0.000892
996.0534	0.000069
996.2961	-0.000860
996.5388	-0.000100
996.7815	-0.001831
997.0242	-0.000375
997.2670	0.000765
997.5097	0.000681
997.7524	0.001609
997.9952	0.000892
998.2379	-0.000058
998.4807	0.000955
998.7235	0.001018
998.9662	0.001736
999.2090	0.000111
999.4518	0.000385
999.6946	0.000765
999.9374	0.001060
1000.1802	0.000343
1000.4230	0.001229
1000.6659	0.000870
1000.9087	0.000069
1001.1515	0.000617
1001.3944	-0.000248
1001.6372	0.000322
1001.8801	0.000681
1002.1230	-0.001134
1002.3658	-0.000164
1002.6087	0.000364
1002.8516	0.001187
1003.0945	0.000090
1003.3374	0.000744
1003.5803	0.001757
1003.8232	-0.000016
1004.0661	0.001103
1004.3091	-0.000290
1004.5520	0.001271
1004.7949	-0.000733
1005.0379	0.000174
1005.2808	-0.000797
1005.5238	0.000322
1005.7667	-0.000987
1006.0097	0.000216
1006.2527	0.000659
1006.4957	0.000470
1006.7387	-0.001176
1006.9817	0.001292
1007.2247	0.000280
1007.4677	0.000575
1007.7107	-0.000586
1007.9538	0.001989
1008.1968	0.000237
1008.4398	0.001482
1008.6829	-0.000881
1008.9259	0.000427
1009.1690	0.000132
1009.4121	0.000934
1009.6551	0.000258
1009.8982	-0.000206
1010.1413	0.000364
1010.3844	0.000744
1010.6275	-0.001176
1010.8706	-0.000142
1011.1137	0.001187
1011.3568	0.001440
1011.6000	0.000111
1011.8431	-0.000037
1012.0863	0.000132
1012.3294	0.001440
1012.5726	0.000174
1012.8157	0.000828
1013.0589	0.000301
1013.3021	-0.000164
1013.5452	0.000364
1013.7884	0.000596
1014.0316	0.001103
1014.2748	-0.001261
1014.5180	-0.000037
1014.7613	0.001883
1015.0045	0.000406
1015.2477	-0.000332
1015.4909	0.000892
1015.7342	0.001567
1015.9774	0.000005
1016.2207	0.000554
1016.4640	-0.000121
1016.7072	0.000955
1016.9505	0.000343
1017.1938	0.000322
1017.4371	0.001947
1017.6804	0.000174
1017.9237	-0.000311
1018.1670	0.000280
1018.4103	0.000955
1018.6536	0.001039
1018.8969	0.000237
1019.1403	0.000343
1019.3836	0.001018
1019.6270	0.000448
1019.8703	0.000343
1020.1137	0.000955
1020.3571	0.000575
1020.6004	0.000765
1020.8438	0.000427
1021.0872	-0.000586
1021.3306	-0.000564
1021.5740	0.000385
1021.8174	-0.001957
1022.0608	-0.000375
1022.3042	-0.001725
1022.5477	-0.000269
1022.7911	-0.000016
1023.0345	0.002200
