# Wavelength (nm)	Intensity (a.u.)
197.7802	0.000315
197.9842	-0.000234
198.1882	-0.002174
198.3922	0.000272
198.5963	0.001116
198.8003	-0.000234
199.0044	0.000420
199.2085	0.000357
199.4126	0.002318
199.6168	-0.000044
199.8209	0.000947
200.0251	0.000483
200.2292	0.001221
200.4334	-0.000149
200.6376	0.002128
200.8418	0.000779
201.0461	0.000188
201.2503	-0.000613
201.4546	0.000336
201.6589	-0.000044
201.8631	0.000315
202.0674	-0.000866
202.2718	0.000736
202.4761	-0.000149
202.6805	0.000019
202.8848	0.000399
203.0892	0.000884
203.2936	-0.001204
203.4980	0.000884
203.7024	-0.000276
203.9069	-0.000044
204.1113	0.001221
204.3158	0.000652
204.5203	-0.000234
204.7248	0.000272
204.9293	-0.000297
205.1338	0.000272
205.3384	0.001116
205.5430	0.001264
205.7475	-0.000128
205.9521	-0.001162
206.1567	0.000547
206.3614	0.000357
206.5660	0.000209
206.7706	0.000947
206.9753	0.000167
207.1800	0.000251
207.3847	0.000547
207.5894	-0.000656
207.7941	-0.000402
207.9989	0.000989
208.2036	0.000146
208.4084	-0.000571
208.6132	-0.001141
208.8180	-0.000023
209.0228	-0.000213
209.2276	0.000399
209.4325	0.002170
209.6373	0.000610
209.8422	-0.000930
210.0471	0.000631
210.2520	0.000968
210.4569	0.000462
210.6618	0.000842
210.8668	0.000863
211.0718	0.000757
211.2767	0.001369
211.4817	0.001643
211.6867	0.001728
211.8918	-0.000318
212.0968	0.001179
212.3018	0.000525
212.5069	-0.000424
212.7120	0.000146
212.9171	0.000568
213.1222	-0.000550
213.3273	0.001517
213.5325	0.000736
213.7376	0.000863
213.9428	-0.001056
214.1480	0.000989
214.3532	-0.000297
214.5584	0.000631
214.7636	-0.000887
214.9689	0.000800
215.1741	0.000462
215.3794	0.000441
215.5847	0.000736
215.7900	0.000167
215.9953	0.000884
216.2007	-0.000002
216.4060	0.000989
216.6114	0.000083
216.8168	0.000062
217.0222	0.000420
217.2276	0.000209
217.4330	0.001664
217.6384	-0.001141
217.8439	-0.000402
218.0494	-0.000149
218.2548	0.000652
218.4603	-0.000972
218.6659	0.001517
218.8714	0.000083
219.0769	0.001791
219.2825	-0.000972
219.4881	0.000146
219.6936	-0.000234
219.8992	0.000694
220.1049	-0.000508
220.3105	0.000083
220.5161	-0.000402
220.7218	0.000610
220.9275	0.000188
221.1332	0.000610
221.3389	-0.000255
221.5446	0.001854
221.7503	0.000462
221.9561	0.001264
222.1618	-0.000002
222.3676	0.001728
222.5734	0.000631
222.7792	0.000842
222.9850	0.001074
223.1909	0.000631
223.3967	-0.000887
223.6026	0.000357
223.8085	0.000040
224.0144	0.000420
224.2203	0.000631
224.4262	0.000989
224.6322	0.000188
224.8381	0.000209
225.0441	0.000272
225.2501	0.001496
225.4561	0.000884
225.6621	0.001179
225.8681	0.000146
226.0742	0.001643
226.2802	0.001622
226.4863	0.000736
226.6924	-0.000128
226.8985	-0.000149
227.1046	-0.000719
227.3107	0.000694
227.5169	-0.000719
227.7230	0.002128
227.9292	-0.000972
228.1354	0.001875
228.3416	-0.001246
228.5478	0.000631
228.7541	0.000483
228.9603	-0.000297
229.1666	0.000821
229.3729	0.000399
229.5791	-0.000044
229.7855	-0.000951
229.9918	0.000736
230.1981	0.000905
230.4045	-0.000023
230.6108	0.000293
230.8172	-0.000044
231.0236	0.000315
231.2300	0.000188
231.4364	0.000610
231.6429	0.000040
231.8493	0.000483
232.0558	-0.000044
232.2623	-0.000424
232.4688	0.000610
232.6753	0.001390
232.8818	0.000441
233.0884	0.001854
233.2949	-0.000508
233.5015	-0.000339
233.7081	-0.000297
233.9147	-0.000402
234.1213	0.000040
234.3279	0.001221
234.5346	-0.000634
234.7413	-0.000508
234.9479	0.001032
235.1546	-0.000192
235.3613	0.000462
235.5680	-0.000381
235.7748	0.000525
235.9815	0.000357
236.1883	0.000019
236.3951	0.000104
236.6018	-0.000466
236.8087	0.000547
237.0155	0.000019
237.2223	0.001390
237.4292	-0.000402
237.6360	0.000483
237.8429	-0.000065
238.0498	-0.000255
238.2567	0.000842
238.4636	-0.000402
238.6706	0.000357
238.8775	0.002107
239.0845	0.000483
239.2915	0.000694
239.4985	-0.000297
239.7055	0.000694
239.9125	0.001221
240.1195	0.001011
240.3266	0.001432
240.5337	0.000547
240.7407	0.000884
240.9478	-0.000466
241.1549	-0.000360
241.3621	0.001074
241.5692	0.000272
241.7764	0.000736
241.9835	0.000884
242.1907	0.001074
242.3979	-0.000930
242.6051	0.000715
242.8124	0.000652
243.0196	0.000188
243.2269	0.000652
243.4341	0.000968
243.6414	-0.000276
243.8487	0.001221
244.0560	0.000315
244.2634	0.000779
244.4707	-0.000002
244.6781	0.000926
244.8854	0.000525
245.0928	0.000357
245.3002	-0.000318
245.5076	0.001390
245.7151	0.001158
245.9225	-0.001056
246.1300	0.000083
246.3375	0.000125
246.5449	0.001285
246.7524	0.000926
246.9600	0.000947
247.1675	0.000652
247.3750	-0.001457
247.5826	0.000673
247.7902	0.000757
247.9978	0.000547
248.2054	0.000019
248.4130	0.000336
248.6206	0.000736
248.8283	0.000673
249.0359	0.000610
249.2436	0.000336
249.4513	-0.000255
249.6590	0.001453
249.8667	-0.000002
250.0745	0.000821
250.2822	0.000272
250.4900	-0.000550
250.6978	-0.000149
250.9056	0.000272
251.1134	-0.000318
251.3212	0.000083
251.5290	-0.000002
251.7369	0.003077
251.9447	-0.001225
252.1526	0.000821
252.3605	0.001453
252.5684	0.000315
252.7763	0.001116
252.9843	0.000420
253.1922	0.000631
253.4002	-0.000698
253.6082	0.001875
253.8162	0.000209
254.0242	0.000399
254.2322	0.000926
254.4402	-0.000445
254.6483	-0.000086
254.8564	-0.000887
255.0644	-0.000044
255.2725	0.000062
255.4806	0.000547
255.6888	-0.000634
255.8969	0.000547
256.1051	0.000863
256.3132	0.000062
256.5214	0.000842
256.7296	0.000968
256.9378	-0.000550
257.1460	0.000420
257.3543	0.001327
257.5625	0.001116
257.7708	0.000905
257.9791	0.000568
258.1874	0.000378
258.3957	0.000420
258.6040	-0.000192
258.8124	0.000272
259.0207	0.001032
259.2291	0.000800
259.4375	-0.000318
259.6459	0.001264
259.8543	-0.000255
260.0627	0.001411
260.2711	0.001285
260.4796	0.001917
260.6881	0.001306
260.8965	0.000504
261.1050	0.001306
261.3135	0.000779
261.5221	0.000694
261.7306	0.000251
261.9392	0.000251
262.1477	0.000083
262.3563	0.000547
262.5649	0.000104
262.7735	0.001538
262.9822	0.000652
263.1908	0.001517
263.3995	0.000104
263.6081	0.000209
263.8168	0.001032
264.0255	0.000842
264.2342	0.001833
264.4429	-0.000234
264.6517	0.001812
264.8604	-0.000424
265.0692	0.000146
265.2780	0.000188
265.4868	0.001179
265.6956	-0.000234
265.9044	-0.000276
266.1133	0.000926
266.3221	0.001432
266.5310	-0.000402
266.7399	0.000483
266.9488	0.001158
267.1577	0.001348
267.3666	0.000884
267.5755	0.000736
267.7845	0.000694
267.9935	-0.000466
268.2024	-0.000255
268.4114	0.000483
268.6205	-0.000592
268.8295	0.001221
269.0385	0.000694
269.2476	0.001095
269.4566	0.000230
269.6657	0.000968
269.8748	-0.000529
270.0839	0.000462
270.2931	-0.001162
270.5022	0.001011
270.7114	-0.000592
270.9205	0.000547
271.1297	0.001306
271.3389	0.000483
271.5481	0.001242
271.7573	0.000694
271.9666	-0.000297
272.1758	0.000905
272.3851	-0.000086
272.5944	-0.000023
272.8037	0.001032
273.0130	0.000188
273.2223	-0.000613
273.4316	0.000251
273.6410	-0.000234
273.8504	0.001622
274.0597	0.000272
274.2691	0.000420
274.4785	-0.000909
274.6880	-0.000634
274.8974	0.000884
275.1069	0.000863
275.3163	-0.001499
275.5258	0.000926
275.7353	-0.000255
275.9448	-0.000824
276.1543	-0.000592
276.3639	0.001728
276.5734	0.001137
276.7830	0.001053
276.9926	-0.000192
277.2022	0.000146
277.4118	0.000610
277.6214	0.000209
277.8310	0.000336
278.0407	-0.000107
278.2503	0.000736
278.4600	0.000842
278.6697	-0.000107
278.8794	0.000926
279.0891	0.000673
279.2989	-0.000339
279.5086	-0.000170
279.7184	0.000779
279.9281	-0.000887
280.1379	0.000230
280.3477	-0.001246
280.5576	0.000483
280.7674	0.000315
280.9772	0.001664
281.1871	0.001242
281.3970	0.000272
281.6069	0.000315
281.8168	0.000378
282.0267	0.000547
282.2366	0.000673
282.4466	-0.000023
282.6565	-0.000213
282.8665	0.001074
283.0765	-0.000909
283.2865	-0.000086
283.4965	-0.000065
283.7065	0.000694
283.9166	0.000652
284.1266	0.000800
284.3367	0.000947
284.5468	-0.000149
284.7569	0.000715
284.9670	-0.000845
285.1771	0.000441
285.3873	0.000251
285.5974	0.000547
285.8076	0.000652
286.0178	0.000694
286.2280	0.001242
286.4382	-0.000297
286.6484	0.000842
286.8587	0.000272
287.0689	0.000040
287.2792	0.000736
287.4895	-0.000023
287.6998	-0.000297
287.9101	0.000125
288.1204	-0.000086
288.3308	-0.000508
288.5411	0.000779
288.7515	-0.000634
288.9619	0.001242
289.1723	0.001791
289.3827	0.000652
289.5931	0.000188
289.8035	-0.001394
290.0140	0.000947
290.2245	0.001517
290.4349	0.000209
290.6454	0.001095
290.8559	-0.000234
291.0665	0.000631
291.2770	-0.000276
291.4875	0.001200
291.6981	0.000167
291.9087	-0.000445
292.1193	-0.000023
292.3299	0.001095
292.5405	0.000251
292.7511	0.002086
292.9618	-0.000487
293.1724	0.000125
293.3831	-0.000234
293.5938	-0.000128
293.8045	0.000104
294.0152	0.000863
294.2260	0.000884
294.4367	0.001812
294.6475	-0.000445
294.8582	0.001242
295.0690	0.000251
295.2798	-0.000487
295.4906	-0.000487
295.7015	0.001706
295.9123	-0.000318
296.1232	0.000062
296.3340	-0.000824
296.5449	-0.000719
296.7558	0.001285
296.9667	0.000694
297.1777	0.000315
297.3886	0.000779
297.5995	0.000315
297.8105	0.000040
298.0215	0.000673
298.2325	0.001200
298.4435	-0.000466
298.6545	0.001053
298.8656	-0.000381
299.0766	0.000905
299.2877	0.000188
299.4988	0.001221
299.7099	-0.000845
299.9210	0.000504
300.1321	0.000631
300.3432	0.001706
300.5544	0.000736
300.7655	0.000757
300.9767	0.000483
301.1879	-0.001014
301.3991	0.000315
301.6103	0.002023
301.8215	0.000083
302.0328	0.000757
302.2441	0.000525
302.4553	0.001327
302.6666	0.001053
302.8779	-0.000466
303.0892	0.001158
303.3006	-0.000170
303.5119	-0.000550
303.7233	0.000821
303.9346	-0.000761
304.1460	0.000293
304.3574	-0.000824
304.5688	0.001791
304.7803	0.001285
304.9917	0.000821
305.2031	0.000504
305.4146	0.000019
305.6261	-0.000297
305.8376	-0.000255
306.0491	-0.000592
306.2606	-0.001373
306.4722	0.000188
306.6837	0.001559
306.8953	0.000420
307.1069	0.000062
307.3184	0.000019
307.5301	0.001559
307.7417	-0.000529
307.9533	0.000357
308.1650	0.000104
308.3766	0.001622
308.5883	0.000146
308.8000	0.000547
309.0117	0.000525
309.2234	0.001728
309.4351	0.000293
309.6469	0.001264
309.8586	-0.000360
310.0704	0.000209
310.2822	-0.000951
310.4940	0.000715
310.7058	-0.000445
310.9176	-0.000571
311.1295	-0.000381
311.3413	0.000378
311.5532	-0.000339
311.7651	0.001474
311.9770	0.000483
312.1889	0.000378
312.4008	0.001242
312.6127	-0.000381
312.8247	0.001285
313.0366	0.001960
313.2486	0.000652
313.4606	0.001559
313.6726	-0.000972
313.8846	0.000842
314.0967	0.000673
314.3087	0.000715
314.5208	-0.000508
314.7328	-0.000065
314.9449	0.000441
315.1570	0.000315
315.3692	0.000146
315.5813	0.000188
315.7934	0.002381
316.0056	0.001643
316.2177	0.002402
316.4299	0.000146
316.6421	0.000272
316.8543	0.000167
317.0666	-0.000023
317.2788	-0.000234
317.4911	0.000483
317.7033	0.001200
317.9156	-0.000276
318.1279	0.002044
318.3402	0.000568
318.5525	-0.000297
318.7649	0.000483
318.9772	0.001221
319.1896	-0.000402
319.4019	0.001200
319.6143	0.000104
319.8267	0.000842
320.0392	0.001074
320.2516	0.001390
320.4640	-0.000613
320.6765	0.002044
320.8890	0.001158
321.1014	0.000589
321.3139	-0.000634
321.5265	-0.000192
321.7390	-0.000402
321.9515	0.001116
322.1641	-0.000677
322.3766	0.000315
322.5892	0.001728
322.8018	-0.000803
323.0144	-0.000951
323.2270	0.001749
323.4397	0.000736
323.6523	0.002086
323.8650	-0.000529
324.0777	0.000968
324.2904	0.000779
324.5031	0.000441
324.7158	-0.000318
324.9285	0.000040
325.1412	-0.000402
325.3540	0.000842
325.5668	0.000968
325.7796	0.001053
325.9924	0.000040
326.2052	-0.000149
326.4180	0.000251
326.6308	0.001179
326.8437	0.000905
327.0566	0.001369
327.2694	0.000483
327.4823	0.000926
327.6952	0.002634
327.9082	-0.000213
328.1211	0.000104
328.3340	0.002297
328.5470	0.000062
328.7600	0.001200
328.9730	-0.000318
329.1860	0.000188
329.3990	0.000652
329.6120	0.000589
329.8251	0.000104
330.0381	0.001095
330.2512	0.000188
330.4643	0.001011
330.6774	0.000547
330.8905	0.000062
331.1036	-0.000698
331.3167	0.000821
331.5299	-0.001246
331.7431	0.000989
331.9562	0.000989
332.1694	0.001517
332.3826	0.000547
332.5959	0.001095
332.8091	-0.000677
333.0223	0.000631
333.2356	-0.001077
333.4489	0.001348
333.6622	0.000968
333.8755	0.002234
334.0888	-0.000951
334.3021	0.000589
334.5154	-0.000213
334.7288	0.000146
334.9422	-0.000086
335.1555	-0.000381
335.3689	-0.001752
335.5823	0.002993
335.7958	0.000336
336.0092	0.000589
336.2227	0.000146
336.4361	0.002445
336.6496	0.000715
336.8631	0.000779
337.0766	0.000420
337.2901	0.000525
337.5036	0.000146
337.7172	0.000779
337.9307	0.000315
338.1443	0.000504
338.3579	0.000547
338.5715	-0.000002
338.7851	0.000188
338.9987	0.000757
339.2124	0.000209
339.4260	0.000062
339.6397	0.000040
339.8533	-0.000002
340.0670	0.000357
340.2807	0.000652
340.4945	-0.000297
340.7082	0.001770
340.9219	0.001706
341.1357	0.000420
341.3495	-0.000213
341.5633	0.001432
341.7771	0.000736
341.9909	0.002044
342.2047	0.000188
342.4185	0.000293
342.6324	-0.000297
342.8463	-0.000213
343.0601	0.002213
343.2740	0.001032
343.4879	-0.000044
343.7019	0.000779
343.9158	-0.000107
344.1297	0.001264
344.3437	-0.001077
344.5577	0.002170
344.7717	-0.000845
344.9857	0.000062
345.1997	-0.000402
345.4137	0.000715
345.6277	0.001158
345.8418	0.001053
346.0559	-0.000213
346.2699	0.000040
346.4840	0.000441
346.6981	-0.001373
346.9123	-0.000065
347.1264	0.001074
347.3406	0.001285
347.5547	0.000230
347.7689	-0.000466
347.9831	0.000884
348.1973	-0.000740
348.4115	0.000483
348.6257	0.000673
348.8400	0.000821
349.0542	-0.000613
349.2685	-0.000656
349.4828	-0.000234
349.6971	-0.000445
349.9114	0.000146
350.1257	-0.000149
350.3400	-0.001499
350.5544	-0.000866
350.7687	0.000272
350.9831	0.001770
351.1975	0.000083
351.4119	0.000125
351.6263	-0.000487
351.8407	0.000378
352.0552	-0.000086
352.2696	0.000926
352.4841	0.000420
352.6986	0.000589
352.9131	0.001011
353.1276	0.000062
353.3421	0.000040
353.5566	0.001896
353.7712	0.001137
353.9858	0.000483
354.2003	-0.000445
354.4149	0.000125
354.6295	-0.001373
354.8441	0.001116
355.0588	0.001200
355.2734	0.000989
355.4881	0.000462
355.7027	0.001095
355.9174	-0.001014
356.1321	-0.000128
356.3468	0.000420
356.5615	-0.000360
356.7763	-0.001394
356.9910	0.001474
357.2058	-0.000297
357.4206	-0.000297
357.6353	0.000483
357.8501	0.002613
358.0650	-0.000445
358.2798	-0.000466
358.4946	-0.000550
358.7095	0.001137
358.9243	-0.000192
359.1392	0.000821
359.3541	-0.000192
359.5690	0.000926
359.7839	0.000040
359.9989	0.000736
360.2138	-0.000656
360.4288	0.001369
360.6438	0.000926
360.8587	0.001327
361.0737	0.001137
361.2888	0.000968
361.5038	0.000251
361.7188	0.000146
361.9339	0.000146
362.1489	-0.000128
362.3640	-0.000234
362.5791	0.001411
362.7942	0.000083
363.0093	0.001875
363.2245	0.000547
363.4396	-0.000234
363.6548	0.001411
363.8699	0.001791
364.0851	-0.000297
364.3003	0.001580
364.5155	0.000863
364.7308	0.000715
364.9460	-0.000065
365.1612	-0.001267
365.3765	-0.000149
365.5918	-0.000402
365.8071	-0.000107
366.0224	0.000462
366.2377	0.000040
366.4530	-0.000381
366.6684	-0.000002
366.8837	0.000863
367.0991	-0.000192
367.3145	0.001137
367.5299	0.000673
367.7453	0.000547
367.9607	0.000589
368.1761	-0.000128
368.3916	0.001411
368.6070	0.000188
368.8225	-0.000002
369.0380	-0.000192
369.2535	-0.000824
369.4690	0.000884
369.6845	0.001580
369.9001	0.000399
370.1156	-0.000613
370.3312	0.002128
370.5468	0.000694
370.7624	0.000315
370.9780	-0.000107
371.1936	0.000167
371.4092	0.000504
371.6249	0.001643
371.8405	-0.000213
372.0562	0.000378
372.2719	0.000146
372.4876	0.001032
372.7033	0.000420
372.9190	0.000504
373.1348	-0.000297
373.3505	0.001306
373.5663	0.000968
373.7820	0.000589
373.9978	0.000736
374.2136	0.001538
374.4294	0.000589
374.6453	0.001981
374.8611	-0.000550
375.0770	-0.000318
375.2928	-0.000424
375.5087	0.000926
375.7246	-0.001014
375.9405	0.001390
376.1564	0.000631
376.3724	0.000779
376.5883	0.001559
376.8043	0.001032
377.0203	-0.000613
377.2362	0.001369
377.4522	0.001200
377.6682	0.000821
377.8843	-0.000149
378.1003	0.000757
378.3164	-0.000107
378.5324	0.000547
378.7485	0.000125
378.9646	0.000188
379.1807	-0.000930
379.3968	0.000188
379.6129	-0.000993
379.8291	0.000357
380.0452	0.000652
380.2614	-0.000086
380.4776	-0.000128
380.6938	0.000779
380.9100	-0.000529
381.1262	-0.001330
381.3424	0.001095
381.5587	-0.000508
381.7749	0.002023
381.9912	0.000230
382.2075	0.000315
382.4238	0.000146
382.6401	0.000083
382.8564	0.000589
383.0728	0.000968
383.2891	0.000926
383.5055	0.001833
383.7219	0.001179
383.9382	-0.000234
384.1546	-0.000466
384.3711	-0.000424
384.5875	0.000230
384.8039	0.000525
385.0204	0.000631
385.2368	-0.000550
385.4533	0.001074
385.6698	-0.001162
385.8863	0.001264
386.1028	-0.000993
386.3194	0.000230
386.5359	-0.000824
386.7525	0.000125
386.9690	-0.000149
387.1856	-0.001183
387.4022	0.000040
387.6188	-0.000698
387.8355	-0.000128
388.0521	0.000968
388.2687	0.000019
388.4854	0.001348
388.7021	0.000821
388.9188	0.001053
389.1355	-0.000192
389.3522	0.000504
389.5689	0.000884
389.7856	0.000968
390.0024	-0.000149
390.2192	-0.000487
390.4359	0.001474
390.6527	0.001854
390.8695	0.000188
391.0863	0.000483
391.3032	-0.000297
391.5200	0.001896
391.7369	0.001053
391.9537	0.000483
392.1706	0.000568
392.3875	0.000610
392.6044	-0.000487
392.8213	-0.000782
393.0383	0.001306
393.2552	-0.000213
393.4722	0.000947
393.6891	0.000504
393.9061	0.001053
394.1231	-0.000445
394.3401	0.000420
394.5572	0.000652
394.7742	0.002297
394.9912	-0.000571
395.2083	0.000989
395.4254	0.000652
395.6425	-0.000128
395.8596	0.001074
396.0767	0.001411
396.2938	0.000863
396.5109	0.000315
396.7281	0.000694
396.9453	0.000188
397.1624	0.001327
397.3796	0.000631
397.5968	-0.000002
397.8140	0.000272
398.0313	0.000441
398.2485	-0.000065
398.4658	0.000230
398.6830	0.000947
398.9003	-0.000550
399.1176	0.000821
399.3349	0.000968
399.5522	0.000230
399.7696	0.000399
399.9869	0.000399
400.2043	0.000863
400.4216	0.000905
400.6390	0.001559
400.8564	-0.000571
401.0738	0.001137
401.2912	0.001390
401.5087	0.000441
401.7261	-0.000002
401.9436	0.000441
402.1610	0.001496
402.3785	0.002128
402.5960	0.000610
402.8135	0.001327
403.0310	0.001706
403.2486	-0.000192
403.4661	0.001517
403.6837	0.001706
403.9013	0.000800
404.1189	0.001664
404.3365	0.001706
404.5541	0.000842
404.7717	0.000863
404.9893	0.001348
405.2070	0.000757
405.4246	-0.000086
405.6423	0.000736
405.8600	0.000926
406.0777	0.000905
406.2954	-0.000065
406.5131	0.000610
406.7309	0.000420
406.9486	0.001264
407.1664	0.001116
407.3842	-0.000677
407.6020	0.000251
407.8198	-0.000339
408.0376	0.001496
408.2554	0.000336
408.4733	0.001854
408.6911	0.000525
408.9090	0.001559
409.1269	0.000863
409.3448	0.000821
409.5627	0.000989
409.7806	0.000420
409.9985	0.000821
410.2165	0.001643
410.4344	0.001875
410.6524	0.000167
410.8704	0.001960
411.0884	0.002044
411.3064	0.000863
411.5244	0.002002
411.7424	0.001875
411.9605	0.001875
412.1785	0.000062
412.3966	0.001706
412.6147	0.002044
412.8328	0.001601
413.0509	0.002339
413.2690	0.001242
413.4871	0.002276
413.7053	0.001242
413.9234	0.002550
414.1416	0.002297
414.3598	0.002634
414.5780	0.001812
414.7962	0.001981
415.0144	0.001643
415.2326	0.002128
415.4509	0.001981
415.6692	0.002360
415.8874	0.002550
416.1057	0.003647
416.3240	0.004005
416.5423	0.002276
416.7606	0.002234
416.9790	0.002487
417.1973	0.002170
417.4157	0.002508
417.6341	0.002318
417.8524	0.002550
418.0708	0.002107
418.2893	0.003288
418.5077	0.002276
418.7261	0.002402
418.9446	0.003963
419.1630	0.001453
419.3815	0.004090
419.6000	0.003056
419.8185	0.004680
420.0370	0.004279
420.2555	0.003457
420.4741	0.004237
420.6926	0.002423
420.9112	0.003056
421.1298	0.004258
421.3483	0.003647
421.5669	0.005334
421.7856	0.003457
422.0042	0.004996
422.2228	0.004807
422.4415	0.004258
422.6601	0.004258
422.8788	0.004216
423.0975	0.005608
423.3162	0.004279
423.5349	0.003183
423.7536	0.005144
423.9724	0.003710
424.1911	0.005882
424.4099	0.003858
424.6287	0.004954
424.8475	0.005524
425.0663	0.005502
425.2851	0.006220
425.5039	0.005186
425.7228	0.007590
425.9416	0.005861
426.1605	0.004870
426.3793	0.005756
426.5982	0.006072
426.8171	0.005945
427.0361	0.005777
427.2550	0.004237
427.4739	0.006072
427.6929	0.006557
427.9118	0.006768
428.1308	0.007801
428.3498	0.007274
428.5688	0.006915
428.7878	0.007232
429.0068	0.007569
429.2259	0.007780
429.4449	0.008181
429.6640	0.007886
429.8831	0.009509
430.1022	0.007864
430.3213	0.008413
430.5404	0.007907
430.7595	0.008645
430.9787	0.008919
431.1978	0.010353
431.4170	0.007548
431.6362	0.010163
431.8553	0.009045
432.0745	0.008961
432.2938	0.007506
432.5130	0.007211
432.7322	0.008581
432.9515	0.007928
433.1707	0.009889
433.3900	0.009973
433.6093	0.009509
433.8286	0.011091
434.0479	0.010290
434.2673	0.012420
434.4866	0.010669
434.7059	0.009657
434.9253	0.010079
435.1447	0.010669
435.3641	0.009067
435.5835	0.011745
435.8029	0.010986
436.0223	0.011112
436.2418	0.011682
436.4612	0.011091
436.6807	0.012462
436.9001	0.011682
437.1196	0.012715
437.3391	0.013348
437.5586	0.011429
437.7782	0.012694
437.9977	0.013580
438.2173	0.011724
438.4368	0.013242
438.6564	0.013411
438.8760	0.012167
439.0956	0.014065
439.3152	0.013601
439.5348	0.013601
439.7545	0.012736
439.9741	0.012820
440.1938	0.013453
440.4135	0.014465
440.6331	0.013727
440.8528	0.015520
441.0725	0.016195
441.2923	0.015562
441.5120	0.017502
441.7318	0.018557
441.9515	0.018936
442.1713	0.019548
442.3911	0.017080
442.6109	0.015878
442.8307	0.017207
443.0505	0.020581
443.2703	0.019379
443.4902	0.020075
443.7101	0.018852
443.9299	0.020265
444.1498	0.020898
444.3697	0.018810
444.5896	0.020265
444.8095	0.020138
445.0295	0.020075
445.2494	0.020054
445.4694	0.018430
445.6894	0.018409
445.9093	0.019358
446.1293	0.021678
446.3493	0.020518
446.5694	0.021973
446.7894	0.021066
447.0094	0.020834
447.2295	0.021762
447.4496	0.021108
447.6696	0.018388
447.8897	0.021615
448.1098	0.019421
448.3300	0.021151
448.5501	0.020581
448.7702	0.021973
448.9904	0.021003
449.2106	0.022079
449.4307	0.020961
449.6509	0.024040
449.8711	0.023217
450.0914	0.022690
450.3116	0.021699
450.5318	0.021910
450.7521	0.022859
450.9724	0.022901
451.1926	0.021235
451.4129	0.021425
451.6332	0.022479
451.8535	0.022500
452.0739	0.021825
452.2942	0.022817
452.5146	0.022859
452.7349	0.022479
452.9553	0.022247
453.1757	0.021572
453.3961	0.023829
453.6165	0.022627
453.8369	0.023133
454.0574	0.021615
454.2778	0.021720
454.4983	0.022585
454.7188	0.021003
454.9393	0.022289
455.1597	0.021129
455.3803	0.025158
455.6008	0.025896
455.8213	0.024335
456.0419	0.023513
456.2624	0.025326
456.4830	0.022922
456.7036	0.022121
456.9242	0.023766
457.1448	0.026486
457.3654	0.023470
457.5860	0.025158
457.8067	0.024504
458.0274	0.024820
458.2480	0.027034
458.4687	0.028321
458.6894	0.024799
458.9101	0.027077
459.1308	0.028785
459.3516	0.027646
459.5723	0.027224
459.7931	0.028194
460.0138	0.027646
460.2346	0.028447
460.4554	0.028890
460.6762	0.026634
460.8970	0.027519
461.1178	0.024356
461.3387	0.026486
461.5595	0.027920
461.7804	0.027541
462.0013	0.026866
462.2222	0.027013
462.4431	0.023597
462.6640	0.023323
462.8849	0.023977
463.1059	0.026486
463.3268	0.024145
463.5478	0.026802
463.7687	0.026908
463.9897	0.027562
464.2107	0.027372
464.4317	0.028848
464.6528	0.029649
464.8738	0.031252
465.0948	0.030198
465.3159	0.031062
465.5370	0.029649
465.7581	0.033087
465.9792	0.032412
466.2003	0.031611
466.4214	0.031526
466.6425	0.031273
466.8637	0.028363
467.0848	0.029017
467.3060	0.028447
467.5272	0.026634
467.7484	0.025052
467.9696	0.028300
468.1908	0.027182
468.4120	0.028743
468.6333	0.028722
468.8545	0.026191
469.0758	0.027372
469.2970	0.026191
469.5183	0.024609
469.7396	0.024820
469.9610	0.025094
470.1823	0.024926
470.4036	0.023154
470.6250	0.023006
470.8463	0.023576
471.0677	0.024272
471.2891	0.024419
471.5105	0.023766
471.7319	0.023028
471.9533	0.025769
472.1748	0.024103
472.3962	0.024230
472.6177	0.024525
472.8391	0.025495
473.0606	0.025347
473.2821	0.028152
473.5036	0.027309
473.7251	0.027878
473.9467	0.025579
474.1682	0.026697
474.3898	0.025727
474.6113	0.026507
474.8329	0.026507
475.0545	0.027498
475.2761	0.028089
475.4977	0.029460
475.7193	0.029291
475.9410	0.028574
476.1626	0.029059
476.3843	0.029439
476.6060	0.028532
476.8277	0.028279
477.0494	0.028047
477.2711	0.027646
477.4928	0.028173
477.7145	0.025579
477.9363	0.028152
478.1580	0.028827
478.3798	0.028785
478.6016	0.029375
478.8234	0.027646
479.0452	0.029122
479.2670	0.027013
479.4888	0.029375
479.7107	0.028869
479.9325	0.029776
480.1544	0.028911
480.3763	0.031611
480.5982	0.033741
480.8201	0.033551
481.0420	0.030556
481.2639	0.028110
481.4859	0.031442
481.7078	0.030008
481.9298	0.033804
482.1517	0.031526
482.3737	0.031484
482.5957	0.031843
482.8177	0.030598
483.0398	0.032138
483.2618	0.027920
483.4838	0.032011
483.7059	0.029797
483.9280	0.030472
484.1501	0.029734
484.3721	0.029755
484.5943	0.033087
484.8164	0.035533
485.0385	0.037052
485.2606	0.039393
485.4828	0.036988
485.7050	0.051329
485.9271	0.084270
486.1493	0.113816
486.3715	0.119341
486.5937	0.103335
486.8160	0.078344
487.0382	0.067504
487.2605	0.060946
487.4827	0.056285
487.7050	0.045930
487.9273	0.039941
488.1496	0.033804
488.3719	0.033340
488.5942	0.033952
488.8165	0.033699
489.0389	0.031358
489.2612	0.033256
489.4836	0.033214
489.7060	0.033551
489.9284	0.032117
490.1508	0.033340
490.3732	0.032391
490.5956	0.031358
490.8180	0.030725
491.0405	0.030788
491.2630	0.033677
491.4854	0.031400
491.7079	0.032728
491.9304	0.029966
492.1529	0.031168
492.3755	0.029418
492.5980	0.030936
492.8205	0.032707
493.0431	0.033066
493.2657	0.032497
493.4882	0.031463
493.7108	0.032623
493.9334	0.033741
494.1561	0.031484
494.3787	0.032370
494.6013	0.032433
494.8240	0.032222
495.0466	0.032096
495.2693	0.031273
495.4920	0.030177
495.7147	0.030177
495.9374	0.028722
496.1601	0.031864
496.3829	0.033171
496.6056	0.035301
496.8284	0.034605
497.0511	0.034880
497.2739	0.033867
497.4967	0.031611
497.7195	0.031906
497.9423	0.031231
498.1652	0.028827
498.3880	0.029881
498.6109	0.032454
498.8337	0.031505
499.0566	0.030050
499.2795	0.032518
499.5024	0.033003
499.7253	0.033171
499.9482	0.032813
500.1712	0.034922
500.3941	0.034479
500.6171	0.032982
500.8400	0.030704
501.0630	0.032623
501.2860	0.031273
501.5090	0.032180
501.7320	0.035512
501.9551	0.033235
502.1781	0.033783
502.4012	0.033909
502.6242	0.033171
502.8473	0.034943
503.0704	0.032707
503.2935	0.034458
503.5166	0.033804
503.7397	0.034711
503.9628	0.034289
504.1860	0.032370
504.4092	0.034500
504.6323	0.029544
504.8555	0.031400
505.0787	0.029713
505.3019	0.032834
505.5251	0.032454
505.7483	0.031737
505.9716	0.032370
506.1948	0.030936
506.4181	0.031337
506.6414	0.031147
506.8647	0.033024
507.0880	0.033235
507.3113	0.031484
507.5346	0.029839
507.7579	0.027730
507.9813	0.030577
508.2046	0.032201
508.4280	0.030092
508.6514	0.028279
508.8748	0.031695
509.0982	0.030514
509.3216	0.032792
509.5450	0.029671
509.7685	0.028637
509.9919	0.029228
510.2154	0.028785
510.4388	0.029797
510.6623	0.028511
510.8858	0.030135
511.1093	0.030894
511.3329	0.029396
511.5564	0.030071
511.7799	0.030008
512.0035	0.029797
512.2270	0.029671
512.4506	0.028321
512.6742	0.026317
512.8978	0.026507
513.1214	0.027562
513.3451	0.028616
513.5687	0.028595
513.7923	0.029628
514.0160	0.026613
514.2397	0.026254
514.4634	0.028827
514.6871	0.026802
514.9108	0.030999
515.1345	0.026085
515.3582	0.027372
515.5819	0.025453
515.8057	0.024209
516.0295	0.025010
516.2532	0.026001
516.4770	0.026528
516.7008	0.027773
516.9246	0.026971
517.1485	0.027013
517.3723	0.026402
517.5961	0.026697
517.8200	0.026739
518.0439	0.025853
518.2677	0.025179
518.4916	0.025516
518.7155	0.025748
518.9395	0.025031
519.1634	0.025389
519.3873	0.026423
519.6113	0.027456
519.8352	0.026128
520.0592	0.027098
520.2832	0.025537
520.5072	0.023407
520.7312	0.023850
520.9552	0.024019
521.1792	0.023006
521.4033	0.023787
521.6273	0.023829
521.8514	0.023745
522.0755	0.023407
522.2996	0.022437
522.5237	0.023091
522.7478	0.022079
522.9719	0.024989
523.1960	0.023787
523.4202	0.022542
523.6443	0.022859
523.8685	0.024419
524.0927	0.024567
524.3169	0.024525
524.5411	0.025158
524.7653	0.023977
524.9895	0.024504
525.2138	0.021383
525.4380	0.021551
525.6623	0.022564
525.8865	0.023112
526.1108	0.023428
526.3351	0.024335
526.5594	0.022606
526.7837	0.023133
527.0081	0.023723
527.2324	0.024567
527.4568	0.023217
527.6811	0.024187
527.9055	0.023470
528.1299	0.022542
528.3543	0.023302
528.5787	0.025136
528.8031	0.027393
529.0276	0.025706
529.2520	0.026085
529.4765	0.025748
529.7009	0.025832
529.9254	0.024820
530.1499	0.026465
530.3744	0.023660
530.5989	0.025200
530.8234	0.023049
531.0480	0.024293
531.2725	0.022648
531.4971	0.022247
531.7217	0.022648
531.9462	0.023681
532.1708	0.022985
532.3954	0.024230
532.6200	0.023513
532.8447	0.025896
533.0693	0.025115
533.2940	0.027098
533.5186	0.027077
533.7433	0.028447
533.9680	0.028616
534.1927	0.027562
534.4174	0.028637
534.6421	0.028827
534.8668	0.028827
535.0916	0.030641
535.3163	0.028321
535.5411	0.029797
535.7659	0.028532
535.9907	0.028279
536.2155	0.027667
536.4403	0.027056
536.6651	0.026317
536.8899	0.027372
537.1148	0.026655
537.3396	0.025326
537.5645	0.025389
537.7894	0.025959
538.0143	0.026001
538.2392	0.027667
538.4641	0.027477
538.6890	0.029607
538.9139	0.027920
539.1389	0.030598
539.3638	0.030198
539.5888	0.028869
539.8138	0.028532
540.0388	0.030219
540.2638	0.029396
540.4888	0.027730
540.7138	0.029228
540.9389	0.026929
541.1639	0.031041
541.3890	0.030008
541.6140	0.030303
541.8391	0.030240
542.0642	0.028658
542.2893	0.028785
542.5144	0.031358
542.7396	0.032349
542.9647	0.030113
543.1899	0.028637
543.4150	0.029312
543.6402	0.029291
543.8654	0.032412
544.0906	0.032665
544.3158	0.031674
544.5410	0.033467
544.7662	0.032686
544.9915	0.031041
545.2167	0.033656
545.4420	0.035913
545.6673	0.031147
545.8926	0.030725
546.1179	0.028089
546.3432	0.030472
546.5685	0.027519
546.7938	0.030092
547.0192	0.029460
547.2445	0.030303
547.4699	0.029481
547.6953	0.032581
547.9206	0.031611
548.1460	0.033403
548.3715	0.036124
548.5969	0.038739
548.8223	0.035238
549.0478	0.035576
549.2732	0.035449
549.4987	0.030978
549.7242	0.031252
549.9496	0.032075
550.1751	0.031843
550.4007	0.031885
550.6262	0.031484
550.8517	0.029186
551.0773	0.029860
551.3028	0.029460
551.5284	0.028258
551.7540	0.027773
551.9796	0.029354
552.2052	0.031231
552.4308	0.032813
552.6564	0.034268
552.8820	0.035554
553.1077	0.035491
553.3333	0.034858
553.5590	0.033192
553.7847	0.035386
554.0104	0.035407
554.2361	0.035090
554.4618	0.034310
554.6875	0.032011
554.9132	0.031674
555.1390	0.030388
555.3648	0.031822
555.5905	0.034605
555.8163	0.034732
556.0421	0.034837
556.2679	0.033530
556.4937	0.035449
556.7195	0.034352
556.9454	0.031252
557.1712	0.032623
557.3971	0.029881
557.6230	0.032433
557.8488	0.032454
558.0747	0.033952
558.3006	0.033298
558.5266	0.033804
558.7525	0.031421
558.9784	0.031273
559.2044	0.029713
559.4303	0.027983
559.6563	0.034711
559.8823	0.030894
560.1083	0.032117
560.3343	0.033003
560.5603	0.036039
560.7863	0.035259
561.0124	0.036567
561.2384	0.036735
561.4645	0.041038
561.6905	0.038697
561.9166	0.038233
562.1427	0.039456
562.3688	0.037452
562.5949	0.036904
562.8211	0.035365
563.0472	0.036314
563.2733	0.036419
563.4995	0.037284
563.7257	0.037242
563.9519	0.036820
564.1781	0.037916
564.4043	0.037642
564.6305	0.039709
564.8567	0.039519
565.0829	0.040658
565.3092	0.039709
565.5355	0.040067
565.7617	0.040004
565.9880	0.039498
566.2143	0.041607
566.4406	0.040004
566.6669	0.043062
566.8932	0.042261
567.1196	0.044602
567.3459	0.045213
567.5723	0.048630
567.7987	0.050570
568.0250	0.050359
568.2514	0.053037
568.4778	0.054682
568.7043	0.056201
568.9307	0.059027
569.1571	0.063223
569.3836	0.065353
569.6100	0.072650
569.8365	0.078703
570.0630	0.087412
570.2895	0.092158
570.5160	0.096523
570.7425	0.095490
570.9690	0.096881
571.1956	0.101205
571.4221	0.108164
571.6487	0.112888
571.8752	0.114786
572.1018	0.116304
572.3284	0.118371
572.5550	0.120185
572.7816	0.109619
573.0082	0.104305
573.2349	0.100192
573.4615	0.109134
573.6882	0.122041
573.9149	0.128431
574.1415	0.128178
574.3682	0.134842
574.5949	0.140072
574.8216	0.146061
575.0484	0.145175
575.2751	0.143615
575.5018	0.151291
575.7286	0.146609
575.9554	0.138701
576.1821	0.131847
576.4089	0.126933
576.6357	0.135685
576.8626	0.141126
577.0894	0.146778
577.3162	0.148761
577.5431	0.153843
577.7699	0.162511
577.9968	0.193090
578.2237	0.206502
578.4505	0.197350
578.6774	0.183283
578.9044	0.169892
579.1313	0.161351
579.3582	0.151861
579.5851	0.153506
579.8121	0.156796
580.0391	0.160802
580.2660	0.163186
580.4930	0.167150
580.7200	0.162932
580.9470	0.157977
581.1741	0.159558
581.4011	0.191023
581.6281	0.231767
581.8552	0.256990
582.0822	0.253953
582.3093	0.248174
582.5364	0.234909
582.7635	0.221961
582.9906	0.200598
583.2177	0.181913
583.4449	0.170651
583.6720	0.157597
583.8991	0.147495
584.1263	0.139228
584.3535	0.148233
584.5807	0.149878
584.8079	0.151080
585.0351	0.160022
585.2623	0.171115
585.4895	0.175818
585.7167	0.178074
585.9440	0.179255
586.1713	0.170672
586.3985	0.162932
586.6258	0.151080
586.8531	0.148571
587.0804	0.148866
587.3077	0.160549
587.5350	0.166328
587.7624	0.173076
587.9897	0.170925
588.2171	0.157829
588.4445	0.157302
588.6718	0.149225
588.8992	0.146841
589.1266	0.141654
589.3540	0.128895
589.5815	0.120586
589.8089	0.120733
590.0363	0.120101
590.2638	0.119594
590.4913	0.111813
590.7187	0.108755
590.9462	0.106814
591.1737	0.099982
591.4012	0.095975
591.6288	0.094941
591.8563	0.099201
592.0838	0.098632
592.3114	0.096207
592.5389	0.097746
592.7665	0.110400
592.9941	0.134715
593.2217	0.142371
593.4493	0.151376
593.6769	0.150068
593.9046	0.146799
594.1322	0.144121
594.3598	0.135306
594.5875	0.126554
594.8152	0.125120
595.0429	0.132585
595.2705	0.139376
595.4983	0.143425
595.7260	0.139566
595.9537	0.132627
596.1814	0.127397
596.4092	0.116726
596.6369	0.108122
596.8647	0.106182
597.0925	0.103967
597.3203	0.101858
597.5481	0.108248
597.7759	0.110821
598.0037	0.105929
598.2315	0.104305
598.4594	0.098990
598.6872	0.100551
598.9151	0.108944
599.1430	0.129127
599.3709	0.133745
599.5988	0.134568
599.8267	0.126406
600.0546	0.128895
600.2825	0.130814
600.5105	0.136107
600.7384	0.129527
600.9664	0.129190
601.1944	0.131468
601.4223	0.134652
601.6503	0.131404
601.8783	0.126048
602.1064	0.119847
602.3344	0.119974
602.5624	0.118055
602.7905	0.120079
603.0185	0.123791
603.2466	0.122758
603.4747	0.126680
603.7028	0.135264
603.9309	0.137815
604.1590	0.130898
604.3871	0.122083
604.6152	0.119489
604.8434	0.113985
605.0715	0.110758
605.2997	0.110948
605.5279	0.112762
605.7561	0.117549
605.9843	0.121809
606.2125	0.128431
606.4407	0.121113
606.6689	0.113626
606.8972	0.115461
607.1254	0.111285
607.3537	0.110357
607.5819	0.113879
607.8102	0.116262
608.0385	0.114238
608.2668	0.108270
608.4951	0.108649
608.7235	0.104874
608.9518	0.101774
609.1801	0.099117
609.4085	0.099518
609.6369	0.093697
609.8653	0.093149
610.0936	0.101437
610.3220	0.106477
610.5505	0.108354
610.7789	0.103693
611.0073	0.101753
611.2357	0.099539
611.4642	0.098590
611.6927	0.097725
611.9211	0.097767
612.1496	0.096692
612.3781	0.093001
612.6066	0.093592
612.8351	0.089142
613.0637	0.091799
613.2922	0.091947
613.5208	0.089247
613.7493	0.089395
613.9779	0.089627
614.2065	0.091841
614.4351	0.091293
614.6637	0.089627
614.8923	0.089880
615.1209	0.088783
615.3495	0.087750
615.5782	0.088783
615.8068	0.093107
616.0355	0.094182
616.2642	0.088256
616.4929	0.085198
616.7216	0.080537
616.9503	0.078386
617.1790	0.076994
617.4077	0.078091
617.6365	0.077986
617.8652	0.077163
618.0940	0.079378
618.3227	0.077922
618.5515	0.075645
618.7803	0.074295
619.0091	0.068011
619.2379	0.066808
619.4667	0.064320
619.6956	0.061346
619.9244	0.063160
620.1533	0.066872
620.3821	0.068770
620.6110	0.069866
620.8399	0.067968
621.0688	0.063624
621.2977	0.057065
621.5266	0.053248
621.7556	0.051266
621.9845	0.054619
622.2135	0.057403
622.4424	0.058394
622.6714	0.058584
622.9004	0.056918
623.1294	0.058921
623.3584	0.062696
623.5874	0.062106
623.8164	0.062970
624.0454	0.061789
624.2745	0.062232
624.5035	0.060925
624.7326	0.065079
624.9617	0.065480
625.1908	0.064236
625.4199	0.061389
625.6490	0.058900
625.8781	0.058605
626.1072	0.056053
626.3364	0.057107
626.5655	0.051308
626.7947	0.049747
627.0238	0.049895
627.2530	0.049051
627.4822	0.051013
627.7114	0.048904
627.9406	0.050907
628.1698	0.048313
628.3991	0.046204
628.6283	0.044074
628.8576	0.042092
629.0868	0.042619
629.3161	0.042851
629.5454	0.044791
629.7747	0.047027
630.0040	0.045635
630.2333	0.044117
630.4626	0.040763
630.6920	0.043083
630.9213	0.042915
631.1507	0.042936
631.3801	0.038296
631.6094	0.036841
631.8388	0.037727
632.0682	0.038739
632.2976	0.039941
632.5271	0.035576
632.7565	0.035660
632.9859	0.032644
633.2154	0.032982
633.4448	0.033214
633.6743	0.032307
633.9038	0.030683
634.1333	0.033150
634.3628	0.030915
634.5923	0.031210
634.8218	0.030620
635.0514	0.031041
635.2809	0.028447
635.5105	0.029122
635.7400	0.028700
635.9696	0.028637
636.1992	0.029966
636.4288	0.031526
636.6584	0.033551
636.8880	0.030746
637.1177	0.032918
637.3473	0.032201
637.5770	0.029523
637.8066	0.031062
638.0363	0.029291
638.2660	0.028785
638.4957	0.029333
638.7254	0.030514
638.9551	0.029375
639.1848	0.030620
639.4145	0.028511
639.6443	0.027346
639.8740	0.027244
640.1038	0.027139
640.3336	0.028426
640.5633	0.026061
640.7931	0.026221
641.0229	0.024892
641.2528	0.025092
641.4826	0.024431
641.7124	0.023497
641.9423	0.024054
642.1721	0.022451
642.4020	0.022323
642.6319	0.021342
642.8617	0.021149
643.0916	0.020962
643.3216	0.021548
643.5515	0.022955
643.7814	0.024294
644.0113	0.021738
644.2413	0.020430
644.4712	0.020794
644.7012	0.018216
644.9312	0.020345
645.1612	0.018619
645.3912	0.018390
645.6212	0.019826
645.8512	0.019237
646.0812	0.021106
646.3113	0.018393
646.5413	0.016995
646.7714	0.018359
647.0015	0.017458
647.2316	0.017914
647.4616	0.018336
647.6918	0.016527
647.9219	0.016672
648.1520	0.019478
648.3821	0.022142
648.6123	0.021761
648.8424	0.022076
649.0726	0.024663
649.3028	0.024264
649.5329	0.023174
649.7631	0.024456
649.9933	0.025024
650.2236	0.021545
650.4538	0.021842
650.6840	0.022357
650.9143	0.020695
651.1445	0.021021
651.3748	0.020395
651.6051	0.022663
651.8354	0.019581
652.0657	0.023108
652.2960	0.022449
652.5263	0.022357
652.7566	0.022496
652.9870	0.022459
653.2173	0.022715
653.4477	0.022006
653.6780	0.024247
653.9084	0.023179
654.1388	0.023309
654.3692	0.024837
654.5996	0.026366
654.8300	0.027461
655.0605	0.029069
655.2909	0.041341
655.5213	0.110262
655.7518	0.343706
655.9823	0.698136
656.2128	0.920517
656.4433	0.980611
656.6738	0.966656
656.9043	0.922832
657.1348	0.772797
657.3653	0.617739
657.5959	0.502154
657.8264	0.428580
658.0570	0.373239
658.2875	0.335396
658.5181	0.304580
658.7487	0.275330
658.9793	0.260022
659.2099	0.247035
659.4406	0.195609
659.6712	0.138643
659.9018	0.081749
660.1325	0.048508
660.3632	0.032174
660.5938	0.026053
660.8245	0.020426
661.0552	0.018953
661.2859	0.019126
661.5166	0.017125
661.7474	0.015936
661.9781	0.018908
662.2088	0.016765
662.4396	0.015398
662.6704	0.016989
662.9011	0.015412
663.1319	0.015288
663.3627	0.014916
663.5935	0.016041
663.8243	0.015365
664.0552	0.017180
664.2860	0.015683
664.5168	0.017510
664.7477	0.015350
664.9786	0.015982
665.2094	0.016139
665.4403	0.017707
665.6712	0.016489
665.9021	0.017024
666.1330	0.018837
666.3640	0.015769
666.5949	0.018132
666.8259	0.016637
667.0568	0.015301
667.2878	0.015930
667.5188	0.016158
667.7497	0.015546
667.9807	0.015627
668.2117	0.015228
668.4428	0.015267
668.6738	0.015920
668.9048	0.015457
669.1359	0.014360
669.3669	0.016469
669.5980	0.015014
669.8291	0.014571
670.0602	0.015752
670.2913	0.014381
670.5224	0.017186
670.7535	0.015372
670.9846	0.015984
671.2157	0.017819
671.4469	0.016574
671.6781	0.020455
671.9092	0.021530
672.1404	0.021615
672.3716	0.022458
672.6028	0.024166
672.8340	0.026866
673.0652	0.026528
673.2964	0.023006
673.5277	0.023133
673.7589	0.023597
673.9902	0.022057
674.2214	0.022901
674.4527	0.022859
674.6840	0.019927
674.9153	0.020813
675.1466	0.020412
675.3779	0.018915
675.6093	0.021509
675.8406	0.018746
676.0719	0.019801
676.3033	0.018008
676.5347	0.019927
676.7661	0.015773
676.9974	0.014971
677.2288	0.017987
677.4602	0.017987
677.6917	0.017861
677.9231	0.020813
678.1545	0.021361
678.3860	0.022205
678.6174	0.021636
678.8489	0.023871
679.0804	0.022817
679.3119	0.024166
679.5434	0.024040
679.7749	0.025664
680.0064	0.026760
680.2379	0.026802
680.4694	0.027013
680.7010	0.027013
680.9325	0.026043
681.1641	0.023787
681.3957	0.026128
681.6273	0.025917
681.8589	0.026655
682.0905	0.024947
682.3221	0.024166
682.5537	0.023491
682.7854	0.020834
683.0170	0.023618
683.2487	0.020286
683.4803	0.022163
683.7120	0.024124
683.9437	0.022226
684.1754	0.022669
684.4071	0.025179
684.6388	0.026043
684.8705	0.028279
685.1023	0.028890
685.3340	0.029017
685.5658	0.029903
685.7975	0.033635
686.0293	0.033024
686.2611	0.032033
686.4929	0.031421
686.7247	0.031294
686.9565	0.030198
687.1883	0.032433
687.4202	0.030598
687.6520	0.032876
687.8838	0.033382
688.1157	0.031421
688.3476	0.027983
688.5795	0.030556
688.8114	0.027730
689.0433	0.027751
689.2752	0.027393
689.5071	0.024672
689.7390	0.026149
689.9710	0.026655
690.2029	0.024567
690.4349	0.024694
690.6669	0.023977
690.8988	0.024651
691.1308	0.026170
691.3628	0.026528
691.5948	0.027477
691.8269	0.026845
692.0589	0.029270
692.2909	0.029122
692.5230	0.028321
692.7550	0.027288
692.9871	0.028616
693.2192	0.030071
693.4513	0.028616
693.6834	0.030683
693.9155	0.026992
694.1476	0.027224
694.3797	0.026022
694.6119	0.026739
694.8440	0.025938
695.0762	0.024926
695.3083	0.026592
695.5405	0.024989
695.7727	0.024820
696.0049	0.021615
696.2371	0.021762
696.4693	0.022036
696.7016	0.022901
696.9338	0.024862
697.1660	0.029565
697.3983	0.031041
697.6306	0.029418
697.8628	0.026613
698.0951	0.028743
698.3274	0.028532
698.5597	0.028553
698.7920	0.026739
699.0243	0.026465
699.2567	0.026170
699.4890	0.027498
699.7214	0.024145
699.9537	0.023428
700.1861	0.023365
700.4185	0.024672
700.6509	0.022395
700.8833	0.022732
701.1157	0.022310
701.3481	0.021509
701.5806	0.019949
701.8130	0.022015
702.0454	0.022163
702.2779	0.020813
702.5104	0.020328
702.7429	0.023428
702.9753	0.022922
703.2078	0.023091
703.4403	0.020729
703.6729	0.022121
703.9054	0.021467
704.1379	0.021404
704.3705	0.019485
704.6030	0.021383
704.8356	0.018240
705.0682	0.018768
705.3008	0.019611
705.5334	0.017819
705.7660	0.019295
705.9986	0.019695
706.2312	0.019548
706.4638	0.019548
706.6965	0.022205
706.9291	0.024040
707.1618	0.025875
707.3945	0.028764
707.6272	0.027098
707.8599	0.028764
708.0926	0.029565
708.3253	0.029544
708.5580	0.028975
708.7907	0.028258
709.0235	0.028363
709.2562	0.026613
709.4890	0.024651
709.7217	0.023660
709.9545	0.027182
710.1873	0.024609
710.4201	0.023829
710.6529	0.025474
710.8857	0.024757
711.1186	0.026824
711.3514	0.023723
711.5842	0.024145
711.8171	0.023070
712.0500	0.022332
712.2828	0.021193
712.5157	0.020940
712.7486	0.020687
712.9815	0.024904
713.2144	0.020391
713.4474	0.022669
713.6803	0.023576
713.9132	0.024525
714.1462	0.026317
714.3791	0.027034
714.6121	0.025537
714.8451	0.026908
715.0781	0.024377
715.3111	0.026191
715.5441	0.024483
715.7771	0.026592
716.0102	0.025010
716.2432	0.023871
716.4762	0.024209
716.7093	0.022310
716.9424	0.020223
717.1754	0.019527
717.4085	0.021298
717.6416	0.020898
717.8747	0.020539
718.1078	0.020729
718.3410	0.021235
718.5741	0.022142
718.8072	0.020750
719.0404	0.020138
719.2736	0.020117
719.5067	0.020855
719.7399	0.021720
719.9731	0.021572
720.2063	0.020898
720.4395	0.023323
720.6727	0.022416
720.9060	0.020434
721.1392	0.022310
721.3725	0.022606
721.6057	0.022458
721.8390	0.020581
722.0723	0.022142
722.3055	0.023787
722.5388	0.023133
722.7721	0.020771
723.0055	0.020202
723.2388	0.019379
723.4721	0.021277
723.7055	0.021404
723.9388	0.020855
724.1722	0.021847
724.4056	0.018768
724.6389	0.019738
724.8723	0.020033
725.1057	0.021319
725.3391	0.021593
725.5726	0.023154
725.8060	0.024483
726.0394	0.025179
726.2729	0.024419
726.5063	0.025938
726.7398	0.023934
726.9733	0.023723
727.2068	0.023281
727.4403	0.023892
727.6738	0.024040
727.9073	0.022859
728.1408	0.023977
728.3743	0.026570
728.6079	0.026866
728.8414	0.024841
729.0750	0.025158
729.3086	0.025221
729.5421	0.026507
729.7757	0.026233
730.0093	0.027182
730.2429	0.029523
730.4766	0.026170
730.7102	0.028722
730.9438	0.031421
731.1775	0.032180
731.4111	0.032771
731.6448	0.031758
731.8785	0.033108
732.1122	0.032602
732.3458	0.031189
732.5795	0.031358
732.8133	0.031569
733.0470	0.033488
733.2807	0.032011
733.5145	0.032159
733.7482	0.031653
733.9820	0.032834
734.2157	0.034416
734.4495	0.038739
734.6833	0.037642
734.9171	0.038591
735.1509	0.036419
735.3847	0.033319
735.6185	0.035048
735.8524	0.036904
736.0862	0.036061
736.3201	0.038359
736.5539	0.037157
736.7878	0.035913
737.0217	0.035829
737.2556	0.036883
737.4895	0.037537
737.7234	0.035576
737.9573	0.035533
738.1912	0.032960
738.4252	0.031442
738.6591	0.031147
738.8931	0.028827
739.1271	0.033551
739.3610	0.034563
739.5950	0.036103
739.8290	0.034774
740.0630	0.034437
740.2970	0.033003
740.5310	0.031674
740.7651	0.031168
740.9991	0.030198
741.2332	0.029649
741.4672	0.026592
741.7013	0.025579
741.9354	0.025179
742.1695	0.024272
742.4036	0.027941
742.6377	0.024040
742.8718	0.025326
743.1059	0.026507
743.3400	0.027266
743.5742	0.021994
743.8083	0.024778
744.0425	0.025389
744.2767	0.023365
744.5108	0.023133
744.7450	0.022627
744.9792	0.021720
745.2134	0.023407
745.4477	0.022500
745.6819	0.021193
745.9161	0.020412
746.1504	0.022416
746.3846	0.021256
746.6189	0.023302
746.8532	0.018536
747.0874	0.022289
747.3217	0.022500
747.5560	0.021129
747.7903	0.022100
748.0247	0.022711
748.2590	0.022796
748.4933	0.021404
748.7277	0.021193
748.9620	0.022627
749.1964	0.021889
749.4308	0.024419
749.6652	0.024546
749.8995	0.027688
750.1339	0.027920
750.3684	0.029628
750.6028	0.029586
750.8372	0.030662
751.0717	0.030240
751.3061	0.028511
751.5406	0.028258
751.7750	0.031653
752.0095	0.032391
752.2440	0.031590
752.4785	0.030071
752.7130	0.029017
752.9475	0.027098
753.1820	0.026634
753.4166	0.027161
753.6511	0.027562
753.8856	0.028384
754.1202	0.031990
754.3548	0.029565
754.5894	0.032286
754.8239	0.030493
755.0585	0.028911
755.2931	0.030240
755.5278	0.029481
755.7624	0.032665
755.9970	0.032265
756.2317	0.031379
756.4663	0.033635
756.7010	0.037916
756.9356	0.037410
757.1703	0.039140
757.4050	0.038739
757.6397	0.042240
757.8744	0.043231
758.1091	0.044222
758.3438	0.044644
758.5786	0.041417
758.8133	0.039857
759.0481	0.039983
759.2828	0.040974
759.5176	0.043189
759.7524	0.045783
759.9872	0.044665
760.2220	0.044707
760.4568	0.047217
760.6916	0.047660
760.9264	0.049536
761.1613	0.046900
761.3961	0.045171
761.6310	0.044327
761.8658	0.042155
762.1007	0.041185
762.3356	0.037621
762.5705	0.037305
762.8054	0.034837
763.0403	0.037220
763.2752	0.036967
763.5101	0.035133
763.7450	0.035702
763.9800	0.036525
764.2149	0.036925
764.4499	0.037305
764.6849	0.041502
764.9198	0.045487
765.1548	0.044559
765.3898	0.044306
765.6248	0.041755
765.8599	0.040173
766.0949	0.039772
766.3299	0.037769
766.5650	0.034036
766.8000	0.032623
767.0351	0.030809
767.2701	0.028637
767.5052	0.027815
767.7403	0.028300
767.9754	0.028215
768.2105	0.030936
768.4456	0.032876
768.6808	0.034078
768.9159	0.036018
769.1510	0.035069
769.3862	0.037199
769.6214	0.036482
769.8565	0.035259
770.0917	0.033867
770.3269	0.035934
770.5621	0.033509
770.7973	0.035322
771.0325	0.035618
771.2677	0.036461
771.5030	0.036651
771.7382	0.034880
771.9735	0.033256
772.2087	0.030788
772.4440	0.031611
772.6793	0.028932
772.9146	0.031294
773.1499	0.030767
773.3852	0.030050
773.6205	0.028869
773.8558	0.029207
774.0911	0.027983
774.3265	0.027182
774.5618	0.026360
774.7972	0.024820
775.0326	0.024546
775.2679	0.023238
775.5033	0.022458
775.7387	0.022057
775.9741	0.021994
776.2095	0.020771
776.4450	0.020265
776.6804	0.017671
776.9158	0.019442
777.1513	0.017797
777.3868	0.019253
777.6222	0.019337
777.8577	0.019337
778.0932	0.017819
778.3287	0.019400
778.5642	0.019864
778.7997	0.021804
779.0352	0.020518
779.2707	0.021636
779.5063	0.023259
779.7418	0.024082
779.9774	0.024019
780.2130	0.022753
780.4485	0.019485
780.6841	0.020792
780.9197	0.022353
781.1553	0.023259
781.3909	0.026107
781.6265	0.027414
781.8622	0.026191
782.0978	0.026191
782.3335	0.025727
782.5691	0.027646
782.8048	0.025368
783.0405	0.027266
783.2761	0.025389
783.5118	0.025832
783.7475	0.025368
783.9832	0.025495
784.2190	0.026866
784.4547	0.022922
784.6904	0.022943
784.9262	0.021889
785.1619	0.022205
785.3977	0.021446
785.6335	0.023597
785.8692	0.022648
786.1050	0.021868
786.3408	0.020602
786.5766	0.021446
786.8124	0.020455
787.0483	0.020518
787.2841	0.019759
787.5199	0.020497
787.7558	0.022606
787.9917	0.023491
788.2275	0.023829
788.4634	0.021235
788.6993	0.022669
788.9352	0.022310
789.1711	0.023281
789.4070	0.024166
789.6429	0.022437
789.8789	0.021066
790.1148	0.021172
790.3507	0.018999
790.5867	0.020265
790.8227	0.020054
791.0586	0.017797
791.2946	0.019590
791.5306	0.017186
791.7666	0.018704
792.0026	0.017903
792.2387	0.018536
792.4747	0.018072
792.7107	0.017776
792.9468	0.015457
793.1828	0.016912
793.4189	0.017819
793.6550	0.016996
793.8910	0.015984
794.1271	0.020012
794.3632	0.023702
794.5993	0.022880
794.8355	0.025811
795.0716	0.024483
795.3077	0.024377
795.5439	0.028975
795.7800	0.024040
796.0162	0.021678
796.2523	0.019231
796.4885	0.018430
796.7247	0.017924
796.9609	0.016806
797.1971	0.016680
797.4333	0.017713
797.6695	0.016722
797.9058	0.018261
798.1420	0.018367
798.3783	0.015646
798.6145	0.016701
798.8508	0.017249
799.0871	0.016975
799.3233	0.016532
799.5596	0.018578
799.7959	0.015035
800.0322	0.015140
800.2686	0.015119
800.5049	0.015246
800.7412	0.016996
800.9776	0.014697
801.2139	0.014360
801.4503	0.014761
801.6867	0.015182
801.9230	0.014233
802.1594	0.013896
802.3958	0.015161
802.6322	0.012757
802.8686	0.012167
803.1051	0.013601
803.3415	0.013622
803.5779	0.014022
803.8144	0.015478
804.0508	0.013348
804.2873	0.014318
804.5238	0.013137
804.7603	0.013095
804.9968	0.013073
805.2333	0.014149
805.4698	0.013537
805.7063	0.012715
805.9428	0.014360
806.1794	0.016638
806.4159	0.016511
806.6525	0.018282
806.8890	0.017987
807.1256	0.017797
807.3622	0.016406
807.5988	0.016848
807.8354	0.016848
808.0720	0.016680
808.3086	0.016954
808.5452	0.017650
808.7818	0.015457
809.0185	0.018093
809.2551	0.015857
809.4918	0.016806
809.7284	0.016427
809.9651	0.016195
810.2018	0.015541
810.4385	0.015773
810.6752	0.014212
810.9119	0.015098
811.1486	0.016216
811.3853	0.014929
811.6221	0.014697
811.8588	0.013748
812.0956	0.013327
812.3323	0.011745
812.5691	0.011703
812.8059	0.012947
813.0427	0.010669
813.2795	0.010522
813.5163	0.012673
813.7531	0.011850
813.9899	0.013685
814.2267	0.014065
814.4636	0.015014
814.7004	0.016321
814.9373	0.013875
815.1742	0.012673
815.4110	0.011344
815.6479	0.012209
815.8848	0.012504
816.1217	0.010627
816.3586	0.011070
816.5955	0.010627
816.8324	0.011260
817.0694	0.010796
817.3063	0.011218
817.5433	0.011260
817.7802	0.011197
818.0172	0.012757
818.2542	0.010058
818.4912	0.010775
818.7282	0.010943
818.9652	0.009741
819.2022	0.010184
819.4392	0.008413
819.6762	0.008729
819.9133	0.009467
820.1503	0.008919
820.3874	0.009910
820.6244	0.011829
820.8615	0.011998
821.0986	0.014107
821.3357	0.010733
821.5727	0.011154
821.8099	0.011386
822.0470	0.010374
822.2841	0.011070
822.5212	0.011070
822.7584	0.008371
822.9955	0.009045
823.2327	0.010016
823.4698	0.009889
823.7070	0.010037
823.9442	0.008054
824.1814	0.008708
824.4186	0.009699
824.6558	0.007316
824.8930	0.007738
825.1302	0.009277
825.3675	0.008307
825.6047	0.009109
825.8419	0.010058
826.0792	0.008687
826.3165	0.011154
826.5537	0.009235
826.7910	0.009699
827.0283	0.009657
827.2656	0.010079
827.5029	0.011175
827.7402	0.012525
827.9776	0.010458
828.2149	0.009088
828.4522	0.009467
828.6896	0.009741
828.9270	0.010121
829.1643	0.011175
829.4017	0.009045
829.6391	0.008371
829.8765	0.008581
830.1139	0.008729
830.3513	0.008539
830.5887	0.008813
830.8261	0.007401
831.0636	0.008033
831.3010	0.008054
831.5385	0.008539
831.7759	0.007358
832.0134	0.005165
832.2509	0.006536
832.4884	0.004912
832.7259	0.006430
832.9634	0.008307
833.2009	0.005713
833.4384	0.006768
833.6759	0.005924
833.9135	0.006198
834.1510	0.008223
834.3886	0.008539
834.6261	0.009214
834.8637	0.008729
835.1013	0.008560
835.3389	0.009784
835.5765	0.007590
835.8141	0.006135
836.0517	0.007000
836.2893	0.006641
836.5269	0.006451
836.7646	0.006430
837.0022	0.006979
837.2399	0.005756
837.4775	0.006620
837.7152	0.005207
837.9529	0.005629
838.1906	0.005165
838.4283	0.005418
838.6660	0.004300
838.9037	0.003773
839.1414	0.005671
839.3791	0.004490
839.6169	0.005524
839.8546	0.006451
840.0924	0.005861
840.3302	0.005186
840.5679	0.005629
840.8057	0.005924
841.0435	0.006473
841.2813	0.006747
841.5191	0.004891
841.7569	0.004764
841.9947	0.005355
842.2326	0.004427
842.4704	0.004111
842.7082	0.003984
842.9461	0.004975
843.1840	0.003647
843.4218	0.003731
843.6597	0.003309
843.8976	0.003478
844.1355	0.003541
844.3734	0.004701
844.6113	0.005271
844.8492	0.005355
845.0872	0.003267
845.3251	0.005756
845.5631	0.004912
845.8010	0.003394
846.0390	0.003815
846.2770	0.003351
846.5149	0.003141
846.7529	0.004406
846.9909	0.003858
847.2289	0.002655
847.4669	0.004406
847.7050	0.005081
847.9430	0.004364
848.1810	0.004427
848.4191	0.002107
848.6571	0.004596
848.8952	0.004258
849.1333	0.003288
849.3713	0.003773
849.6094	0.004427
849.8475	0.005355
850.0856	0.004743
850.3237	0.003942
850.5619	0.004216
850.8000	0.003098
851.0381	0.004490
851.2763	0.003309
851.5144	0.003647
851.7526	0.003309
851.9908	0.003330
852.2289	0.003499
852.4671	0.004132
852.7053	0.004469
852.9435	0.007169
853.1817	0.008307
853.4200	0.009467
853.6582	0.010733
853.8964	0.012167
854.1347	0.011091
854.3729	0.010205
854.6112	0.010564
854.8495	0.011871
855.0877	0.011154
855.3260	0.011365
855.5643	0.009404
855.8026	0.010543
856.0409	0.011197
856.2792	0.009172
856.5176	0.009973
856.7559	0.009784
856.9942	0.009256
857.2326	0.009003
857.4710	0.008539
857.7093	0.006915
857.9477	0.009404
858.1861	0.009552
858.4245	0.006937
858.6629	0.007274
858.9013	0.008476
859.1397	0.007548
859.3781	0.007042
859.6166	0.007443
859.8550	0.005587
860.0935	0.008244
860.3319	0.005123
860.5704	0.005629
860.8089	0.005502
861.0473	0.005123
861.2858	0.005271
861.5243	0.004912
861.7628	0.004870
862.0013	0.005629
862.2399	0.004954
862.4784	0.005882
862.7169	0.004743
862.9555	0.004807
863.1940	0.003288
863.4326	0.003836
863.6712	0.005123
863.9098	0.006494
864.1483	0.006747
864.3869	0.004385
864.6255	0.004680
864.8642	0.005861
865.1028	0.003858
865.3414	0.005945
865.5800	0.003562
865.8187	0.004701
866.0573	0.004743
866.2960	0.003942
866.5347	0.002592
866.7733	0.003879
867.0120	0.002655
867.2507	0.003773
867.4894	0.004680
867.7281	0.005123
867.9669	0.004343
868.2056	0.004764
868.4443	0.003647
868.6831	0.004237
868.9218	0.004954
869.1606	0.005060
869.3993	0.003752
869.6381	0.003267
869.8769	0.002192
870.1157	0.005165
870.3545	0.003963
870.5933	0.003457
870.8321	0.004553
871.0709	0.003330
871.3097	0.004870
871.5486	0.005671
871.7874	0.004047
872.0263	0.003836
872.2651	0.003815
872.5040	0.006030
872.7429	0.004090
872.9818	0.004279
873.2207	0.003204
873.4596	0.003647
873.6985	0.004912
873.9374	0.004701
874.1763	0.003246
874.4153	0.003731
874.6542	0.004722
874.8932	0.003963
875.1321	0.004785
875.3711	0.006683
875.6101	0.004026
875.8491	0.004469
876.0880	0.005123
876.3270	0.004785
876.5661	0.004849
876.8051	0.003984
877.0441	0.004912
877.2831	0.004132
877.5222	0.004195
877.7612	0.004385
878.0003	0.004680
878.2393	0.005418
878.4784	0.004975
878.7175	0.006894
878.9566	0.005734
879.1957	0.006051
879.4348	0.004195
879.6739	0.005123
879.9130	0.007569
880.1521	0.006937
880.3913	0.005903
880.6304	0.006304
880.8696	0.005144
881.1087	0.007316
881.3479	0.006810
881.5871	0.005566
881.8262	0.006726
882.0654	0.006198
882.3046	0.005587
882.5438	0.004701
882.7831	0.006283
883.0223	0.004026
883.2615	0.004933
883.5007	0.004870
883.7400	0.005397
883.9792	0.006515
884.2185	0.004111
884.4578	0.003288
884.6971	0.005439
884.9363	0.004933
885.1756	0.005207
885.4149	0.003372
885.6542	0.005207
885.8936	0.005292
886.1329	0.005228
886.3722	0.005671
886.6116	0.005861
886.8509	0.004237
887.0903	0.006789
887.3296	0.003731
887.5690	0.005418
887.8084	0.003858
888.0478	0.005334
888.2872	0.003858
888.5266	0.003204
888.7660	0.003415
889.0054	0.005334
889.2448	0.004701
889.4843	0.003815
889.7237	0.003246
889.9632	0.004807
890.2026	0.004406
890.4421	0.002803
890.6816	0.002909
890.9211	0.003372
891.1606	0.002719
891.4001	0.003858
891.6396	0.003604
891.8791	0.004068
892.1186	0.004511
892.3581	0.003583
892.5977	0.005060
892.8372	0.004701
893.0768	0.002951
893.3163	0.003141
893.5559	0.003077
893.7955	0.004322
894.0351	0.002445
894.2747	0.004090
894.5143	0.005460
894.7539	0.002972
894.9935	0.002255
895.2331	0.003583
895.4727	0.002529
895.7124	0.005249
895.9520	0.004448
896.1917	0.003098
896.4314	0.002634
896.6710	0.004511
896.9107	0.003478
897.1504	0.004406
897.3901	0.003246
897.6298	0.003562
897.8695	0.002803
898.1092	0.003921
898.3489	0.002803
898.5887	0.004216
898.8284	0.005081
899.0682	0.004132
899.3079	0.004068
899.5477	0.003141
899.7875	0.004279
900.0272	0.002782
900.2670	0.002719
900.5068	0.003815
900.7466	0.002297
900.9864	0.003499
901.2263	0.002592
901.4661	0.004385
901.7059	0.003478
901.9458	0.003457
902.1856	0.004237
902.4255	0.003626
902.6654	0.003647
902.9052	0.004300
903.1451	0.003457
903.3850	0.003014
903.6249	0.002719
903.8648	0.003183
904.1047	0.004511
904.3446	0.003541
904.5846	0.004047
904.8245	0.003520
905.0644	0.003858
905.3044	0.003183
905.5444	0.002845
905.7843	0.004237
906.0243	0.003499
906.2643	0.003077
906.5043	0.003562
906.7443	0.003267
906.9843	0.004954
907.2243	0.004807
907.4643	0.003162
907.7043	0.003457
907.9444	0.004849
908.1844	0.002655
908.4245	0.002740
908.6645	0.003541
908.9046	0.003879
909.1447	0.004068
909.3847	0.002276
909.6248	0.003436
909.8649	0.001770
910.1050	0.004258
910.3452	0.003583
910.5853	0.003267
910.8254	0.003478
911.0655	0.001833
911.3057	0.002044
911.5458	0.003183
911.7860	0.003014
912.0262	0.003077
912.2663	0.002065
912.5065	0.003583
912.7467	0.004891
912.9869	0.002655
913.2271	0.003267
913.4673	0.004258
913.7075	0.002381
913.9478	0.003246
914.1880	0.002107
914.4283	0.002170
914.6685	0.001432
914.9088	0.002529
915.1490	0.002107
915.3893	0.001053
915.6296	0.002255
915.8699	0.002487
916.1102	0.003541
916.3505	0.003478
916.5908	0.002318
916.8311	0.001749
917.0714	0.004047
917.3118	0.003056
917.5521	0.003204
917.7925	0.003562
918.0328	0.002951
918.2732	0.003858
918.5136	0.003794
918.7539	0.005376
918.9943	0.002972
919.2347	0.004026
919.4751	0.002824
919.7155	0.002571
919.9560	0.003035
920.1964	0.003836
920.4368	0.001833
920.6773	0.003520
920.9177	0.003836
921.1582	0.003752
921.3986	0.001960
921.6391	0.003583
921.8796	0.002023
922.1201	0.003436
922.3606	0.003183
922.6011	0.001896
922.8416	0.003119
923.0821	0.002339
923.3226	0.001242
923.5631	0.003162
923.8037	0.002339
924.0442	0.002592
924.2848	0.001833
924.5254	0.002698
924.7659	0.003794
925.0065	0.002909
925.2471	0.001327
925.4877	0.001496
925.7283	0.001791
925.9689	0.003562
926.2095	0.001348
926.4501	0.002192
926.6908	0.002909
926.9314	0.003731
927.1720	0.002297
927.4127	0.002339
927.6533	0.001453
927.8940	0.001812
928.1347	0.002719
928.3754	0.001749
928.6161	0.002023
928.8568	0.002213
929.0975	0.001264
929.3382	0.001264
929.5789	0.001200
929.8196	0.003183
930.0604	0.001917
930.3011	0.002002
930.5419	0.000821
930.7826	0.002318
931.0234	0.002023
931.2642	0.001770
931.5049	0.002466
931.7457	0.003225
931.9865	0.001369
932.2273	0.000947
932.4681	0.001264
932.7089	0.002508
932.9498	0.001685
933.1906	0.001643
933.4314	0.001327
933.6723	0.002824
933.9131	0.002339
934.1540	0.000652
934.3949	0.002402
934.6358	0.002487
934.8766	0.002128
935.1175	0.001538
935.3584	0.000357
935.5993	0.002423
935.8403	0.001812
936.0812	0.002065
936.3221	0.001601
936.5630	0.001411
936.8040	0.000673
937.0449	0.002023
937.2859	0.002297
937.5269	0.002023
937.7678	0.000336
938.0088	0.002023
938.2498	0.001749
938.4908	0.000736
938.7318	0.002170
938.9728	0.002170
939.2138	0.002065
939.4549	0.000167
939.6959	0.001285
939.9369	0.001496
940.1780	0.001369
940.4190	0.001032
940.6601	0.001306
940.9012	0.000441
941.1422	0.002086
941.3833	0.000589
941.6244	0.002339
941.8655	-0.000044
942.1066	0.002508
942.3477	0.002339
942.5889	0.001285
942.8300	0.001685
943.0711	0.001580
943.3123	0.001664
943.5534	0.001074
943.7946	0.001137
944.0357	0.001496
944.2769	0.001369
944.5181	0.000779
944.7593	0.001116
945.0005	0.000905
945.2417	0.000947
945.4829	0.000504
945.7241	0.000378
945.9653	0.000673
946.2066	0.000062
946.4478	0.000462
946.6891	0.000779
946.9303	0.001200
947.1716	0.001285
947.4128	0.000884
947.6541	0.000378
947.8954	0.000483
948.1367	0.001496
948.3780	0.000399
948.6193	0.000947
948.8606	-0.000360
949.1019	-0.000466
949.3433	0.000968
949.5846	-0.000445
949.8259	-0.000192
950.0673	0.000947
950.3086	-0.000234
950.5500	-0.000866
950.7914	0.001285
951.0327	0.001032
951.2741	0.000884
951.5155	0.001053
951.7569	0.000821
951.9983	0.000315
952.2398	0.001791
952.4812	0.000694
952.7226	0.001580
952.9640	0.000209
953.2055	0.000610
953.4469	0.001179
953.6884	0.000715
953.9299	0.000715
954.1713	0.001664
954.4128	0.002044
954.6543	0.001538
954.8958	0.000420
955.1373	0.001580
955.3788	0.001622
955.6203	0.000589
955.8618	0.001411
956.1034	0.002192
956.3449	0.000800
956.5865	0.001327
956.8280	0.001074
957.0696	0.002065
957.3111	0.000062
957.5527	-0.000044
957.7943	0.001559
958.0359	0.000800
958.2775	-0.000297
958.5191	0.000336
958.7607	0.000399
959.0023	0.001390
959.2439	-0.001225
959.4856	0.001875
959.7272	0.001896
959.9688	0.002529
960.2105	0.000062
960.4522	-0.000170
960.6938	0.000483
960.9355	0.001474
961.1772	0.000589
961.4189	0.000589
961.6606	-0.000677
961.9023	0.000315
962.1440	0.000736
962.3857	-0.000128
962.6274	0.001158
962.8692	0.001453
963.1109	0.002213
963.3527	-0.000297
963.5944	0.001011
963.8362	0.000947
964.0779	0.001390
964.3197	0.001791
964.5615	0.000757
964.8033	0.001032
965.0451	0.000694
965.2869	0.000378
965.5287	0.000610
965.7705	0.000188
966.0123	-0.000023
966.2542	0.000441
966.4960	0.001095
966.7379	0.000779
966.9797	0.000779
967.2216	0.000589
967.4634	0.000715
967.7053	0.001264
967.9472	0.000293
968.1891	-0.000360
968.4310	0.001917
968.6729	0.001538
968.9148	0.001327
969.1567	0.000989
969.3987	0.000062
969.6406	0.000441
969.8825	0.000019
970.1245	0.000420
970.3664	-0.000255
970.6084	0.000315
970.8504	0.000125
971.0923	0.000884
971.3343	0.000315
971.5763	0.001116
971.8183	0.000251
972.0603	0.000863
972.3023	0.000652
972.5443	0.001917
972.7864	-0.000107
973.0284	-0.000002
973.2704	0.000779
973.5125	0.001158
973.7545	0.000905
973.9966	0.000547
974.2387	-0.000255
974.4807	0.000547
974.7228	-0.000845
974.9649	0.001411
975.2070	0.000441
975.4491	0.000863
975.6912	-0.000023
975.9333	0.001116
976.1755	0.001179
976.4176	0.001622
976.6597	0.001517
976.9019	0.001137
977.1440	-0.000023
977.3862	0.001664
977.6283	0.000694
977.8705	0.002255
978.1127	0.001685
978.3549	0.000968
978.5971	0.000736
978.8393	0.001706
979.0815	-0.000381
979.3237	-0.001141
979.5659	-0.000402
979.8082	0.001517
980.0504	0.000779
980.2926	0.000230
980.5349	-0.000023
980.7771	0.001559
981.0194	0.000019
981.2617	0.001390
981.5040	0.000821
981.7462	0.001264
981.9885	0.000230
982.2308	0.002023
982.4731	0.000378
982.7155	0.000167
982.9578	0.000631
983.2001	0.001116
983.4424	0.001938
983.6848	0.000947
983.9271	0.000441
984.1695	0.002466
984.4118	0.000989
984.6542	0.000104
984.8966	0.000821
985.1390	-0.000255
985.3814	-0.000445
985.6238	0.000483
985.8662	0.000336
986.1086	0.000104
986.3510	0.000146
986.5934	-0.000402
986.8358	-0.000044
987.0783	0.000378
987.3207	-0.000445
987.5632	0.001496
987.8056	0.000104
988.0481	0.001496
988.2906	-0.000761
988.5331	0.000926
988.7756	0.000062
989.0180	0.000040
989.2605	0.000652
989.5031	-0.000297
989.7456	0.000715
989.9881	0.000167
990.2306	0.001770
990.4732	0.000926
990.7157	0.000610
990.9582	0.000293
991.2008	-0.001499
991.4434	0.000336
991.6859	0.000125
991.9285	0.001622
992.1711	0.000441
992.4137	0.000631
992.6563	0.001559
992.8989	0.000610
993.1415	-0.000086
993.3841	0.001791
993.6267	-0.000213
993.8694	-0.000360
994.1120	-0.000192
994.3547	0.001221
994.5973	0.000399
994.8400	-0.000424
995.0826	-0.001478
995.3253	0.001179
995.5680	0.001011
995.8107	0.000378
996.0534	0.000040
996.2961	0.000694
996.5388	-0.000656
996.7815	0.000125
997.0242	0.000357
997.2670	0.000209
997.5097	0.000399
997.7524	0.000167
997.9952	0.000230
998.2379	0.001411
998.4807	0.000019
998.7235	0.002234
998.9662	0.000062
999.2090	0.000062
999.4518	0.000040
999.6946	0.000315
999.9374	-0.000297
1000.1802	0.001285
1000.4230	0.000209
1000.6659	0.000230
1000.9087	-0.000086
1001.1515	0.000230
1001.3944	0.000968
1001.6372	0.000525
1001.8801	0.001369
1002.1230	0.000525
1002.3658	-0.000782
1002.6087	0.000947
1002.8516	0.001116
1003.0945	-0.001141
1003.3374	0.000905
1003.5803	0.001432
1003.8232	0.000715
1004.0661	-0.001056
1004.3091	0.000715
1004.5520	-0.000803
1004.7949	-0.000023
1005.0379	-0.001056
1005.2808	0.000272
1005.5238	-0.000445
1005.7667	0.001327
1006.0097	0.001242
1006.2527	-0.000065
1006.4957	-0.000023
1006.7387	0.001327
1006.9817	-0.000002
1007.2247	0.001221
1007.4677	0.000757
1007.7107	0.000167
1007.9538	0.000673
1008.1968	-0.000402
1008.4398	-0.000213
1008.6829	0.001791
1008.9259	0.000525
1009.1690	0.001200
1009.4121	0.000104
1009.6551	-0.000571
1009.8982	0.001053
1010.1413	0.001643
1010.3844	0.000568
1010.6275	0.000104
1010.8706	-0.000128
1011.1137	0.000547
1011.3568	0.000040
1011.6000	0.000568
1011.8431	-0.000149
1012.0863	0.001917
1012.3294	0.000800
1012.5726	0.001158
1012.8157	-0.000065
1013.0589	0.000968
1013.3021	0.000083
1013.5452	0.000694
1013.7884	0.001643
1014.0316	0.000462
1014.2748	-0.000044
1014.5180	0.000547
1014.7613	-0.000951
1015.0045	0.000715
1015.2477	0.000251
1015.4909	0.000272
1015.7342	-0.000402
1015.9774	-0.001077
1016.2207	-0.000381
1016.4640	0.000926
1016.7072	0.000884
1016.9505	0.001664
1017.1938	0.000104
1017.4371	0.000251
1017.6804	-0.000276
1017.9237	0.001158
1018.1670	-0.001668
1018.4103	0.000483
1018.6536	-0.000044
1018.8969	-0.000023
1019.1403	0.000947
1019.3836	0.001622
1019.6270	0.000420
1019.8703	-0.000466
1020.1137	0.000315
1020.3571	-0.001183
1020.6004	-0.000044
1020.8438	0.000694
1021.0872	0.000104
1021.3306	0.000462
1021.5740	0.000842
1021.8174	0.000525
1022.0608	0.001264
1022.3042	-0.000339
1022.5477	-0.000023
1022.7911	-0.000128
1023.0345	-0.000044
