# Wavelength (nm)	Intensity (a.u.)
197.7802	-0.000040
197.9842	0.000297
198.1882	0.000297
198.3922	-0.000420
198.5963	0.000213
198.8003	0.000192
199.0044	0.002090
199.2085	0.000951
199.4126	0.000550
199.6168	0.001541
199.8209	0.001204
200.0251	-0.000863
200.2292	-0.000188
200.4334	-0.001222
200.6376	0.000297
200.8418	0.000698
201.0461	0.000234
201.2503	0.000107
201.4546	-0.000315
201.6589	0.000993
201.8631	0.001056
202.0674	0.000170
202.2718	0.000698
202.4761	0.000571
202.6805	0.000339
202.8848	-0.000062
203.0892	0.001541
203.2936	-0.000441
203.4980	0.000951
203.7024	-0.001306
203.9069	0.001584
204.1113	-0.000294
204.3158	0.000698
204.5203	-0.000736
204.7248	-0.000926
204.9293	-0.000589
205.1338	0.001457
205.3384	-0.000272
205.5430	-0.000336
205.7475	-0.000230
205.9521	0.001288
206.1567	0.000128
206.3614	-0.000905
206.5660	0.000508
206.7706	0.000149
206.9753	0.000065
207.1800	-0.000336
207.3847	0.000276
207.5894	-0.001032
207.7941	0.000213
207.9989	0.000656
208.2036	-0.000504
208.4084	-0.000694
208.6132	0.000149
208.8180	0.000065
209.0228	-0.000441
209.2276	0.000867
209.4325	0.000360
209.6373	0.000297
209.8422	0.000213
210.0471	-0.000399
210.2520	-0.001664
210.4569	0.000508
210.6618	-0.000062
210.8668	-0.000062
211.0718	-0.000399
211.2767	0.000276
211.4817	-0.000294
211.6867	-0.000526
211.8918	0.000635
212.0968	-0.000019
212.3018	0.000824
212.5069	-0.000062
212.7120	0.000487
212.9171	0.001352
213.1222	-0.000694
213.3273	-0.000357
213.5325	-0.000884
213.7376	0.000297
213.9428	-0.000589
214.1480	-0.000167
214.3532	-0.000188
214.5584	-0.000251
214.7636	0.000149
214.9689	0.000740
215.1741	0.000613
215.3794	-0.001053
215.5847	0.000445
215.7900	0.000149
215.9953	0.001752
216.2007	0.000023
216.4060	-0.000083
216.6114	-0.000631
216.8168	0.000065
217.0222	0.000782
217.2276	-0.000040
217.4330	-0.000209
217.6384	-0.000547
217.8439	-0.000209
218.0494	0.001668
218.2548	0.000698
218.4603	-0.000272
218.6659	-0.000188
218.8714	0.000487
219.0769	-0.000504
219.2825	-0.000357
219.4881	-0.000357
219.6936	0.000170
219.8992	0.000128
220.1049	-0.000315
220.3105	0.000888
220.5161	0.000213
220.7218	0.000635
220.9275	-0.000315
221.1332	0.000803
221.3389	-0.000019
221.5446	0.000867
221.7503	-0.000294
221.9561	0.000107
222.1618	-0.000420
222.3676	0.000128
222.5734	0.000192
222.7792	0.000972
222.9850	0.000909
223.1909	0.000782
223.3967	0.000445
223.6026	0.000044
223.8085	-0.000104
224.0144	0.001267
224.2203	0.001499
224.4262	-0.000104
224.6322	0.000930
224.8381	0.000192
225.0441	0.000635
225.2501	0.001752
225.4561	0.000445
225.6621	0.000192
225.8681	-0.000420
226.0742	0.000360
226.2802	-0.000420
226.4863	0.001077
226.6924	-0.000736
226.8985	0.001267
227.1046	-0.000167
227.3107	0.000424
227.5169	-0.000926
227.7230	0.000656
227.9292	-0.001285
228.1354	0.000677
228.3416	0.000867
228.5478	0.001099
228.7541	0.000107
228.9603	0.000909
229.1666	-0.000062
229.3729	0.000613
229.5791	-0.000251
229.7855	-0.000736
229.9918	-0.000188
230.1981	-0.000146
230.4045	-0.000146
230.6108	-0.000399
230.8172	0.000529
231.0236	0.001099
231.2300	-0.000652
231.4364	-0.001770
231.6429	-0.000968
231.8493	0.001605
232.0558	0.000529
232.2623	0.001731
232.4688	-0.000315
232.6753	-0.000104
232.8818	0.000487
233.0884	-0.000019
233.2949	0.000360
233.5015	0.000255
233.7081	0.001436
233.9147	-0.000062
234.1213	-0.001538
234.3279	0.002195
234.5346	-0.000758
234.7413	0.000192
234.9479	0.000909
235.1546	0.000592
235.3613	-0.000188
235.5680	-0.000652
235.7748	-0.000209
235.9815	-0.000800
236.1883	0.000002
236.3951	0.001056
236.6018	0.000402
236.8087	0.000086
237.0155	0.000192
237.2223	0.001077
237.4292	-0.001095
237.6360	-0.001369
237.8429	-0.001390
238.0498	0.000149
238.2567	0.000424
238.4636	0.001436
238.6706	-0.001285
238.8775	0.000276
239.0845	0.000571
239.2915	0.000128
239.4985	0.000192
239.7055	0.001056
239.9125	-0.000104
240.1195	0.000149
240.3266	-0.000125
240.5337	0.000213
240.7407	0.001352
240.9478	0.001204
241.1549	-0.000631
241.3621	-0.000146
241.5692	-0.000167
241.7764	0.000424
241.9835	0.000508
242.1907	-0.000462
242.3979	-0.000062
242.6051	0.001162
242.8124	-0.000062
243.0196	0.000508
243.2269	0.000065
243.4341	0.002723
243.6414	0.000381
243.8487	0.001816
244.0560	0.001373
244.2634	0.000023
244.4707	-0.000652
244.6781	0.000255
244.8854	0.000339
245.0928	0.000824
245.3002	0.000845
245.5076	-0.000947
245.7151	0.000508
245.9225	0.001373
246.1300	-0.000483
246.3375	0.001288
246.5449	-0.000779
246.7524	-0.000062
246.9600	-0.000230
247.1675	0.000065
247.3750	0.000234
247.5826	0.001773
247.7902	-0.000673
247.9978	0.002048
248.2054	-0.000715
248.4130	0.001246
248.6206	0.000149
248.8283	0.000276
249.0359	-0.000378
249.2436	0.000128
249.4513	-0.001369
249.6590	0.000276
249.8667	-0.001327
250.0745	0.000761
250.2822	-0.000336
250.4900	0.000424
250.6978	0.000234
250.9056	0.001014
251.1134	0.000170
251.3212	0.000255
251.5290	0.000571
251.7369	-0.000336
251.9447	-0.000019
252.1526	0.001436
252.3605	0.000276
252.5684	0.001288
252.7763	-0.001053
252.9843	0.001963
253.1922	-0.000779
253.4002	0.000402
253.6082	0.000613
253.8162	-0.000125
254.0242	0.000276
254.2322	0.000360
254.4402	0.000086
254.6483	0.000234
254.8564	0.000635
255.0644	0.000888
255.2725	0.000635
255.4806	0.000972
255.6888	0.000086
255.8969	-0.000040
256.1051	-0.000315
256.3132	-0.000568
256.5214	-0.000547
256.7296	0.000424
256.9378	0.000002
257.1460	0.000761
257.3543	0.000782
257.5625	0.001035
257.7708	-0.001243
257.9791	0.000550
258.1874	-0.000378
258.3957	0.000318
258.6040	0.000656
258.8124	-0.000673
259.0207	0.000951
259.2291	0.001879
259.4375	0.000592
259.6459	0.000782
259.8543	0.000128
260.0627	0.001288
260.2711	0.000192
260.4796	0.001099
260.6881	-0.000483
260.8965	-0.000652
261.1050	-0.000146
261.3135	-0.000715
261.5221	0.000318
261.7306	0.000487
261.9392	0.000761
262.1477	0.000824
262.3563	-0.000863
262.5649	-0.000357
262.7735	-0.000652
262.9822	-0.000167
263.1908	0.000424
263.3995	0.000213
263.6081	-0.000315
263.8168	-0.000968
264.0255	-0.000399
264.2342	0.000086
264.4429	0.000402
264.6517	0.001204
264.8604	-0.001074
265.0692	-0.000779
265.2780	0.001752
265.4868	0.000149
265.6956	-0.000842
265.9044	-0.000188
266.1133	-0.000863
266.3221	0.000888
266.5310	0.000402
266.7399	0.000170
266.9488	-0.000673
267.1577	-0.000062
267.3666	-0.000019
267.5755	0.001331
267.7845	-0.000779
267.9935	0.000360
268.2024	-0.000610
268.4114	-0.000483
268.6205	0.000761
268.8295	-0.001032
269.0385	-0.000062
269.2476	0.000592
269.4566	0.001373
269.6657	0.001120
269.8748	0.000107
270.0839	0.000803
270.2931	0.000213
270.5022	0.001162
270.7114	0.000276
270.9205	0.000761
271.1297	0.000571
271.3389	0.000592
271.5481	0.001647
271.7573	-0.000694
271.9666	0.000107
272.1758	0.000255
272.3851	-0.001200
272.5944	0.000234
272.8037	0.000698
273.0130	0.000571
273.2223	-0.000146
273.4316	0.000318
273.6410	0.000149
273.8504	0.001141
274.0597	0.000740
274.2691	0.000023
274.4785	0.000550
274.6880	-0.000188
274.8974	-0.000083
275.1069	0.001731
275.3163	-0.000188
275.5258	0.000930
275.7353	0.000845
275.9448	0.000234
276.1543	-0.000441
276.3639	-0.000357
276.5734	0.000445
276.7830	0.001773
276.9926	-0.000062
277.2022	-0.000167
277.4118	0.000255
277.6214	0.000803
277.8310	0.000698
278.0407	-0.000483
278.2503	0.000234
278.4600	-0.000294
278.6697	-0.000272
278.8794	0.001373
279.0891	-0.000040
279.2989	0.000023
279.5086	-0.001116
279.7184	-0.000209
279.9281	0.000381
280.1379	0.000993
280.3477	-0.000209
280.5576	0.000424
280.7674	0.000276
280.9772	0.002005
281.1871	0.000402
281.3970	-0.000294
281.6069	-0.000884
281.8168	0.001605
282.0267	-0.000715
282.2366	0.001077
282.4466	0.000276
282.6565	0.000149
282.8665	0.000592
283.0765	0.000213
283.2865	-0.000251
283.4965	0.000677
283.7065	-0.000652
283.9166	0.001668
284.1266	0.000550
284.3367	0.000023
284.5468	-0.000146
284.7569	-0.001074
284.9670	0.000761
285.1771	0.000402
285.3873	0.000002
285.5974	0.000192
285.8076	-0.000230
286.0178	0.000993
286.2280	0.000951
286.4382	0.000170
286.6484	-0.000167
286.8587	0.001183
287.0689	0.000571
287.2792	0.001478
287.4895	-0.001348
287.6998	0.000002
287.9101	-0.000040
288.1204	-0.001116
288.3308	0.000550
288.5411	0.000951
288.7515	0.000276
288.9619	0.000888
289.1723	0.000635
289.3827	-0.000104
289.5931	0.000719
289.8035	0.000339
290.0140	0.000339
290.2245	0.000044
290.4349	-0.000631
290.6454	-0.000462
290.8559	-0.001285
291.0665	0.000023
291.2770	-0.000568
291.4875	0.000213
291.6981	0.000930
291.9087	0.001415
292.1193	-0.000905
292.3299	-0.000336
292.5405	-0.000526
292.7511	-0.000378
292.9618	0.000276
293.1724	-0.000146
293.3831	-0.000884
293.5938	0.000909
293.8045	0.000170
294.0152	0.000972
294.2260	0.000740
294.4367	-0.000526
294.6475	0.000529
294.8582	0.000571
295.0690	0.000592
295.2798	0.001183
295.4906	0.000044
295.7015	0.000867
295.9123	0.000023
296.1232	-0.000083
296.3340	-0.000146
296.5449	-0.000483
296.7558	-0.000526
296.9667	0.000149
297.1777	-0.000399
297.3886	0.000592
297.5995	0.000065
297.8105	0.000550
298.0215	-0.000019
298.2325	0.000487
298.4435	0.000466
298.6545	0.000656
298.8656	0.001436
299.0766	0.000086
299.2877	0.000002
299.4988	0.001309
299.7099	-0.000462
299.9210	0.000149
300.1321	-0.001074
300.3432	-0.001095
300.5544	0.000445
300.7655	0.000845
300.9767	0.000613
301.1879	-0.000251
301.3991	-0.000357
301.6103	-0.000736
301.8215	-0.000631
302.0328	0.000550
302.2441	0.000276
302.4553	-0.000251
302.6666	-0.000378
302.8779	0.000761
303.0892	0.001710
303.3006	0.000782
303.5119	0.000550
303.7233	-0.000188
303.9346	0.000297
304.1460	0.001373
304.3574	0.000023
304.5688	0.000192
304.7803	0.000466
304.9917	0.000466
305.2031	-0.000104
305.4146	0.000719
305.6261	-0.000167
305.8376	0.000297
306.0491	0.000424
306.2606	0.000002
306.4722	0.000930
306.6837	-0.000146
306.8953	-0.001411
307.1069	-0.000884
307.3184	-0.000441
307.5301	-0.000863
307.7417	-0.000420
307.9533	0.001162
308.1650	0.000297
308.3766	0.000086
308.5883	-0.000800
308.8000	0.001605
309.0117	0.000086
309.2234	-0.000631
309.4351	0.000613
309.6469	-0.000062
309.8586	0.001816
310.0704	0.001837
310.2822	0.000044
310.4940	0.000508
310.7058	-0.001390
310.9176	0.002385
311.1295	-0.000146
311.3413	0.000930
311.5532	0.000149
311.7651	0.001415
311.9770	-0.000736
312.1889	0.001795
312.4008	0.000023
312.6127	0.000086
312.8247	-0.000083
313.0366	0.000803
313.2486	-0.000019
313.4606	0.002005
313.6726	0.000424
313.8846	0.000698
314.0967	-0.000884
314.3087	-0.000568
314.5208	-0.000062
314.7328	0.001267
314.9449	-0.000715
315.1570	-0.001032
315.3692	0.001394
315.5813	0.000867
315.7934	0.000613
316.0056	-0.000715
316.2177	0.000297
316.4299	-0.000905
316.6421	0.001162
316.8543	0.000318
317.0666	0.000951
317.2788	0.000255
317.4911	-0.000336
317.7033	0.001499
317.9156	-0.000062
318.1279	0.000993
318.3402	-0.000040
318.5525	0.000002
318.7649	0.000972
318.9772	-0.000230
319.1896	0.000023
319.4019	-0.000167
319.6143	-0.000125
319.8267	0.001246
320.0392	-0.000019
320.2516	0.000613
320.4640	-0.000230
320.6765	0.000930
320.8890	0.001457
321.1014	-0.000462
321.3139	-0.000779
321.5265	0.000845
321.7390	0.000339
321.9515	0.000213
322.1641	-0.000188
322.3766	0.000635
322.5892	0.000677
322.8018	0.000023
323.0144	-0.000294
323.2270	-0.000209
323.4397	-0.000758
323.6523	0.000318
323.8650	-0.000125
324.0777	0.000023
324.2904	0.000065
324.5031	0.000107
324.7158	0.000592
324.9285	-0.000083
325.1412	-0.000547
325.3540	0.000656
325.5668	0.000107
325.7796	0.000508
325.9924	0.000487
326.2052	0.000613
326.4180	-0.000209
326.6308	0.000951
326.8437	-0.000589
327.0566	-0.000104
327.2694	-0.000758
327.4823	0.000867
327.6952	-0.000673
327.9082	0.000360
328.1211	0.000318
328.3340	-0.000821
328.5470	-0.000673
328.7600	0.000698
328.9730	0.001267
329.1860	0.001331
329.3990	0.000255
329.6120	0.000529
329.8251	-0.000040
330.0381	-0.000272
330.2512	-0.000800
330.4643	0.000339
330.6774	0.000318
330.8905	0.000086
331.1036	0.000761
331.3167	-0.002023
331.5299	0.000845
331.7431	0.000255
331.9562	-0.000315
332.1694	-0.000167
332.3826	0.001478
332.5959	0.000930
332.8091	0.001373
333.0223	0.000719
333.2356	-0.000631
333.4489	-0.000694
333.6622	0.001436
333.8755	-0.000146
334.0888	0.000487
334.3021	0.000360
334.5154	0.000402
334.7288	0.001077
334.9422	-0.000357
335.1555	-0.000526
335.3689	0.000170
335.5823	0.000360
335.7958	0.000613
336.0092	0.000951
336.2227	0.000571
336.4361	0.000213
336.6496	0.000550
336.8631	-0.000146
337.0766	-0.001601
337.2901	0.001204
337.5036	-0.000230
337.7172	0.000107
337.9307	-0.000526
338.1443	0.000656
338.3579	0.000613
338.5715	-0.000694
338.7851	-0.000378
338.9987	0.000255
339.2124	-0.000779
339.4260	0.000508
339.6397	0.000339
339.8533	-0.000230
340.0670	-0.000167
340.2807	-0.000209
340.4945	-0.000125
340.7082	-0.000209
340.9219	-0.000315
341.1357	0.000803
341.3495	-0.000715
341.5633	0.000276
341.7771	0.001099
341.9909	0.000909
342.2047	-0.000863
342.4185	0.000466
342.6324	0.000592
342.8463	0.000571
343.0601	0.000445
343.2740	0.000867
343.4879	0.000656
343.7019	-0.000842
343.9158	-0.001011
344.1297	-0.000504
344.3437	0.001246
344.5577	-0.000631
344.7717	0.000635
344.9857	0.000255
345.1997	-0.000083
345.4137	0.000972
345.6277	0.000255
345.8418	0.000845
346.0559	0.000170
346.2699	0.000656
346.4840	0.000698
346.6981	0.001099
346.9123	0.001035
347.1264	0.000023
347.3406	-0.000441
347.5547	0.000424
347.7689	-0.001074
347.9831	0.001099
348.1973	0.000635
348.4115	0.000656
348.6257	0.000044
348.8400	0.000592
349.0542	0.000824
349.2685	0.000635
349.4828	0.000972
349.6971	0.000993
349.9114	-0.000968
350.1257	0.000402
350.3400	-0.001116
350.5544	0.000424
350.7687	-0.000420
350.9831	0.000107
351.1975	0.001457
351.4119	0.001246
351.6263	-0.000779
351.8407	0.000592
352.0552	-0.001812
352.2696	0.001225
352.4841	-0.001285
352.6986	0.001141
352.9131	-0.000294
353.1276	0.000234
353.3421	0.001035
353.5566	0.000339
353.7712	-0.000420
353.9858	0.000888
354.2003	-0.000040
354.4149	0.000339
354.6295	0.000803
354.8441	0.000571
355.0588	-0.001348
355.2734	0.000276
355.4881	0.000529
355.7027	0.000993
355.9174	-0.001179
356.1321	0.000466
356.3468	0.000381
356.5615	0.000318
356.7763	0.000698
356.9910	0.000318
357.2058	0.000761
357.4206	-0.000315
357.6353	0.000592
357.8501	0.001246
358.0650	0.000550
358.2798	0.000550
358.4946	0.000402
358.7095	-0.000209
358.9243	-0.000968
359.1392	0.000613
359.3541	-0.000378
359.5690	0.000930
359.7839	0.000381
359.9989	-0.000062
360.2138	0.001436
360.4288	0.000972
360.6438	-0.000779
360.8587	-0.000019
361.0737	-0.000504
361.2888	0.000023
361.5038	0.000571
361.7188	0.001436
361.9339	0.000508
362.1489	-0.000694
362.3640	-0.001538
362.5791	-0.000357
362.7942	0.000044
363.0093	0.000824
363.2245	0.000972
363.4396	0.000234
363.6548	-0.000104
363.8699	-0.000104
364.0851	0.000170
364.3003	0.001246
364.5155	0.001035
364.7308	0.000677
364.9460	-0.001222
365.1612	0.000339
365.3765	-0.000188
365.5918	-0.000926
365.8071	0.000845
366.0224	0.001858
366.2377	0.000149
366.4530	0.000993
366.6684	-0.000167
366.8837	0.001246
367.0991	-0.001770
367.3145	0.001246
367.5299	-0.000188
367.7453	0.000803
367.9607	-0.000779
368.1761	-0.000019
368.3916	-0.001285
368.6070	0.001183
368.8225	-0.000399
369.0380	0.002891
369.2535	0.000002
369.4690	0.001162
369.6845	-0.000990
369.9001	-0.000104
370.1156	-0.000694
370.3312	0.000550
370.5468	0.000529
370.7624	0.001183
370.9780	-0.000209
371.1936	0.000170
371.4092	0.000487
371.6249	0.001225
371.8405	-0.000146
372.0562	0.000571
372.2719	-0.000652
372.4876	0.000698
372.7033	0.000719
372.9190	0.000381
373.1348	-0.000673
373.3505	0.002090
373.5663	-0.000694
373.7820	0.001035
373.9978	0.000002
374.2136	0.000993
374.4294	0.000044
374.6453	0.000424
374.8611	0.001394
375.0770	-0.000125
375.2928	-0.000188
375.5087	0.001731
375.7246	0.001183
375.9405	0.001478
376.1564	-0.000441
376.3724	0.000635
376.5883	0.000255
376.8043	-0.000947
377.0203	0.001731
377.2362	0.000170
377.4522	-0.000441
377.6682	0.001858
377.8843	-0.002065
378.1003	0.000360
378.3164	0.000656
378.5324	0.000487
378.7485	-0.001285
378.9646	0.000761
379.1807	0.000888
379.3968	-0.000104
379.6129	0.000044
379.8291	-0.000019
380.0452	0.000086
380.2614	0.000023
380.4776	0.000656
380.6938	0.001056
380.9100	-0.001285
381.1262	0.002280
381.3424	-0.000083
381.5587	-0.000399
381.7749	-0.000399
381.9912	0.000951
382.2075	0.001457
382.4238	0.000487
382.6401	0.000571
382.8564	0.000571
383.0728	-0.000167
383.2891	0.000234
383.5055	0.000297
383.7219	0.001942
383.9382	-0.000631
384.1546	0.001710
384.3711	0.000487
384.5875	0.001162
384.8039	-0.000104
385.0204	-0.001306
385.2368	-0.000968
385.4533	0.000445
385.6698	0.000318
385.8863	0.001879
386.1028	-0.000230
386.3194	0.000993
386.5359	0.000930
386.7525	0.002048
386.9690	0.000719
387.1856	0.000149
387.4022	0.000677
387.6188	0.000529
387.8355	-0.000083
388.0521	0.000888
388.2687	-0.001580
388.4854	0.000972
388.7021	-0.000694
388.9188	0.000719
389.1355	0.000867
389.3522	-0.000062
389.5689	0.000824
389.7856	-0.000272
390.0024	0.001056
390.2192	0.000529
390.4359	0.000023
390.6527	0.001879
390.8695	0.000951
391.0863	-0.000399
391.3032	0.000529
391.5200	0.000719
391.7369	0.001773
391.9537	-0.000526
392.1706	0.001563
392.3875	0.000508
392.6044	0.000402
392.8213	0.000740
393.0383	0.000529
393.2552	0.000803
393.4722	0.000107
393.6891	0.001162
393.9061	0.000487
394.1231	0.002069
394.3401	-0.000104
394.5572	0.001035
394.7742	-0.000357
394.9912	0.000656
395.2083	0.001520
395.4254	0.000592
395.6425	0.000613
395.8596	0.000909
396.0767	0.000107
396.2938	-0.000230
396.5109	0.000424
396.7281	0.001162
396.9453	-0.001285
397.1624	-0.001390
397.3796	0.000972
397.5968	0.001035
397.8140	0.000909
398.0313	0.000740
398.2485	0.000023
398.4658	0.000065
398.6830	0.000845
398.9003	0.000297
399.1176	0.001014
399.3349	0.001710
399.5522	0.000592
399.7696	0.000951
399.9869	0.000170
400.2043	0.001795
400.4216	0.000234
400.6390	0.000402
400.8564	0.000592
401.0738	0.000719
401.2912	0.000993
401.5087	-0.000357
401.7261	0.000909
401.9436	-0.000336
402.1610	0.000381
402.3785	0.000761
402.5960	0.001309
402.8135	0.001056
403.0310	-0.001411
403.2486	0.001352
403.4661	0.001077
403.6837	0.001584
403.9013	0.000698
404.1189	0.001204
404.3365	0.000445
404.5541	0.001710
404.7717	0.001035
404.9893	0.001288
405.2070	0.001056
405.4246	0.001035
405.6423	0.001288
405.8600	0.001900
406.0777	0.000044
406.2954	0.000192
406.5131	-0.000800
406.7309	0.000360
406.9486	-0.000631
407.1664	0.000424
407.3842	0.000698
407.6020	0.001267
407.8198	0.001668
408.0376	0.000318
408.2554	0.000381
408.4733	0.001478
408.6911	-0.000062
408.9090	0.000635
409.1269	0.001331
409.3448	0.000761
409.5627	-0.000104
409.7806	0.000086
409.9985	0.001647
410.2165	-0.000104
410.4344	0.000740
410.6524	0.001710
410.8704	0.000023
411.0884	-0.000146
411.3064	-0.000315
411.5244	0.001520
411.7424	0.000276
411.9605	0.001689
412.1785	0.001520
412.3966	0.000740
412.6147	0.001942
412.8328	0.001921
413.0509	0.001668
413.2690	0.002237
413.4871	0.001436
413.7053	0.001942
413.9234	0.001710
414.1416	0.002512
414.3598	0.001267
414.5780	0.002343
414.7962	0.002027
415.0144	0.003123
415.2326	0.001773
415.4509	0.001921
415.6692	0.000845
415.8874	0.003630
416.1057	0.002786
416.3240	0.001837
416.5423	0.000993
416.7606	0.001837
416.9790	0.002301
417.1973	0.001373
417.4157	0.001773
417.6341	0.002533
417.8524	0.002617
418.0708	0.002280
418.2893	0.002659
418.5077	0.001816
418.7261	0.001879
418.9446	0.003187
419.1630	0.003123
419.3815	0.003250
419.6000	0.001710
419.8185	0.002912
420.0370	0.001900
420.2555	0.003018
420.4741	0.002870
420.6926	0.004115
420.9112	0.004136
421.1298	0.005022
421.3483	0.006034
421.5669	0.004410
421.7856	0.005380
422.0042	0.004895
422.2228	0.004030
422.4415	0.005127
422.6601	0.004326
422.8788	0.005465
423.0975	0.004473
423.3162	0.004030
423.5349	0.002807
423.7536	0.005612
423.9724	0.005064
424.1911	0.006350
424.4099	0.004199
424.6287	0.005760
424.8475	0.004705
425.0663	0.004304
425.2851	0.005106
425.5039	0.006308
425.7228	0.005380
425.9416	0.005190
426.1605	0.006245
426.3793	0.004115
426.5982	0.004136
426.8171	0.005127
427.0361	0.005127
427.2550	0.006245
427.4739	0.006371
427.6929	0.008523
427.9118	0.006414
428.1308	0.005844
428.3498	0.006287
428.5688	0.006899
428.7878	0.006646
429.0068	0.006371
429.2259	0.006709
429.4449	0.007785
429.6640	0.005950
429.8831	0.008333
430.1022	0.010189
430.3213	0.009493
430.5404	0.008354
430.7595	0.009029
430.9787	0.007236
431.1978	0.011033
431.4170	0.008692
431.6362	0.009430
431.8553	0.009008
432.0745	0.007890
432.2938	0.008502
432.5130	0.008713
432.7322	0.007553
432.9515	0.008396
433.1707	0.007321
433.3900	0.007215
433.6093	0.009514
433.8286	0.009282
434.0479	0.010400
434.2673	0.011708
434.4866	0.010273
434.7059	0.009388
434.9253	0.011096
435.1447	0.008924
435.3641	0.010062
435.5835	0.010421
435.8029	0.008502
436.0223	0.010759
436.2418	0.011328
436.4612	0.011623
436.6807	0.011982
436.9001	0.012720
437.1196	0.012235
437.3391	0.011919
437.5586	0.010273
437.7782	0.012066
437.9977	0.012151
438.2173	0.012151
438.4368	0.012530
438.6564	0.012404
438.8760	0.012340
439.0956	0.013732
439.3152	0.014028
439.5348	0.012931
439.7545	0.013100
439.9741	0.013901
440.1938	0.013901
440.4135	0.013648
440.6331	0.013184
440.8528	0.013838
441.0725	0.014428
441.2923	0.015040
441.5120	0.016601
441.7318	0.018436
441.9515	0.018668
442.1713	0.019638
442.3911	0.019153
442.6109	0.018710
442.8307	0.016601
443.0505	0.019575
443.2703	0.019090
443.4902	0.020186
443.7101	0.019701
443.9299	0.018120
444.1498	0.020208
444.3697	0.021136
444.5896	0.018352
444.8095	0.019111
445.0295	0.019533
445.2494	0.020482
445.4694	0.020524
445.6894	0.020186
445.9093	0.019765
446.1293	0.019069
446.3493	0.020334
446.5694	0.019048
446.7894	0.019828
447.0094	0.022591
447.2295	0.020313
447.4496	0.021220
447.6696	0.021895
447.8897	0.021262
448.1098	0.020904
448.3300	0.020587
448.5501	0.021199
448.7702	0.021304
448.9904	0.021325
449.2106	0.019807
449.4307	0.023013
449.6509	0.023245
449.8711	0.020186
450.0914	0.022654
450.3116	0.020967
450.5318	0.023329
450.7521	0.022633
450.9724	0.022717
451.1926	0.021072
451.4129	0.021494
451.6332	0.022275
451.8535	0.020250
452.0739	0.022148
452.2942	0.022781
452.5146	0.023034
452.7349	0.022296
452.9553	0.022464
453.1757	0.023962
453.3961	0.021347
453.6165	0.022085
453.8369	0.021093
454.0574	0.021895
454.2778	0.022401
454.4983	0.022085
454.7188	0.023350
454.9393	0.022317
455.1597	0.022802
455.3803	0.023561
455.6008	0.025101
455.8213	0.023371
456.0419	0.023793
456.2624	0.024827
456.4830	0.024299
456.7036	0.024447
456.9242	0.022485
457.1448	0.023878
457.3654	0.023456
457.5860	0.024489
457.8067	0.026535
458.0274	0.027379
458.2480	0.025923
458.4687	0.025881
458.6894	0.027463
458.9101	0.027758
459.1308	0.027547
459.3516	0.026894
459.5723	0.025312
459.7931	0.026873
460.0138	0.027105
460.2346	0.026177
460.4554	0.027358
460.6762	0.025396
460.8970	0.026662
461.1178	0.027547
461.3387	0.029319
461.5595	0.025122
461.7804	0.025523
462.0013	0.027864
462.2222	0.024721
462.4431	0.024152
462.6640	0.023730
462.8849	0.024215
463.1059	0.025776
463.3268	0.024679
463.5478	0.027590
463.7687	0.025396
463.9897	0.027653
464.2107	0.028454
464.4317	0.030310
464.6528	0.030057
464.8738	0.028855
465.0948	0.030205
465.3159	0.030015
465.5370	0.031681
465.7581	0.030859
465.9792	0.032694
466.2003	0.031028
466.4214	0.031618
466.6425	0.030289
466.8637	0.029003
467.0848	0.027927
467.3060	0.026366
467.5272	0.028433
467.7484	0.027252
467.9696	0.027041
468.1908	0.027864
468.4120	0.029868
468.6333	0.028096
468.8545	0.025818
469.0758	0.025227
469.2970	0.024679
469.5183	0.025713
469.7396	0.023709
469.9610	0.024067
470.1823	0.023118
470.4036	0.023013
470.6250	0.023920
470.8463	0.023435
471.0677	0.023118
471.2891	0.023540
471.5105	0.023139
471.7319	0.025016
471.9533	0.023709
472.1748	0.024932
472.3962	0.023034
472.6177	0.023055
472.8391	0.026240
473.0606	0.025565
473.2821	0.027484
473.5036	0.026050
473.7251	0.027547
473.9467	0.026598
474.1682	0.028686
474.3898	0.025227
474.6113	0.025523
474.8329	0.027526
475.0545	0.028328
475.2761	0.028222
475.4977	0.029087
475.7193	0.030395
475.9410	0.028096
476.1626	0.027969
476.3843	0.028686
476.6060	0.027442
476.8277	0.028729
477.0494	0.027147
477.2711	0.026493
477.4928	0.027210
477.7145	0.027864
477.9363	0.027147
478.1580	0.029699
478.3798	0.027969
478.6016	0.031829
478.8234	0.028940
479.0452	0.028138
479.2670	0.027969
479.4888	0.028708
479.7107	0.027400
479.9325	0.029298
480.1544	0.029551
480.3763	0.031112
480.5982	0.031745
480.8201	0.032124
481.0420	0.030205
481.2639	0.028940
481.4859	0.031850
481.7078	0.031281
481.9298	0.030985
482.1517	0.031935
482.3737	0.030564
482.5957	0.030943
482.8177	0.032377
483.0398	0.031133
483.2618	0.029256
483.4838	0.030880
483.7059	0.030121
483.9280	0.033601
484.1501	0.031239
484.3721	0.031386
484.5943	0.031892
484.8164	0.035162
485.0385	0.036279
485.2606	0.036596
485.4828	0.036069
485.7050	0.050052
485.9271	0.081922
486.1493	0.113644
486.3715	0.114677
486.5937	0.097382
486.8160	0.079813
487.0382	0.067369
487.2605	0.063656
487.4827	0.054566
487.7050	0.044379
487.9273	0.038621
488.1496	0.036490
488.3719	0.034065
488.5942	0.032947
488.8165	0.032546
489.0389	0.029382
489.2612	0.032356
489.4836	0.032968
489.7060	0.032377
489.9284	0.031133
490.1508	0.033073
490.3732	0.033221
490.5956	0.030289
490.8180	0.029087
491.0405	0.031492
491.2630	0.032588
491.4854	0.029804
491.7079	0.031428
491.9304	0.030732
492.1529	0.028497
492.3755	0.028539
492.5980	0.032420
492.8205	0.031449
493.0431	0.031070
493.2657	0.030078
493.4882	0.031365
493.7108	0.032588
493.9334	0.031787
494.1561	0.031703
494.3787	0.032082
494.6013	0.032230
494.8240	0.033095
495.0466	0.032757
495.2693	0.030310
495.4920	0.029614
495.7147	0.029087
495.9374	0.029530
496.1601	0.030057
496.3829	0.032609
496.6056	0.033601
496.8284	0.036216
497.0511	0.035752
497.2739	0.033601
497.4967	0.030943
497.7195	0.030374
497.9423	0.031091
498.1652	0.030184
498.3880	0.031049
498.6109	0.029678
498.8337	0.031007
499.0566	0.032082
499.2795	0.032546
499.5024	0.033812
499.7253	0.032483
499.9482	0.032167
500.1712	0.035119
500.3941	0.031724
500.6171	0.031892
500.8400	0.031365
501.0630	0.030395
501.2860	0.032061
501.5090	0.031281
501.7320	0.031703
501.9551	0.033495
502.1781	0.033748
502.4012	0.033812
502.6242	0.035984
502.8473	0.034466
503.0704	0.034571
503.2935	0.032715
503.5166	0.034191
503.7397	0.032841
503.9628	0.034571
504.1860	0.031956
504.4092	0.030732
504.6323	0.028665
504.8555	0.031871
505.0787	0.030289
505.3019	0.031365
505.5251	0.034107
505.7483	0.031998
505.9716	0.033306
506.1948	0.033095
506.4181	0.029804
506.6414	0.032736
506.8647	0.032631
507.0880	0.033369
507.3113	0.030479
507.5346	0.028644
507.7579	0.028433
507.9813	0.029973
508.2046	0.027400
508.4280	0.030226
508.6514	0.031850
508.8748	0.030564
509.0982	0.030226
509.3216	0.030690
509.5450	0.028918
509.7685	0.028370
509.9919	0.029404
510.2154	0.030142
510.4388	0.028686
510.6623	0.028518
510.8858	0.027843
511.1093	0.030901
511.3329	0.028518
511.5564	0.027442
511.7799	0.030100
512.0035	0.028307
512.2270	0.028686
512.4506	0.027168
512.6742	0.027569
512.8978	0.027864
513.1214	0.029446
513.3451	0.028602
513.5687	0.029340
513.7923	0.029193
514.0160	0.028581
514.2397	0.027442
514.4634	0.027632
514.6871	0.027062
514.9108	0.025502
515.1345	0.028497
515.3582	0.026261
515.5819	0.025713
515.8057	0.025185
516.0295	0.026219
516.2532	0.028033
516.4770	0.025966
516.7008	0.025734
516.9246	0.026345
517.1485	0.024299
517.3723	0.027231
517.5961	0.025438
517.8200	0.027273
518.0439	0.023730
518.2677	0.026809
518.4916	0.025607
518.7155	0.025227
518.9395	0.025291
519.1634	0.023920
519.3873	0.024489
519.6113	0.027505
519.8352	0.025480
520.0592	0.025544
520.2832	0.023624
520.5072	0.022928
520.7312	0.024046
520.9552	0.022359
521.1792	0.022971
521.4033	0.023182
521.6273	0.023772
521.8514	0.021410
522.0755	0.024869
522.2996	0.021621
522.5237	0.022992
522.7478	0.020144
522.9719	0.023055
523.1960	0.023350
523.4202	0.023055
523.6443	0.023245
523.8685	0.023392
524.0927	0.022823
524.3169	0.023772
524.5411	0.025059
524.7653	0.023941
524.9895	0.022211
525.2138	0.023371
525.4380	0.023287
525.6623	0.022675
525.8865	0.022443
526.1108	0.023013
526.3351	0.023203
526.5594	0.023498
526.7837	0.025291
527.0081	0.025417
527.2324	0.024869
527.4568	0.023941
527.6811	0.023013
527.9055	0.021705
528.1299	0.023793
528.3543	0.023245
528.5787	0.023013
528.8031	0.024763
529.0276	0.024552
529.2520	0.027147
529.4765	0.025248
529.7009	0.026134
529.9254	0.023540
530.1499	0.024531
530.3744	0.023899
530.5989	0.023245
530.8234	0.024911
531.0480	0.025143
531.2725	0.022570
531.4971	0.023118
531.7217	0.024046
531.9462	0.022992
532.1708	0.022844
532.3954	0.022844
532.6200	0.022570
532.8447	0.024637
533.0693	0.024489
533.2940	0.025966
533.5186	0.026345
533.7433	0.029467
533.9680	0.027505
534.1927	0.026134
534.4174	0.027400
534.6421	0.028813
534.8668	0.028075
535.0916	0.029382
535.3163	0.028581
535.5411	0.028117
535.7659	0.028412
535.9907	0.027126
536.2155	0.026409
536.4403	0.028771
536.6651	0.025417
536.8899	0.025164
537.1148	0.024932
537.3396	0.024742
537.5645	0.024489
537.7894	0.023667
538.0143	0.024763
538.2392	0.026177
538.4641	0.028265
538.6890	0.029319
538.9139	0.029614
539.1389	0.026556
539.3638	0.029720
539.5888	0.030817
539.8138	0.029720
540.0388	0.029425
540.2638	0.028054
540.4888	0.026830
540.7138	0.026746
540.9389	0.028159
541.1639	0.029214
541.3890	0.028497
541.6140	0.028244
541.8391	0.030395
542.0642	0.030859
542.2893	0.031028
542.5144	0.029108
542.7396	0.029720
542.9647	0.030732
543.1899	0.029868
543.4150	0.030226
543.6402	0.030880
543.8654	0.030458
544.0906	0.030796
544.3158	0.031133
544.5410	0.033601
544.7662	0.032145
544.9915	0.032124
545.2167	0.035668
545.4420	0.034402
545.6673	0.031492
545.8926	0.031977
546.1179	0.030015
546.3432	0.031133
546.5685	0.029509
546.7938	0.028876
547.0192	0.030057
547.2445	0.030289
547.4699	0.031281
547.6953	0.032631
547.9206	0.031977
548.1460	0.033221
548.3715	0.034234
548.5969	0.037081
548.8223	0.036090
549.0478	0.035647
549.2732	0.033980
549.4987	0.032778
549.7242	0.030880
549.9496	0.029298
550.1751	0.030585
550.4007	0.030753
550.6262	0.030521
550.8517	0.030121
551.0773	0.030985
551.3028	0.028054
551.5284	0.029129
551.7540	0.026556
551.9796	0.028286
552.2052	0.031935
552.4308	0.033411
552.6564	0.034655
552.8820	0.032820
553.1077	0.035056
553.3333	0.031513
553.5590	0.033791
553.7847	0.034234
554.0104	0.035520
554.2361	0.034972
554.4618	0.031892
554.6875	0.031133
554.9132	0.031639
555.1390	0.030690
555.3648	0.031724
555.5905	0.031323
555.8163	0.033284
556.0421	0.034360
556.2679	0.036680
556.4937	0.036511
556.7195	0.034444
556.9454	0.031428
557.1712	0.034023
557.3971	0.033263
557.6230	0.032757
557.8488	0.031892
558.0747	0.032778
558.3006	0.034613
558.5266	0.034381
558.7525	0.030648
558.9784	0.027526
559.2044	0.029889
559.4303	0.028855
559.6563	0.027590
559.8823	0.030205
560.1083	0.032356
560.3343	0.030817
560.5603	0.035056
560.7863	0.036596
561.0124	0.036195
561.2384	0.039612
561.4645	0.038642
561.6905	0.037650
561.9166	0.035689
562.1427	0.037693
562.3688	0.038072
562.5949	0.035562
562.8211	0.036511
563.0472	0.035056
563.2733	0.035541
563.4995	0.035183
563.7257	0.038705
563.9519	0.037819
564.1781	0.037777
564.4043	0.038979
564.6305	0.039148
564.8567	0.040034
565.0829	0.040202
565.3092	0.039865
565.5355	0.040540
565.7617	0.039232
565.9880	0.039106
566.2143	0.039000
566.4406	0.040055
566.6669	0.039823
566.8932	0.040076
567.1196	0.041995
567.3459	0.044800
567.5723	0.048660
567.7987	0.050643
568.0250	0.052415
568.2514	0.051634
568.4778	0.053195
568.7043	0.056717
568.9307	0.060725
569.1571	0.065850
569.3836	0.066504
569.6100	0.071165
569.8365	0.078674
570.0630	0.084558
570.2895	0.091729
570.5160	0.095357
570.7425	0.095568
570.9690	0.096728
571.1956	0.101811
571.4221	0.106177
571.6487	0.111260
571.8752	0.110670
572.1018	0.115943
572.3284	0.120245
572.5550	0.118537
572.7816	0.113517
573.0082	0.101579
573.2349	0.101052
573.4615	0.103857
573.6882	0.119338
573.9149	0.126636
574.1415	0.131255
574.3682	0.135980
574.5949	0.139734
574.8216	0.146821
575.0484	0.146251
575.2751	0.146737
575.5018	0.148487
575.7286	0.145408
575.9554	0.140050
576.1821	0.129948
576.4089	0.127016
576.6357	0.133322
576.8626	0.138152
577.0894	0.147559
577.3162	0.149035
577.5431	0.152642
577.7699	0.156565
577.9968	0.197905
578.2237	0.206278
578.4505	0.192252
578.6774	0.179429
578.9044	0.167406
579.1313	0.161712
579.3582	0.149225
579.5851	0.150006
579.8121	0.158949
580.0391	0.162387
580.2660	0.162597
580.4930	0.164179
580.7200	0.160868
580.9470	0.153570
581.1741	0.159434
581.4011	0.189764
581.6281	0.230260
581.8552	0.252258
582.0822	0.252089
582.3093	0.248694
582.5364	0.233845
582.7635	0.215938
582.9906	0.199993
583.2177	0.180989
583.4449	0.169073
583.6720	0.155975
583.8991	0.146758
584.1263	0.141527
584.3535	0.145830
584.5807	0.144206
584.8079	0.151081
585.0351	0.156987
585.2623	0.170169
585.4895	0.180757
585.7167	0.178015
585.9440	0.176265
586.1713	0.171456
586.3985	0.164875
586.6258	0.150259
586.8531	0.146863
587.0804	0.148677
587.3077	0.158822
587.5350	0.162787
587.7624	0.170781
587.9897	0.168081
588.2171	0.163230
588.4445	0.152178
588.6718	0.146357
588.8992	0.148740
589.1266	0.142096
589.3540	0.131572
589.5815	0.121827
589.8089	0.118305
590.0363	0.119613
590.2638	0.117651
590.4913	0.111197
590.7187	0.107211
590.9462	0.104174
591.1737	0.099344
591.4012	0.094767
591.6288	0.092784
591.8563	0.095610
592.0838	0.098036
592.3114	0.091793
592.5389	0.097298
592.7665	0.110142
592.9941	0.132858
593.2217	0.147116
593.4493	0.145366
593.6769	0.151166
593.9046	0.144037
594.1322	0.143003
594.3598	0.129926
594.5875	0.122312
594.8152	0.124654
595.0429	0.131192
595.2705	0.140072
595.4983	0.139776
595.7260	0.137414
595.9537	0.131108
596.1814	0.126278
596.4092	0.113559
596.6369	0.111429
596.8647	0.100630
597.0925	0.101474
597.3203	0.107253
597.5481	0.108561
597.7759	0.107569
598.0037	0.106662
598.2315	0.104996
598.4594	0.094999
598.6872	0.098036
598.9151	0.112863
599.1430	0.124548
599.3709	0.134208
599.5988	0.132711
599.8267	0.125750
600.0546	0.127248
600.2825	0.131698
600.5105	0.129737
600.7384	0.129631
600.9664	0.129610
601.1944	0.132879
601.4223	0.131804
601.6503	0.131065
601.8783	0.122861
602.1064	0.121490
602.3344	0.118874
602.5624	0.114087
602.7905	0.117525
603.0185	0.119085
603.2466	0.122397
603.4747	0.125750
603.7028	0.134124
603.9309	0.131572
604.1590	0.127817
604.3871	0.124253
604.6152	0.120393
604.8434	0.116723
605.0715	0.108223
605.2997	0.106114
605.5279	0.111218
605.7561	0.113623
605.9843	0.119106
606.2125	0.127206
606.4407	0.122017
606.6689	0.114234
606.8972	0.110670
607.1254	0.109657
607.3537	0.109615
607.5819	0.114888
607.8102	0.115711
608.0385	0.115310
608.2668	0.109362
608.4951	0.103309
608.7235	0.099786
608.9518	0.100841
609.1801	0.100082
609.4085	0.094197
609.6369	0.094218
609.8653	0.092995
610.0936	0.097509
610.3220	0.105819
610.5505	0.109446
610.7789	0.103351
611.0073	0.100040
611.2357	0.097277
611.4642	0.097382
611.6927	0.097698
611.9211	0.097614
612.1496	0.095779
612.3781	0.093628
612.6066	0.090780
612.8351	0.092700
613.0637	0.088355
613.2922	0.091708
613.5208	0.088819
613.7493	0.088165
613.9779	0.091856
614.2065	0.089684
614.4351	0.092615
614.6637	0.089283
614.8923	0.089156
615.1209	0.088313
615.3495	0.088587
615.5782	0.088903
615.8068	0.093016
616.0355	0.091476
616.2642	0.087342
616.4929	0.085233
616.7216	0.079264
616.9503	0.078041
617.1790	0.076438
617.4077	0.074287
617.6365	0.073633
617.8652	0.076670
618.0940	0.077788
618.3227	0.077725
618.5515	0.075067
618.7803	0.072135
619.0091	0.065555
619.2379	0.064943
619.4667	0.062285
619.6956	0.058784
619.9244	0.063403
620.1533	0.066377
620.3821	0.068929
620.6110	0.067242
620.8399	0.064753
621.0688	0.061737
621.2977	0.055156
621.5266	0.051487
621.7556	0.053532
621.9845	0.053933
622.2135	0.055557
622.4424	0.056485
622.6714	0.060809
622.9004	0.058974
623.1294	0.061927
623.3584	0.061758
623.5874	0.064732
623.8164	0.065006
624.0454	0.063888
624.2745	0.061020
624.5035	0.061336
624.7326	0.061463
624.9617	0.062728
625.1908	0.063340
625.4199	0.059628
625.6490	0.057856
625.8781	0.058679
626.1072	0.054439
626.3364	0.050664
626.5655	0.053849
626.7947	0.049525
627.0238	0.049082
627.2530	0.049694
627.4822	0.050200
627.7114	0.049356
627.9406	0.047732
628.1698	0.048112
628.3991	0.046214
628.6283	0.044126
628.8576	0.041131
629.0868	0.040245
629.3161	0.041426
629.5454	0.042227
629.7747	0.044189
630.0040	0.043704
630.2333	0.042670
630.4626	0.042417
630.6920	0.043767
630.9213	0.041363
631.1507	0.038832
631.3801	0.040013
631.6094	0.039570
631.8388	0.038684
632.0682	0.038241
632.2976	0.036343
632.5271	0.036090
632.7565	0.034086
632.9859	0.034128
633.2154	0.032251
633.4448	0.031471
633.6743	0.030036
633.9038	0.030437
634.1333	0.033327
634.3628	0.031745
634.5923	0.029994
634.8218	0.029108
635.0514	0.029382
635.2809	0.030585
635.5105	0.028729
635.7400	0.029657
635.9696	0.028370
636.1992	0.030479
636.4288	0.032757
636.6584	0.032884
636.8880	0.031281
637.1177	0.031217
637.3473	0.031681
637.5770	0.029846
637.8066	0.029382
638.0363	0.028686
638.2660	0.028075
638.4957	0.031175
638.7254	0.032061
638.9551	0.032483
639.1848	0.028792
639.4145	0.030184
639.6443	0.029628
639.8740	0.029016
640.1038	0.026892
640.3336	0.026139
640.5633	0.028258
640.7931	0.026058
641.0229	0.026262
641.2528	0.025732
641.4826	0.024946
641.7124	0.023971
641.9423	0.024866
642.1721	0.024478
642.4020	0.022138
642.6319	0.021874
642.8617	0.020860
643.0916	0.021704
643.3216	0.021425
643.5515	0.023761
643.7814	0.023387
644.0113	0.020978
644.2413	0.019594
644.4712	0.019420
644.7012	0.020162
644.9312	0.019438
645.1612	0.020261
645.3912	0.018597
645.6212	0.018298
645.8512	0.019131
646.0812	0.018707
646.3113	0.019869
646.5413	0.018528
646.7714	0.018209
647.0015	0.018553
647.2316	0.018761
647.4616	0.017055
647.6918	0.017043
647.9219	0.018533
648.1520	0.018870
648.3821	0.021251
648.6123	0.021921
648.8424	0.022736
649.0726	0.024045
649.3028	0.024379
649.5329	0.024870
649.7631	0.024292
649.9933	0.024160
650.2236	0.021909
650.4538	0.021512
650.6840	0.022935
650.9143	0.020786
651.1445	0.020389
651.3748	0.020699
651.6051	0.019114
651.8354	0.021412
652.0657	0.023072
652.2960	0.023659
652.5263	0.022684
652.7566	0.023014
652.9870	0.023019
653.2173	0.020658
653.4477	0.021736
653.6780	0.023932
653.9084	0.023228
654.1388	0.023762
654.3692	0.023658
654.5996	0.024069
654.8300	0.025953
655.0605	0.027200
655.2909	0.042248
655.5213	0.108366
655.7518	0.334981
655.9823	0.699359
656.2128	0.908304
656.4433	0.977423
656.6738	0.958887
656.9043	0.924958
657.1348	0.774288
657.3653	0.617393
657.5959	0.503876
657.8264	0.415627
658.0570	0.367167
658.2875	0.335336
658.5181	0.303485
658.7487	0.273118
658.9793	0.260606
659.2099	0.244458
659.4406	0.197039
659.6712	0.136266
659.9018	0.081530
660.1325	0.046757
660.3632	0.030428
660.5938	0.024774
660.8245	0.020241
661.0552	0.017757
661.2859	0.018159
661.5166	0.018351
661.7474	0.017506
661.9781	0.016883
662.2088	0.017574
662.4396	0.016322
662.6704	0.017355
662.9011	0.017429
663.1319	0.016198
663.3627	0.014648
663.5935	0.016360
663.8243	0.014429
664.0552	0.016340
664.2860	0.015792
664.5168	0.016757
664.7477	0.015586
664.9786	0.016177
665.2094	0.017299
665.4403	0.017401
665.6712	0.017792
665.9021	0.018029
666.1330	0.015864
666.3640	0.017626
666.5949	0.015755
666.8259	0.015696
667.0568	0.014291
667.2878	0.014468
667.5188	0.015700
667.7497	0.015614
667.9807	0.015290
668.2117	0.017346
668.4428	0.016390
668.6738	0.014914
668.9048	0.014133
669.1359	0.015167
669.3669	0.014323
669.5980	0.014386
669.8291	0.015989
670.0602	0.014956
670.2913	0.014597
670.5224	0.015209
670.7535	0.017213
670.9846	0.015504
671.2157	0.015968
671.4469	0.017002
671.6781	0.018120
671.9092	0.022485
672.1404	0.021072
672.3716	0.023688
672.6028	0.024510
672.8340	0.028581
673.0652	0.023941
673.2964	0.024426
673.5277	0.023582
673.7589	0.023667
673.9902	0.022464
674.2214	0.020714
674.4527	0.022000
674.6840	0.020988
674.9153	0.019997
675.1466	0.020271
675.3779	0.019343
675.6093	0.019954
675.8406	0.019849
676.0719	0.019343
676.3033	0.019364
676.5347	0.020292
676.7661	0.016601
676.9974	0.017360
677.2288	0.017529
677.4602	0.015947
677.6917	0.017698
677.9231	0.021684
678.1545	0.021684
678.3860	0.022253
678.6174	0.019722
678.8489	0.022844
679.0804	0.022275
679.3119	0.022654
679.5434	0.023920
679.7749	0.025459
680.0064	0.028180
680.2379	0.024848
680.4694	0.026978
680.7010	0.024595
680.9325	0.026725
681.1641	0.023962
681.3957	0.024489
681.6273	0.024574
681.8589	0.025923
682.0905	0.025291
682.3221	0.024236
682.5537	0.022907
682.7854	0.022570
683.0170	0.021684
683.2487	0.020988
683.4803	0.021389
683.7120	0.021768
683.9437	0.020967
684.1754	0.024152
684.4071	0.023561
684.6388	0.024194
684.8705	0.026746
685.1023	0.027737
685.3340	0.030669
685.5658	0.031302
685.7975	0.032124
686.0293	0.033791
686.2611	0.035520
686.4929	0.032799
686.7247	0.031724
686.9565	0.029846
687.1883	0.032272
687.4202	0.033116
687.6520	0.031133
687.8838	0.031660
688.1157	0.030310
688.3476	0.028159
688.5795	0.029467
688.8114	0.026261
689.0433	0.026830
689.2752	0.026915
689.5071	0.027526
689.7390	0.025586
689.9710	0.026725
690.2029	0.025565
690.4349	0.025396
690.6669	0.024194
690.8988	0.026409
691.1308	0.023814
691.3628	0.027421
691.5948	0.028686
691.8269	0.026978
692.0589	0.028581
692.2909	0.027822
692.5230	0.027547
692.7550	0.027062
692.9871	0.027695
693.2192	0.027252
693.4513	0.029572
693.6834	0.029045
693.9155	0.029593
694.1476	0.026851
694.3797	0.026577
694.6119	0.024974
694.8440	0.024405
695.0762	0.025713
695.3083	0.025607
695.5405	0.025227
695.7727	0.022127
696.0049	0.022717
696.2371	0.020988
696.4693	0.020334
696.7016	0.024025
696.9338	0.025459
697.1660	0.029382
697.3983	0.028982
697.6306	0.029699
697.8628	0.027906
698.0951	0.026219
698.3274	0.027484
698.5597	0.027083
698.7920	0.026999
699.0243	0.027653
699.2567	0.025544
699.4890	0.026936
699.7214	0.023793
699.9537	0.024869
700.1861	0.024658
700.4185	0.024742
700.6509	0.023371
700.8833	0.023266
701.1157	0.023688
701.3481	0.020376
701.5806	0.019933
701.8130	0.020039
702.0454	0.020819
702.2779	0.020967
702.5104	0.022317
702.7429	0.021347
702.9753	0.022064
703.2078	0.022359
703.4403	0.020039
703.6729	0.022739
703.9054	0.020355
704.1379	0.019976
704.3705	0.020018
704.6030	0.019280
704.8356	0.020587
705.0682	0.017951
705.3008	0.016263
705.5334	0.018204
705.7660	0.016622
705.9986	0.017276
706.2312	0.018056
706.4638	0.020714
706.6965	0.024363
706.9291	0.023709
707.1618	0.025291
707.3945	0.025734
707.6272	0.029108
707.8599	0.028391
708.0926	0.029551
708.3253	0.026809
708.5580	0.028518
708.7907	0.027337
709.0235	0.026514
709.2562	0.025227
709.4890	0.023646
709.7217	0.025607
709.9545	0.025101
710.1873	0.025016
710.4201	0.024342
710.6529	0.024194
710.8857	0.026683
711.1186	0.027864
711.3514	0.021368
711.5842	0.022675
711.8171	0.023477
712.0500	0.022485
712.2828	0.020123
712.5157	0.021115
712.7486	0.019680
712.9815	0.021579
713.2144	0.021579
713.4474	0.023055
713.6803	0.024637
713.9132	0.024320
714.1462	0.024278
714.3791	0.025417
714.6121	0.025291
714.8451	0.025502
715.0781	0.025797
715.3111	0.026619
715.5441	0.025291
715.7771	0.024447
716.0102	0.023435
716.2432	0.022043
716.4762	0.020482
716.7093	0.020629
716.9424	0.020735
717.1754	0.021157
717.4085	0.019976
717.6416	0.020861
717.8747	0.020714
718.1078	0.019512
718.3410	0.021072
718.5741	0.019659
718.8072	0.020123
719.0404	0.019090
719.2736	0.021347
719.5067	0.022085
719.7399	0.021325
719.9731	0.024447
720.2063	0.022317
720.4395	0.019533
720.6727	0.021072
720.9060	0.020039
721.1392	0.019680
721.3725	0.020545
721.6057	0.020123
721.8390	0.023540
722.0723	0.023456
722.3055	0.023582
722.5388	0.023371
722.7721	0.020672
723.0055	0.019659
723.2388	0.020018
723.4721	0.021115
723.7055	0.020967
723.9388	0.020292
724.1722	0.022401
724.4056	0.020566
724.6389	0.020946
724.8723	0.019490
725.1057	0.020904
725.3391	0.024384
725.5726	0.023814
725.8060	0.023477
726.0394	0.024342
726.2729	0.025755
726.5063	0.024194
726.7398	0.026514
726.9733	0.025502
727.2068	0.023983
727.4403	0.024320
727.6738	0.023667
727.9073	0.025881
728.1408	0.023392
728.3743	0.026071
728.6079	0.024194
728.8414	0.027526
729.0750	0.024299
729.3086	0.024552
729.5421	0.027801
729.7757	0.027611
730.0093	0.024679
730.2429	0.026430
730.4766	0.025354
730.7102	0.029741
730.9438	0.028412
731.1775	0.032863
731.4111	0.033010
731.6448	0.030648
731.8785	0.032884
732.1122	0.030964
732.3458	0.030289
732.5795	0.029741
732.8133	0.029614
733.0470	0.029825
733.2807	0.030627
733.5145	0.031070
733.7482	0.031639
733.9820	0.032757
734.2157	0.034339
734.4495	0.037545
734.6833	0.040329
734.9171	0.037714
735.1509	0.034381
735.3847	0.034592
735.6185	0.035921
735.8524	0.036153
736.0862	0.034908
736.3201	0.035731
736.5539	0.034824
736.7878	0.035942
737.0217	0.036406
737.2556	0.035942
737.4895	0.036216
737.7234	0.036216
737.9573	0.033938
738.1912	0.032757
738.4252	0.031935
738.6591	0.030859
738.8931	0.030585
739.1271	0.032588
739.3610	0.033495
739.5950	0.034972
739.8290	0.035478
740.0630	0.032567
740.2970	0.031492
740.5310	0.032040
740.7651	0.031681
740.9991	0.028623
741.2332	0.028792
741.4672	0.025691
741.7013	0.024679
741.9354	0.024384
742.1695	0.025396
742.4036	0.026894
742.6377	0.025248
742.8718	0.025206
743.1059	0.026915
743.3400	0.024932
743.5742	0.025565
743.8083	0.022485
744.0425	0.021157
744.2767	0.022739
744.5108	0.021072
744.7450	0.022570
744.9792	0.020735
745.2134	0.021853
745.4477	0.020651
745.6819	0.022275
745.9161	0.021157
746.1504	0.022717
746.3846	0.020397
746.6189	0.020313
746.8532	0.022043
747.0874	0.021072
747.3217	0.022612
747.5560	0.022507
747.7903	0.025164
748.0247	0.021410
748.2590	0.022928
748.4933	0.023941
748.7277	0.019554
748.9620	0.023034
749.1964	0.021979
749.4308	0.023519
749.6652	0.024067
749.8995	0.025185
750.1339	0.027843
750.3684	0.027653
750.6028	0.029298
750.8372	0.029699
751.0717	0.028834
751.3061	0.029382
751.5406	0.028982
751.7750	0.028792
752.0095	0.030690
752.2440	0.029467
752.4785	0.030732
752.7130	0.029910
752.9475	0.027801
753.1820	0.026556
753.4166	0.025016
753.6511	0.029066
753.8856	0.030100
754.1202	0.032209
754.3548	0.031787
754.5894	0.030732
754.8239	0.027758
755.0585	0.029762
755.2931	0.031091
755.5278	0.032019
755.7624	0.031196
755.9970	0.032377
756.2317	0.032841
756.4663	0.034255
756.7010	0.037271
756.9356	0.038832
757.1703	0.039317
757.4050	0.040540
757.6397	0.042438
757.8744	0.044568
758.1091	0.047268
758.3438	0.044210
758.5786	0.041658
758.8133	0.041890
759.0481	0.039928
759.2828	0.038726
759.5176	0.043050
759.7524	0.043219
759.9872	0.043936
760.2220	0.044273
760.4568	0.044779
760.6916	0.045243
760.9264	0.047732
761.1613	0.046846
761.3961	0.045518
761.6310	0.041911
761.8658	0.040561
762.1007	0.038621
762.3356	0.035942
762.5705	0.036343
762.8054	0.036343
763.0403	0.039042
763.2752	0.035541
763.5101	0.036385
763.7450	0.037039
763.9800	0.037207
764.2149	0.036933
764.4499	0.039296
764.6849	0.040245
764.9198	0.043219
765.1548	0.043556
765.3898	0.042860
765.6248	0.042333
765.8599	0.042712
766.0949	0.038578
766.3299	0.035921
766.5650	0.034086
766.8000	0.032230
767.0351	0.031133
767.2701	0.029762
767.5052	0.028665
767.7403	0.029910
767.9754	0.029530
768.2105	0.030100
768.4456	0.030606
768.6808	0.034044
768.9159	0.034866
769.1510	0.036870
769.3862	0.036132
769.6214	0.035520
769.8565	0.032757
770.0917	0.034466
770.3269	0.032673
770.5621	0.032188
770.7973	0.035140
771.0325	0.034360
771.2677	0.037102
771.5030	0.036237
771.7382	0.035035
771.9735	0.035246
772.2087	0.030142
772.4440	0.030711
772.6793	0.030711
772.9146	0.029530
773.1499	0.031745
773.3852	0.027716
773.6205	0.029087
773.8558	0.028982
774.0911	0.029003
774.3265	0.026451
774.5618	0.027569
774.7972	0.023013
775.0326	0.022296
775.2679	0.020714
775.5033	0.021958
775.7387	0.022169
775.9741	0.020608
776.2095	0.020735
776.4450	0.020229
776.6804	0.019258
776.9158	0.018816
777.1513	0.019849
777.3868	0.019132
777.6222	0.016095
777.8577	0.018499
778.0932	0.017529
778.3287	0.018837
778.5642	0.019638
778.7997	0.020819
779.0352	0.020229
779.2707	0.022464
779.5063	0.023540
779.7418	0.025101
779.9774	0.023519
780.2130	0.022359
780.4485	0.022760
780.6841	0.020608
780.9197	0.022338
781.1553	0.023414
781.3909	0.025270
781.6265	0.026092
781.8622	0.025902
782.0978	0.028265
782.3335	0.024637
782.5691	0.025839
782.8048	0.025945
783.0405	0.024700
783.2761	0.025502
783.5118	0.024869
783.7475	0.026493
783.9832	0.024278
784.2190	0.025755
784.4547	0.023941
784.6904	0.023118
784.9262	0.019976
785.1619	0.020081
785.3977	0.022064
785.6335	0.021705
785.8692	0.023076
786.1050	0.022021
786.3408	0.021136
786.5766	0.021874
786.8124	0.021347
787.0483	0.020693
787.2841	0.020292
787.5199	0.019343
787.7558	0.022823
787.9917	0.022549
788.2275	0.024637
788.4634	0.022064
788.6993	0.022021
788.9352	0.025523
789.1711	0.022443
789.4070	0.023983
789.6429	0.022696
789.8789	0.020819
790.1148	0.020418
790.3507	0.020524
790.5867	0.018921
790.8227	0.019490
791.0586	0.018710
791.2946	0.017550
791.5306	0.019111
791.7666	0.016938
792.0026	0.019111
792.2387	0.018900
792.4747	0.017402
792.7107	0.018246
792.9468	0.016221
793.1828	0.016896
793.4189	0.015736
793.6550	0.016179
793.8910	0.015082
794.1271	0.019954
794.3632	0.021726
794.5993	0.025248
794.8355	0.023624
795.0716	0.024110
795.3077	0.023350
795.5439	0.024025
795.7800	0.024088
796.0162	0.022253
796.2523	0.019765
796.4885	0.019132
796.7247	0.018246
796.9609	0.014344
797.1971	0.017107
797.4333	0.016306
797.6695	0.016959
797.9058	0.018120
798.1420	0.017339
798.3783	0.017445
798.6145	0.018014
798.8508	0.017297
799.0871	0.017824
799.3233	0.016791
799.5596	0.018225
799.7959	0.016601
800.0322	0.017592
800.2686	0.014745
800.5049	0.013880
800.7412	0.015884
800.9776	0.015694
801.2139	0.013015
801.4503	0.015188
801.6867	0.013964
801.9230	0.013775
802.1594	0.011687
802.3958	0.015167
802.6322	0.011138
802.8686	0.013922
803.1051	0.012467
803.3415	0.013226
803.5779	0.012804
803.8144	0.014808
804.0508	0.014766
804.2873	0.014049
804.5238	0.013226
804.7603	0.014302
804.9968	0.013290
805.2333	0.015167
805.4698	0.013395
805.7063	0.013058
805.9428	0.014660
806.1794	0.014239
806.4159	0.015905
806.6525	0.017909
806.8890	0.017550
807.1256	0.019406
807.3622	0.017634
807.5988	0.018816
807.8354	0.017592
808.0720	0.018014
808.3086	0.017698
808.5452	0.016749
808.7818	0.015567
809.0185	0.018098
809.2551	0.016770
809.4918	0.016474
809.7284	0.015209
809.9651	0.016791
810.2018	0.015799
810.4385	0.014428
810.6752	0.015378
810.9119	0.015989
811.1486	0.013986
811.3853	0.013479
811.6221	0.013606
811.8588	0.012636
812.0956	0.011876
812.3323	0.011497
812.5691	0.011644
812.8059	0.011075
813.0427	0.012509
813.2795	0.012045
813.5163	0.011602
813.7531	0.013184
813.9899	0.013732
814.2267	0.014787
814.4636	0.012214
814.7004	0.014892
814.9373	0.013163
815.1742	0.012361
815.4110	0.013163
815.6479	0.011391
815.8848	0.009641
816.1217	0.009641
816.3586	0.010653
816.5955	0.009577
816.8324	0.010716
817.0694	0.011265
817.3063	0.010400
817.5433	0.010548
817.7802	0.011623
818.0172	0.012298
818.2542	0.011033
818.4912	0.010189
818.7282	0.012256
818.9652	0.009999
819.2022	0.009598
819.4392	0.009598
819.6762	0.009198
819.9133	0.008270
820.1503	0.009324
820.3874	0.010273
820.6244	0.011096
820.8615	0.009809
821.0986	0.014007
821.3357	0.012509
821.5727	0.011265
821.8099	0.010252
822.0470	0.011075
822.2841	0.009641
822.5212	0.011961
822.7584	0.009134
822.9955	0.010020
823.2327	0.008797
823.4698	0.008017
823.7070	0.008881
823.9442	0.007531
824.1814	0.007721
824.4186	0.008460
824.6558	0.008902
824.8930	0.010020
825.1302	0.008059
825.3675	0.008776
825.6047	0.009598
825.8419	0.009071
826.0792	0.009219
826.3165	0.009113
826.5537	0.008924
826.7910	0.008924
827.0283	0.012108
827.2656	0.008755
827.5029	0.009029
827.7402	0.009514
827.9776	0.009282
828.2149	0.010105
828.4522	0.008396
828.6896	0.010041
828.9270	0.010105
829.1643	0.010210
829.4017	0.007658
829.6391	0.010189
829.8765	0.009852
830.1139	0.009345
830.3513	0.009430
830.5887	0.010653
830.8261	0.009556
831.0636	0.007194
831.3010	0.006414
831.5385	0.007595
831.7759	0.005570
832.0134	0.004979
832.2509	0.006266
832.4884	0.005633
832.7259	0.005000
832.9634	0.006857
833.2009	0.007700
833.4384	0.008333
833.6759	0.006561
833.9135	0.007110
834.1510	0.007785
834.3886	0.007827
834.6261	0.008797
834.8637	0.007932
835.1013	0.008502
835.3389	0.008038
835.5765	0.006435
835.8141	0.008291
836.0517	0.007932
836.2893	0.007447
836.5269	0.006582
836.7646	0.006646
837.0022	0.005254
837.2399	0.005907
837.4775	0.005697
837.7152	0.005802
837.9529	0.005422
838.1906	0.005739
838.4283	0.003904
838.6660	0.006435
838.9037	0.005106
839.1414	0.005127
839.3791	0.005971
839.6169	0.005148
839.8546	0.005465
840.0924	0.006161
840.3302	0.005570
840.5679	0.006899
840.8057	0.005064
841.0435	0.006582
841.2813	0.006013
841.5191	0.005443
841.7569	0.004895
841.9947	0.003503
842.2326	0.004579
842.4704	0.005992
842.7082	0.005465
842.9461	0.003524
843.1840	0.005992
843.4218	0.004916
843.6597	0.003461
843.8976	0.003229
844.1355	0.003988
844.3734	0.003503
844.6113	0.004199
844.8492	0.003461
845.0872	0.004009
845.3251	0.006076
845.5631	0.005739
845.8010	0.003988
846.0390	0.005507
846.2770	0.004115
846.5149	0.004389
846.7529	0.004642
846.9909	0.002912
847.2289	0.003756
847.4669	0.003144
847.7050	0.004916
847.9430	0.003376
848.1810	0.004051
848.4191	0.004747
848.6571	0.002828
848.8952	0.004030
849.1333	0.002955
849.3713	0.003798
849.6094	0.004220
849.8475	0.003334
850.0856	0.004579
850.3237	0.002807
850.5619	0.003946
850.8000	0.003482
851.0381	0.002617
851.2763	0.003819
851.5144	0.004452
851.7526	0.002385
851.9908	0.004579
852.2289	0.003777
852.4671	0.005190
852.7053	0.006287
852.9435	0.008122
853.1817	0.006329
853.4200	0.008692
853.6582	0.009830
853.8964	0.010864
854.1347	0.011033
854.3729	0.010991
854.6112	0.010294
854.8495	0.011602
855.0877	0.010632
855.3260	0.010505
855.5643	0.009873
855.8026	0.011644
856.0409	0.008839
856.2792	0.010400
856.5176	0.007405
856.7559	0.009556
856.9942	0.009936
857.2326	0.008734
857.4710	0.009388
857.7093	0.007236
857.9477	0.008692
858.1861	0.008628
858.4245	0.005781
858.6629	0.006941
858.9013	0.006393
859.1397	0.007405
859.3781	0.006646
859.6166	0.006498
859.8550	0.007363
860.0935	0.006287
860.3319	0.006266
860.5704	0.006266
860.8089	0.005422
861.0473	0.005929
861.2858	0.004705
861.5243	0.005549
861.7628	0.005254
862.0013	0.005338
862.2399	0.005317
862.4784	0.004178
862.7169	0.004790
862.9555	0.004579
863.1940	0.003545
863.4326	0.003946
863.6712	0.005043
863.9098	0.004937
864.1483	0.003144
864.3869	0.005000
864.6255	0.003039
864.8642	0.006603
865.1028	0.004473
865.3414	0.005380
865.5800	0.003166
865.8187	0.004579
866.0573	0.004389
866.2960	0.002491
866.5347	0.002933
866.7733	0.003693
867.0120	0.003672
867.2507	0.004811
867.4894	0.005000
867.7281	0.004937
867.9669	0.004304
868.2056	0.004283
868.4443	0.003292
868.6831	0.003946
868.9218	0.003144
869.1606	0.004304
869.3993	0.003756
869.6381	0.005106
869.8769	0.004389
870.1157	0.003229
870.3545	0.004515
870.5933	0.004494
870.8321	0.003756
871.0709	0.005190
871.3097	0.003777
871.5486	0.004136
871.7874	0.003524
872.0263	0.004747
872.2651	0.003672
872.5040	0.003714
872.7429	0.003419
872.9818	0.003756
873.2207	0.002680
873.4596	0.001605
873.6985	0.002427
873.9374	0.003566
874.1763	0.004600
874.4153	0.004220
874.6542	0.003144
874.8932	0.004431
875.1321	0.003524
875.3711	0.003798
875.6101	0.004958
875.8491	0.004115
876.0880	0.004094
876.3270	0.001773
876.5661	0.002701
876.8051	0.004241
877.0441	0.004642
877.2831	0.005022
877.5222	0.003946
877.7612	0.004853
878.0003	0.005549
878.2393	0.004199
878.4784	0.006477
878.7175	0.004009
878.9566	0.006814
879.1957	0.004283
879.4348	0.005907
879.6739	0.004199
879.9130	0.005190
880.1521	0.006013
880.3913	0.007004
880.6304	0.006308
880.8696	0.005443
881.1087	0.006350
881.3479	0.007131
881.5871	0.007110
881.8262	0.004684
882.0654	0.004452
882.3046	0.005654
882.5438	0.004304
882.7831	0.005106
883.0223	0.004304
883.2615	0.005465
883.5007	0.004811
883.7400	0.005971
883.9792	0.003524
884.2185	0.003693
884.4578	0.004452
884.6971	0.005169
884.9363	0.003735
885.1756	0.003904
885.4149	0.004072
885.6542	0.003798
885.8936	0.005591
886.1329	0.004494
886.3722	0.004979
886.6116	0.004726
886.8509	0.004895
887.0903	0.005443
887.3296	0.003756
887.5690	0.004832
887.8084	0.002659
888.0478	0.004579
888.2872	0.004515
888.5266	0.004579
888.7660	0.004473
889.0054	0.005549
889.2448	0.004642
889.4843	0.002723
889.7237	0.002723
889.9632	0.003482
890.2026	0.002723
890.4421	0.002596
890.6816	0.002111
890.9211	0.003524
891.1606	0.003651
891.4001	0.003102
891.6396	0.003587
891.8791	0.004600
892.1186	0.004536
892.3581	0.004579
892.5977	0.003798
892.8372	0.004347
893.0768	0.003862
893.3163	0.004262
893.5559	0.003018
893.7955	0.004368
894.0351	0.003271
894.2747	0.004473
894.5143	0.004642
894.7539	0.001563
894.9935	0.003587
895.2331	0.002997
895.4727	0.003904
895.7124	0.004094
895.9520	0.002891
896.1917	0.005211
896.4314	0.003355
896.6710	0.003777
896.9107	0.004051
897.1504	0.003630
897.3901	0.003355
897.6298	0.002933
897.8695	0.003440
898.1092	0.004157
898.3489	0.003566
898.5887	0.003503
898.8284	0.003461
899.0682	0.004283
899.3079	0.002849
899.5477	0.003840
899.7875	0.002807
900.0272	0.003524
900.2670	0.004262
900.5068	0.003630
900.7466	0.002237
900.9864	0.004705
901.2263	0.003777
901.4661	0.004368
901.7059	0.003440
901.9458	0.003967
902.1856	0.003840
902.4255	0.003693
902.6654	0.003798
902.9052	0.003461
903.1451	0.002216
903.3850	0.004115
903.6249	0.003735
903.8648	0.002933
904.1047	0.002659
904.3446	0.002807
904.5846	0.003503
904.8245	0.002933
905.0644	0.003608
905.3044	0.004009
905.5444	0.004051
905.7843	0.005000
906.0243	0.004494
906.2643	0.003271
906.5043	0.004684
906.7443	0.003630
906.9843	0.003524
907.2243	0.004431
907.4643	0.003018
907.7043	0.002259
907.9444	0.003123
908.1844	0.003271
908.4245	0.003630
908.6645	0.002533
908.9046	0.003545
909.1447	0.002870
909.3847	0.003334
909.6248	0.002638
909.8649	0.002427
910.1050	0.002976
910.3452	0.001773
910.5853	0.002195
910.8254	0.002385
911.0655	0.001668
911.3057	0.001499
911.5458	0.003355
911.7860	0.001900
912.0262	0.002448
912.2663	0.002976
912.5065	0.002111
912.7467	0.003334
912.9869	0.002870
913.2271	0.002111
913.4673	0.002701
913.7075	0.002448
913.9478	0.001900
914.1880	0.003545
914.4283	0.003587
914.6685	0.002280
914.9088	0.004241
915.1490	0.001837
915.3893	0.002153
915.6296	0.003250
915.8699	0.002976
916.1102	0.001457
916.3505	0.003440
916.5908	0.000318
916.8311	0.001752
917.0714	0.001942
917.3118	0.003440
917.5521	0.002744
917.7925	0.003693
918.0328	0.003419
918.2732	0.004304
918.5136	0.002933
918.7539	0.003967
918.9943	0.002870
919.2347	0.003988
919.4751	0.004157
919.7155	0.003651
919.9560	0.002195
920.1964	0.003524
920.4368	0.001099
920.6773	0.001689
920.9177	0.003060
921.1582	0.003123
921.3986	0.001731
921.6391	0.003714
921.8796	0.001942
922.1201	0.000993
922.3606	0.001056
922.6011	0.002027
922.8416	0.003250
923.0821	0.002828
923.3226	0.002933
923.5631	0.003524
923.8037	0.001837
924.0442	0.002005
924.2848	0.001668
924.5254	0.001689
924.7659	0.001689
925.0065	0.002259
925.2471	0.002280
925.4877	0.002575
925.7283	0.002976
925.9689	0.002491
926.2095	0.000740
926.4501	0.002132
926.6908	0.001436
926.9314	0.002512
927.1720	0.000592
927.4127	0.001647
927.6533	0.002427
927.8940	0.001900
928.1347	0.002701
928.3754	0.002533
928.6161	0.001584
928.8568	0.000888
929.0975	0.000002
929.3382	0.001415
929.5789	0.001267
929.8196	0.001457
930.0604	0.000508
930.3011	0.001288
930.5419	0.003208
930.7826	0.002174
931.0234	0.000487
931.2642	0.001921
931.5049	0.000993
931.7457	0.001647
931.9865	0.002596
932.2273	0.001942
932.4681	0.001541
932.7089	0.000592
932.9498	0.001984
933.1906	0.001162
933.4314	0.000276
933.6723	0.002237
933.9131	0.001394
934.1540	0.001014
934.3949	0.001141
934.6358	0.000930
934.8766	0.002090
935.1175	0.002680
935.3584	0.000740
935.5993	0.001331
935.8403	0.000740
936.0812	0.000993
936.3221	0.002216
936.5630	0.001816
936.8040	0.001541
937.0449	0.001035
937.2859	0.002701
937.5269	0.001710
937.7678	0.000656
938.0088	0.000972
938.2498	0.001900
938.4908	0.001689
938.7318	0.001689
938.9728	0.000930
939.2138	0.000677
939.4549	0.001056
939.6959	0.002195
939.9369	0.001077
940.1780	0.001605
940.4190	0.000128
940.6601	0.002027
940.9012	-0.000083
941.1422	0.001162
941.3833	0.001415
941.6244	0.000824
941.8655	0.000149
942.1066	0.002069
942.3477	0.003292
942.5889	0.002090
942.8300	0.002111
943.0711	0.001394
943.3123	0.000065
943.5534	0.001246
943.7946	-0.001327
944.0357	0.001900
944.2769	0.000592
944.5181	0.000318
944.7593	0.001225
945.0005	0.001478
945.2417	-0.001032
945.4829	0.001520
945.7241	0.002364
945.9653	0.000297
946.2066	0.001710
946.4478	0.002174
946.6891	0.000782
946.9303	0.000318
947.1716	0.001309
947.4128	0.000381
947.6541	0.001710
947.8954	0.001584
948.1367	0.000002
948.3780	0.000951
948.6193	-0.000336
948.8606	0.000424
949.1019	0.000761
949.3433	-0.000188
949.5846	0.001120
949.8259	0.001331
950.0673	0.000065
950.3086	0.002048
950.5500	0.000065
950.7914	0.000867
951.0327	0.001225
951.2741	0.000909
951.5155	0.000698
951.7569	0.003398
951.9983	0.000466
952.2398	0.001457
952.4812	0.000213
952.7226	0.000360
952.9640	0.000930
953.2055	0.002027
953.4469	0.001352
953.6884	0.000170
953.9299	0.000782
954.1713	0.001035
954.4128	0.000761
954.6543	0.001921
954.8958	0.000951
955.1373	0.001373
955.3788	0.001689
955.6203	0.001267
955.8618	0.000803
956.1034	0.000635
956.3449	0.000909
956.5865	0.000424
956.8280	-0.000357
957.0696	0.001246
957.3111	0.001035
957.5527	0.000466
957.7943	0.001963
958.0359	0.000318
958.2775	0.000782
958.5191	0.001795
958.7607	0.001499
959.0023	0.001035
959.2439	-0.000062
959.4856	0.001499
959.7272	-0.000526
959.9688	0.002048
960.2105	-0.001137
960.4522	-0.000547
960.6938	0.001541
960.9355	0.001415
961.1772	-0.000209
961.4189	0.000592
961.6606	0.000698
961.9023	0.000466
962.1440	-0.000062
962.3857	-0.000736
962.6274	0.001563
962.8692	-0.000294
963.1109	0.000339
963.3527	0.000803
963.5944	-0.000968
963.8362	0.000761
964.0779	0.000487
964.3197	0.000192
964.5615	0.000318
964.8033	0.000613
965.0451	-0.000315
965.2869	0.001584
965.5287	-0.000167
965.7705	0.000023
966.0123	0.001035
966.2542	0.000656
966.4960	-0.000146
966.7379	0.000192
966.9797	0.000360
967.2216	0.000149
967.4634	-0.000504
967.7053	-0.000062
967.9472	0.000023
968.1891	0.001984
968.4310	0.000993
968.6729	-0.000631
968.9148	-0.000736
969.1567	0.000972
969.3987	-0.000209
969.6406	-0.000251
969.8825	0.000065
970.1245	0.000845
970.3664	0.000170
970.6084	0.001204
970.8504	-0.000357
971.0923	0.001204
971.3343	0.000002
971.5763	0.000867
971.8183	0.000466
972.0603	0.000993
972.3023	0.000487
972.5443	-0.000040
972.7864	0.000297
973.0284	0.000192
973.2704	0.000993
973.5125	-0.000019
973.7545	-0.000188
973.9966	-0.000040
974.2387	0.001035
974.4807	0.000402
974.7228	-0.000526
974.9649	0.001204
975.2070	0.001309
975.4491	0.000297
975.6912	-0.000779
975.9333	0.000360
976.1755	0.000909
976.4176	0.001035
976.6597	-0.000104
976.9019	-0.000230
977.1440	0.000529
977.3862	0.001246
977.6283	0.001183
977.8705	-0.000905
978.1127	0.001183
978.3549	-0.000104
978.5971	0.000508
978.8393	0.001035
979.0815	0.000529
979.3237	-0.000167
979.5659	0.000149
979.8082	0.000656
980.0504	0.000023
980.2926	0.000466
980.5349	0.000360
980.7771	0.000803
981.0194	-0.000378
981.2617	0.000487
981.5040	0.001710
981.7462	-0.001411
981.9885	-0.001432
982.2308	0.000508
982.4731	0.000255
982.7155	0.000339
982.9578	0.000276
983.2001	0.001415
983.4424	0.000782
983.6848	0.000002
983.9271	0.001246
984.1695	0.000381
984.4118	0.000487
984.6542	0.000234
984.8966	0.000635
985.1390	0.000002
985.3814	-0.000694
985.6238	0.000529
985.8662	-0.000441
986.1086	-0.000019
986.3510	0.000065
986.5934	0.000761
986.8358	0.001373
987.0783	0.001204
987.3207	-0.000104
987.5632	0.000086
987.8056	0.000002
988.0481	-0.000019
988.2906	0.000550
988.5331	0.000529
988.7756	0.000149
989.0180	0.000002
989.2605	0.000297
989.5031	0.000719
989.7456	0.000065
989.9881	0.000107
990.2306	0.000445
990.4732	-0.000104
990.7157	-0.000315
990.9582	0.000824
991.2008	-0.001812
991.4434	0.000656
991.6859	-0.000420
991.9285	0.000698
992.1711	0.000677
992.4137	0.000276
992.6563	-0.001222
992.8989	0.001120
993.1415	0.000487
993.3841	0.000888
993.6267	-0.000062
993.8694	0.000635
994.1120	0.000192
994.3547	-0.000146
994.5973	-0.000188
994.8400	0.001984
995.0826	0.000782
995.3253	0.000445
995.5680	0.000002
995.8107	-0.001243
996.0534	-0.000800
996.2961	0.000761
996.5388	-0.000272
996.7815	-0.000251
997.0242	-0.000209
997.2670	0.000234
997.5097	0.000466
997.7524	0.000424
997.9952	-0.000504
998.2379	0.001204
998.4807	-0.000842
998.7235	0.001352
998.9662	0.000571
999.2090	0.000424
999.4518	-0.000863
999.6946	0.000677
999.9374	-0.000336
1000.1802	0.001331
1000.4230	0.000845
1000.6659	-0.000568
1000.9087	-0.000104
1001.1515	-0.000926
1001.3944	-0.000441
1001.6372	0.000381
1001.8801	0.001267
1002.1230	0.000044
1002.3658	0.000318
1002.6087	0.000339
1002.8516	-0.000040
1003.0945	-0.001011
1003.3374	0.000635
1003.5803	0.001120
1003.8232	0.000993
1004.0661	-0.000336
1004.3091	0.000761
1004.5520	0.000128
1004.7949	-0.000230
1005.0379	-0.000146
1005.2808	0.001141
1005.5238	-0.000483
1005.7667	0.000656
1006.0097	-0.000758
1006.2527	0.000656
1006.4957	0.000740
1006.7387	-0.000146
1006.9817	-0.000526
1007.2247	0.000909
1007.4677	-0.000083
1007.7107	0.000740
1007.9538	0.000192
1008.1968	0.001415
1008.4398	-0.000526
1008.6829	0.001499
1008.9259	0.000571
1009.1690	-0.000019
1009.4121	-0.000589
1009.6551	0.002005
1009.8982	-0.000083
1010.1413	0.000803
1010.3844	0.000002
1010.6275	0.000550
1010.8706	0.000170
1011.1137	0.000044
1011.3568	0.000993
1011.6000	-0.001053
1011.8431	0.000719
1012.0863	0.000592
1012.3294	0.000909
1012.5726	0.000845
1012.8157	0.001394
1013.0589	0.001035
1013.3021	0.000339
1013.5452	0.000993
1013.7884	0.001014
1014.0316	0.000381
1014.2748	0.000508
1014.5180	0.000993
1014.7613	-0.000462
1015.0045	0.000213
1015.2477	0.000635
1015.4909	0.000065
1015.7342	-0.000083
1015.9774	-0.000547
1016.2207	-0.000779
1016.4640	0.001014
1016.7072	0.000170
1016.9505	0.001267
1017.1938	0.000571
1017.4371	0.002048
1017.6804	0.000656
1017.9237	0.000824
1018.1670	0.000613
1018.4103	0.000402
1018.6536	-0.000483
1018.8969	-0.000821
1019.1403	-0.000083
1019.3836	0.000424
1019.6270	-0.000821
1019.8703	0.001499
1020.1137	0.000719
1020.3571	-0.000779
1020.6004	0.000803
1020.8438	0.000065
1021.0872	0.000508
1021.3306	0.000677
1021.5740	-0.000420
1021.8174	0.000213
1022.0608	-0.000715
1022.3042	-0.001664
1022.5477	-0.000336
1022.7911	-0.000146
1023.0345	-0.000019
