# Wavelength (nm)	Intensity (a.u.)
197.7802	0.001170
197.9842	0.000854
198.1882	0.000074
198.3922	0.000474
198.5963	0.000264
198.8003	0.001528
199.0044	0.000770
199.2085	-0.000517
199.4126	-0.000285
199.6168	0.000158
199.8209	0.001065
200.0251	0.001191
200.2292	0.001086
200.4334	0.000116
200.6376	0.000980
200.8418	0.000369
201.0461	-0.000158
201.2503	-0.000116
201.4546	0.001676
201.6589	-0.000053
201.8631	0.000517
202.0674	0.000158
202.2718	0.001360
202.4761	0.000622
202.6805	0.000875
202.8848	0.000474
203.0892	-0.000200
203.2936	0.001571
203.4980	0.000727
203.7024	0.000074
203.9069	0.002013
204.1113	0.001086
204.3158	0.000474
204.5203	-0.000706
204.7248	0.000748
204.9293	0.000706
205.1338	0.000011
205.3384	0.000938
205.5430	0.000833
205.7475	0.000179
205.9521	-0.000242
206.1567	-0.000327
206.3614	0.000791
206.5660	0.000348
206.7706	0.000327
206.9753	0.001275
207.1800	0.001803
207.3847	0.000727
207.5894	0.001128
207.7941	-0.000369
207.9989	0.000053
208.2036	0.001592
208.4084	0.000411
208.6132	-0.000348
208.8180	0.001086
209.0228	-0.000327
209.2276	0.000685
209.4325	0.000432
209.6373	0.000580
209.8422	0.001718
210.0471	0.000854
210.2520	0.000306
210.4569	0.000390
210.6618	0.000411
210.8668	0.002140
211.0718	-0.000179
211.2767	0.001528
211.4817	0.000327
211.6867	0.000285
211.8918	0.000685
212.0968	0.000938
212.3018	0.000011
212.5069	0.000875
212.7120	-0.000327
212.9171	0.000727
213.1222	-0.000812
213.3273	0.002287
213.5325	0.000074
213.7376	0.000959
213.9428	0.000748
214.1480	0.000432
214.3532	0.001402
214.5584	0.000200
214.7636	0.001866
214.9689	0.002351
215.1741	0.000517
215.3794	0.001381
215.5847	-0.000242
215.7900	0.000411
215.9953	0.000517
216.2007	0.001697
216.4060	-0.000032
216.6114	0.002013
216.8168	0.000685
217.0222	0.001592
217.2276	0.001044
217.4330	0.001065
217.6384	-0.000264
217.8439	0.001254
218.0494	-0.000938
218.2548	0.000411
218.4603	0.001191
218.6659	-0.000053
218.8714	-0.000074
219.0769	0.001275
219.2825	0.000474
219.4881	0.000242
219.6936	-0.000221
219.8992	0.000938
220.1049	0.001339
220.3105	-0.000453
220.5161	0.000264
220.7218	0.000664
220.9275	0.001528
221.1332	0.000727
221.3389	-0.000643
221.5446	0.000706
221.7503	0.001465
221.9561	-0.000011
222.1618	0.001170
222.3676	0.000327
222.5734	-0.000854
222.7792	0.001065
222.9850	0.000601
223.1909	0.000179
223.3967	-0.000727
223.6026	0.000285
223.8085	-0.000938
224.0144	0.000664
224.2203	0.000242
224.4262	0.000580
224.6322	0.001065
224.8381	-0.000179
225.0441	0.000158
225.2501	-0.000221
225.4561	0.001465
225.6621	0.002140
225.8681	-0.000095
226.0742	0.000306
226.2802	0.000875
226.4863	-0.000348
226.6924	0.000348
226.8985	0.001191
227.1046	-0.000643
227.3107	0.002034
227.5169	0.001444
227.7230	0.000327
227.9292	-0.000980
228.1354	0.001718
228.3416	-0.000095
228.5478	0.000685
228.7541	-0.000622
228.9603	-0.000748
229.1666	-0.000158
229.3729	0.000875
229.5791	0.001613
229.7855	0.002245
229.9918	-0.000285
230.1981	0.000685
230.4045	-0.000158
230.6108	0.001423
230.8172	0.000264
231.0236	0.002056
231.2300	-0.000011
231.4364	0.000116
231.6429	0.000917
231.8493	0.001001
232.0558	-0.001297
232.2623	0.000285
232.4688	0.000411
232.6753	-0.000011
232.8818	0.001086
233.0884	0.000791
233.2949	-0.000959
233.5015	0.000179
233.7081	0.000580
233.9147	0.000875
234.1213	0.001402
234.3279	0.001866
234.5346	0.000095
234.7413	0.000748
234.9479	-0.001086
235.1546	0.001254
235.3613	0.001318
235.5680	0.001739
235.7748	-0.000432
235.9815	0.000074
236.1883	0.000664
236.3951	0.001233
236.6018	-0.000896
236.8087	0.000770
237.0155	0.001423
237.2223	0.000854
237.4292	0.002013
237.6360	0.000875
237.8429	-0.001254
238.0498	0.001929
238.2567	0.000517
238.4636	0.001866
238.6706	-0.000453
238.8775	-0.000643
239.0845	0.001465
239.2915	0.000748
239.4985	0.000601
239.7055	0.000622
239.9125	0.001191
240.1195	0.000980
240.3266	0.000032
240.5337	0.000685
240.7407	-0.000896
240.9478	0.001086
241.1549	0.000095
241.3621	0.001275
241.5692	0.001423
241.7764	0.001381
241.9835	-0.000179
242.1907	-0.000453
242.3979	0.000685
242.6051	0.002266
242.8124	0.000580
243.0196	0.000538
243.2269	-0.000137
243.4341	0.000011
243.6414	-0.000580
243.8487	-0.000095
244.0560	-0.000833
244.2634	0.001992
244.4707	-0.000538
244.6781	0.000369
244.8854	-0.000285
245.0928	-0.000580
245.3002	0.000727
245.5076	0.000812
245.7151	0.000200
245.9225	0.000474
246.1300	-0.000748
246.3375	0.002709
246.5449	0.000369
246.7524	0.001023
246.9600	0.000158
247.1675	0.000980
247.3750	0.000474
247.5826	0.002119
247.7902	0.000095
247.9978	0.000748
248.2054	-0.000116
248.4130	0.001507
248.6206	0.000390
248.8283	0.000411
249.0359	-0.000833
249.2436	0.000791
249.4513	0.001233
249.6590	0.001507
249.8667	0.000833
250.0745	0.001023
250.2822	-0.000432
250.4900	0.000517
250.6978	-0.000116
250.9056	0.002034
251.1134	-0.000664
251.3212	0.001592
251.5290	-0.000116
251.7369	0.001655
251.9447	0.000242
252.1526	0.000727
252.3605	0.000833
252.5684	0.001950
252.7763	-0.000854
252.9843	-0.000053
253.1922	-0.000179
253.4002	0.000264
253.6082	0.000833
253.8162	0.001170
254.0242	0.000833
254.2322	0.001486
254.4402	0.001402
254.6483	-0.000495
254.8564	-0.000348
255.0644	-0.000685
255.2725	-0.000474
255.4806	0.000306
255.6888	0.001486
255.8969	0.001170
256.1051	0.000074
256.3132	-0.000053
256.5214	-0.000833
256.7296	0.000601
256.9378	-0.000474
257.1460	0.001023
257.3543	0.000369
257.5625	0.000327
257.7708	-0.000411
257.9791	0.000748
258.1874	0.001023
258.3957	0.000854
258.6040	0.000200
258.8124	0.001866
259.0207	0.000791
259.2291	0.000517
259.4375	-0.001212
259.6459	0.001339
259.8543	0.000812
260.0627	0.001360
260.2711	-0.000032
260.4796	0.000264
260.6881	-0.000748
260.8965	0.000095
261.1050	0.000580
261.3135	0.002056
261.5221	0.000053
261.7306	0.000242
261.9392	0.000221
262.1477	-0.000011
262.3563	0.000327
262.5649	0.001381
262.7735	0.000242
262.9822	0.000833
263.1908	0.001971
263.3995	0.001360
263.6081	0.000032
263.8168	-0.000053
264.0255	-0.000664
264.2342	0.000327
264.4429	0.000285
264.6517	0.000664
264.8604	0.000917
265.0692	0.000980
265.2780	0.001360
265.4868	-0.000116
265.6956	-0.000622
265.9044	0.002182
266.1133	-0.000327
266.3221	0.000770
266.5310	0.000032
266.7399	0.000285
266.9488	0.000748
267.1577	-0.000158
267.3666	-0.000095
267.5755	0.000875
267.7845	-0.001191
267.9935	-0.000053
268.2024	-0.000938
268.4114	0.000411
268.6205	0.000432
268.8295	-0.000369
269.0385	-0.000369
269.2476	-0.000032
269.4566	-0.000221
269.6657	-0.000095
269.8748	0.000116
270.0839	0.000833
270.2931	0.000327
270.5022	0.000453
270.7114	0.000032
270.9205	0.000011
271.1297	-0.000348
271.3389	0.001086
271.5481	0.000200
271.7573	-0.000348
271.9666	0.000643
272.1758	0.001760
272.3851	0.000011
272.5944	0.002604
272.8037	-0.000306
273.0130	0.000032
273.2223	0.000517
273.4316	0.001528
273.6410	0.000348
273.8504	0.000727
274.0597	0.001128
274.2691	0.000791
274.4785	0.000074
274.6880	0.000411
274.8974	0.000517
275.1069	0.000074
275.3163	0.001360
275.5258	0.000601
275.7353	0.001444
275.9448	0.000495
276.1543	-0.000854
276.3639	0.000791
276.5734	0.000011
276.7830	0.001507
276.9926	0.000221
277.2022	0.000664
277.4118	0.000242
277.6214	0.000770
277.8310	0.001360
278.0407	0.000390
278.2503	0.000432
278.4600	-0.000221
278.6697	0.001360
278.8794	0.001044
279.0891	-0.000938
279.2989	-0.000179
279.5086	-0.000664
279.7184	0.000580
279.9281	0.000053
280.1379	0.001297
280.3477	-0.000622
280.5576	-0.000474
280.7674	0.000495
280.9772	0.000495
281.1871	-0.000306
281.3970	-0.000095
281.6069	-0.000369
281.8168	0.001402
282.0267	0.000306
282.2366	0.001065
282.4466	0.001423
282.6565	-0.000285
282.8665	-0.000411
283.0765	0.001001
283.2865	0.000158
283.4965	0.001128
283.7065	-0.000495
283.9166	0.000369
284.1266	0.000242
284.3367	0.000327
284.5468	0.000938
284.7569	0.001781
284.9670	-0.000200
285.1771	0.001107
285.3873	0.000074
285.5974	0.000812
285.8076	0.000053
286.0178	0.000453
286.2280	0.000179
286.4382	0.001170
286.6484	0.001360
286.8587	0.001866
287.0689	0.001486
287.2792	0.001170
287.4895	0.001297
287.6998	0.001528
287.9101	0.000727
288.1204	0.000875
288.3308	0.000242
288.5411	0.000601
288.7515	-0.000474
288.9619	-0.000264
289.1723	-0.000980
289.3827	0.000538
289.5931	0.001444
289.8035	-0.000854
290.0140	0.000622
290.2245	0.001191
290.4349	0.001402
290.6454	0.000116
290.8559	0.000348
291.0665	0.000453
291.2770	-0.000622
291.4875	0.000812
291.6981	0.000348
291.9087	-0.000432
292.1193	-0.000833
292.3299	0.001275
292.5405	-0.000474
292.7511	0.000959
292.9618	0.001845
293.1724	0.001592
293.3831	0.001149
293.5938	0.000369
293.8045	0.000727
294.0152	0.001107
294.2260	-0.001676
294.4367	0.000074
294.6475	0.000095
294.8582	0.001107
295.0690	-0.001149
295.2798	0.000538
295.4906	0.000390
295.7015	0.000959
295.9123	0.001550
296.1232	0.000833
296.3340	-0.000327
296.5449	0.000369
296.7558	-0.000032
296.9667	0.001676
297.1777	-0.000179
297.3886	-0.000559
297.5995	-0.000095
297.8105	0.001001
298.0215	-0.000179
298.2325	0.000664
298.4435	0.001297
298.6545	0.001170
298.8656	0.001971
299.0766	0.000432
299.2877	0.000917
299.4988	0.000390
299.7099	-0.000074
299.9210	0.002372
300.1321	-0.000221
300.3432	0.001697
300.5544	-0.000053
300.7655	0.001339
300.9767	-0.000327
301.1879	0.001191
301.3991	-0.000053
301.6103	0.001001
301.8215	0.001044
302.0328	0.000074
302.2441	0.000369
302.4553	0.000432
302.6666	0.000011
302.8779	0.000622
303.0892	-0.000453
303.3006	0.002646
303.5119	-0.001191
303.7233	0.000727
303.9346	0.000285
304.1460	0.001128
304.3574	0.001128
304.5688	0.000011
304.7803	0.000495
304.9917	0.001254
305.2031	-0.001212
305.4146	0.000432
305.6261	0.001381
305.8376	0.000791
306.0491	0.000264
306.2606	0.001254
306.4722	0.000242
306.6837	0.001803
306.8953	-0.000706
307.1069	0.001001
307.3184	0.000179
307.5301	0.000854
307.7417	-0.000643
307.9533	0.000453
308.1650	-0.000432
308.3766	0.001803
308.5883	-0.000348
308.8000	0.001086
309.0117	0.000285
309.2234	0.000432
309.4351	-0.000011
309.6469	0.001318
309.8586	0.000116
310.0704	0.001613
310.2822	0.000011
310.4940	0.001191
310.7058	-0.000706
310.9176	0.000285
311.1295	0.000369
311.3413	0.001571
311.5532	-0.000812
311.7651	0.001381
311.9770	0.000791
312.1889	0.000369
312.4008	-0.000306
312.6127	0.001634
312.8247	0.000369
313.0366	-0.000664
313.2486	0.001528
313.4606	0.001444
313.6726	0.001781
313.8846	-0.000474
314.0967	-0.000116
314.3087	-0.000137
314.5208	0.000432
314.7328	0.001086
314.9449	-0.000242
315.1570	-0.000032
315.3692	-0.000580
315.5813	0.001297
315.7934	0.000221
316.0056	-0.000517
316.2177	0.000601
316.4299	0.001044
316.6421	-0.000896
316.8543	0.000411
317.0666	-0.000327
317.2788	0.000538
317.4911	-0.000158
317.7033	0.000896
317.9156	-0.000474
318.1279	0.001191
318.3402	0.001507
318.5525	0.000453
318.7649	-0.000748
318.9772	0.001044
319.1896	-0.000390
319.4019	0.001339
319.6143	-0.000685
319.8267	0.001360
320.0392	0.000938
320.2516	0.000706
320.4640	0.000601
320.6765	0.001254
320.8890	0.001191
321.1014	0.000643
321.3139	0.000833
321.5265	0.001149
321.7390	0.000854
321.9515	0.001001
322.1641	-0.000622
322.3766	0.001423
322.5892	0.001233
322.8018	0.000938
323.0144	0.000517
323.2270	-0.000074
323.4397	0.000348
323.6523	0.001465
323.8650	0.000495
324.0777	-0.000095
324.2904	0.001065
324.5031	0.002540
324.7158	0.000327
324.9285	0.002140
325.1412	-0.000411
325.3540	0.001381
325.5668	0.000474
325.7796	0.000643
325.9924	-0.000495
326.2052	-0.000559
326.4180	0.000495
326.6308	0.001929
326.8437	-0.000538
327.0566	0.001739
327.2694	0.001634
327.4823	0.001718
327.6952	0.000306
327.9082	-0.000137
328.1211	0.000348
328.3340	-0.000538
328.5470	0.001676
328.7600	0.001423
328.9730	0.000601
329.1860	0.001128
329.3990	0.000917
329.6120	0.001423
329.8251	0.002646
330.0381	0.001465
330.2512	-0.000074
330.4643	-0.000179
330.6774	0.000601
330.8905	0.000791
331.1036	-0.000053
331.3167	0.001655
331.5299	-0.000179
331.7431	0.000179
331.9562	0.000833
332.1694	0.001486
332.3826	-0.000158
332.5959	-0.000980
332.8091	0.000348
333.0223	0.000833
333.2356	0.000474
333.4489	0.000685
333.6622	0.001128
333.8755	0.001001
334.0888	0.000643
334.3021	0.001676
334.5154	0.001550
334.7288	0.000474
334.9422	0.000074
335.1555	0.000074
335.3689	0.001528
335.5823	0.000474
335.7958	-0.000011
336.0092	-0.000327
336.2227	-0.000285
336.4361	0.000875
336.6496	0.000074
336.8631	0.001212
337.0766	-0.000242
337.2901	0.001023
337.5036	0.000938
337.7172	0.000896
337.9307	0.000959
338.1443	-0.000032
338.3579	-0.000095
338.5715	0.000327
338.7851	0.000369
338.9987	0.001254
339.2124	0.000896
339.4260	0.001528
339.6397	-0.000242
339.8533	-0.000074
340.0670	-0.000643
340.2807	-0.000032
340.4945	0.000664
340.7082	0.000242
340.9219	0.000685
341.1357	0.000137
341.3495	0.001023
341.5633	0.000706
341.7771	-0.000179
341.9909	-0.001001
342.2047	0.000601
342.4185	0.001065
342.6324	0.000980
342.8463	0.001212
343.0601	0.000116
343.2740	-0.000221
343.4879	-0.000601
343.7019	0.000875
343.9158	0.000495
344.1297	0.000791
344.3437	0.001613
344.5577	-0.000622
344.7717	-0.000474
344.9857	0.001929
345.1997	0.000179
345.4137	0.001507
345.6277	0.001992
345.8418	0.000580
346.0559	-0.000938
346.2699	0.000917
346.4840	0.000116
346.6981	-0.000179
346.9123	0.000748
347.1264	0.000664
347.3406	0.000221
347.5547	0.001086
347.7689	0.000221
347.9831	0.001065
348.1973	-0.000242
348.4115	0.000032
348.6257	0.000580
348.8400	-0.000011
349.0542	0.000896
349.2685	0.001571
349.4828	0.000369
349.6971	-0.000011
349.9114	0.002056
350.1257	0.000938
350.3400	0.000306
350.5544	0.001254
350.7687	0.000432
350.9831	0.000917
351.1975	-0.000137
351.4119	-0.000727
351.6263	0.000727
351.8407	0.000221
352.0552	-0.000369
352.2696	0.000748
352.4841	0.001444
352.6986	0.000664
352.9131	0.000011
353.1276	0.000959
353.3421	-0.000158
353.5566	0.000327
353.7712	0.001212
353.9858	-0.000411
354.2003	0.000179
354.4149	0.001971
354.6295	0.000221
354.8441	0.000580
355.0588	-0.000137
355.2734	-0.000242
355.4881	-0.001613
355.7027	0.000601
355.9174	-0.001571
356.1321	-0.000453
356.3468	0.000601
356.5615	0.001360
356.7763	0.000327
356.9910	0.001233
357.2058	-0.000011
357.4206	0.000580
357.6353	-0.000158
357.8501	0.000264
358.0650	-0.000137
358.2798	-0.000074
358.4946	0.000854
358.7095	-0.000306
358.9243	-0.000242
359.1392	0.000242
359.3541	-0.000601
359.5690	0.001128
359.7839	-0.000580
359.9989	0.002266
360.2138	0.000179
360.4288	0.000200
360.6438	0.000348
360.8587	0.001592
361.0737	0.001486
361.2888	0.001001
361.5038	0.001254
361.7188	0.000706
361.9339	0.001929
362.1489	0.000242
362.3640	0.000727
362.5791	0.001318
362.7942	0.001023
363.0093	0.000854
363.2245	0.000917
363.4396	0.000538
363.6548	0.000242
363.8699	0.001065
364.0851	0.000917
364.3003	0.001613
364.5155	0.001339
364.7308	0.001107
364.9460	0.000137
365.1612	0.001044
365.3765	-0.000453
365.5918	0.001866
365.8071	0.000896
366.0224	0.001149
366.2377	0.001001
366.4530	0.000538
366.6684	0.000453
366.8837	-0.000116
367.0991	0.000495
367.3145	0.001086
367.5299	0.000559
367.7453	0.000116
367.9607	0.000580
368.1761	-0.000559
368.3916	-0.000221
368.6070	-0.000011
368.8225	0.000011
369.0380	0.000179
369.2535	-0.000179
369.4690	0.001170
369.6845	-0.001254
369.9001	0.001507
370.1156	0.001697
370.3312	0.000327
370.5468	-0.000812
370.7624	0.001423
370.9780	0.000053
371.1936	0.000432
371.4092	-0.001360
371.6249	0.001149
371.8405	-0.000032
372.0562	0.001781
372.2719	-0.000390
372.4876	0.001065
372.7033	0.000854
372.9190	0.001676
373.1348	-0.000748
373.3505	0.000474
373.5663	-0.000791
373.7820	0.000664
373.9978	0.000938
374.2136	0.002477
374.4294	0.001044
374.6453	0.000917
374.8611	0.000791
375.0770	0.000770
375.2928	0.000664
375.5087	0.001086
375.7246	0.000348
375.9405	0.001001
376.1564	0.000664
376.3724	0.001381
376.5883	-0.000011
376.8043	0.001065
377.0203	0.001001
377.2362	-0.000179
377.4522	0.000601
377.6682	0.000474
377.8843	0.000348
378.1003	0.000770
378.3164	0.000411
378.5324	-0.000011
378.7485	0.000938
378.9646	0.000601
379.1807	0.000685
379.3968	-0.000053
379.6129	0.000053
379.8291	-0.000158
380.0452	0.000896
380.2614	-0.001507
380.4776	0.001191
380.6938	0.001444
380.9100	0.001023
381.1262	0.000601
381.3424	0.000770
381.5587	0.000116
381.7749	0.000453
381.9912	0.000812
382.2075	0.001507
382.4238	0.001275
382.6401	0.000748
382.8564	0.001254
383.0728	0.000601
383.2891	0.001971
383.5055	0.001233
383.7219	0.001929
383.9382	0.000517
384.1546	0.000032
384.3711	0.001423
384.5875	0.001697
384.8039	0.000200
385.0204	0.002920
385.2368	0.000917
385.4533	0.000517
385.6698	0.002224
385.8863	0.001212
386.1028	-0.000264
386.3194	0.000032
386.5359	0.000348
386.7525	0.001845
386.9690	0.000116
387.1856	0.000685
387.4022	0.000685
387.6188	0.001360
387.8355	-0.000664
388.0521	-0.000221
388.2687	0.001571
388.4854	0.000938
388.7021	0.000306
388.9188	0.001571
389.1355	-0.000727
389.3522	-0.000095
389.5689	0.000453
389.7856	0.000706
390.0024	0.000685
390.2192	0.000053
390.4359	0.001044
390.6527	0.001318
390.8695	-0.000264
391.0863	-0.000074
391.3032	0.000875
391.5200	0.000517
391.7369	0.001275
391.9537	0.000453
392.1706	0.000748
392.3875	0.000854
392.6044	0.000327
392.8213	0.000748
393.0383	0.000221
393.2552	0.000348
393.4722	0.000791
393.6891	-0.000643
393.9061	-0.000432
394.1231	0.002203
394.3401	-0.000179
394.5572	0.000833
394.7742	0.000432
394.9912	0.000622
395.2083	0.001170
395.4254	0.002435
395.6425	-0.000474
395.8596	0.001275
396.0767	-0.000917
396.2938	0.001971
396.5109	0.000812
396.7281	0.000517
396.9453	0.001212
397.1624	0.001592
397.3796	-0.000601
397.5968	0.000095
397.8140	0.000095
398.0313	0.001571
398.2485	0.000179
398.4658	0.001086
398.6830	0.000264
398.9003	0.001191
399.1176	0.000453
399.3349	0.000158
399.5522	0.000664
399.7696	0.000917
399.9869	0.000390
400.2043	0.001571
400.4216	0.000137
400.6390	0.002456
400.8564	0.001023
401.0738	0.000495
401.2912	-0.000011
401.5087	0.001971
401.7261	0.000685
401.9436	0.002098
402.1610	0.000833
402.3785	0.001444
402.5960	0.000685
402.8135	0.000242
403.0310	0.000474
403.2486	0.000179
403.4661	0.000917
403.6837	0.000158
403.9013	0.001381
404.1189	0.001992
404.3365	0.000791
404.5541	0.000580
404.7717	-0.000158
404.9893	0.001486
405.2070	-0.000095
405.4246	0.000643
405.6423	0.001254
405.8600	0.000685
406.0777	0.000474
406.2954	-0.000390
406.5131	0.000432
406.7309	0.000938
406.9486	0.001001
407.1664	0.001592
407.3842	0.001318
407.6020	-0.000116
407.8198	0.001318
408.0376	0.002330
408.2554	0.000959
408.4733	0.002056
408.6911	0.000517
408.9090	0.000812
409.1269	0.000432
409.3448	0.001381
409.5627	0.001655
409.7806	0.002287
409.9985	-0.000495
410.2165	0.000601
410.4344	0.001845
410.6524	0.001697
410.8704	0.001760
411.0884	0.001275
411.3064	0.000264
411.5244	0.000854
411.7424	0.000896
411.9605	0.000938
412.1785	0.002077
412.3966	0.000643
412.6147	0.001191
412.8328	0.001128
413.0509	0.001086
413.2690	0.000580
413.4871	0.000601
413.7053	0.000474
413.9234	0.001402
414.1416	0.002372
414.3598	0.002161
414.5780	0.001655
414.7962	0.002372
415.0144	0.000348
415.2326	0.000896
415.4509	0.002477
415.6692	0.002266
415.8874	0.002857
416.1057	0.002182
416.3240	0.001402
416.5423	0.001718
416.7606	0.001929
416.9790	0.002899
417.1973	0.001887
417.4157	0.002688
417.6341	0.001275
417.8524	0.002498
418.0708	0.002688
418.2893	0.002667
418.5077	0.002351
418.7261	0.001233
418.9446	0.002519
419.1630	0.003004
419.3815	0.002983
419.6000	0.004185
419.8185	0.003869
420.0370	0.002287
420.2555	0.003363
420.4741	0.001887
420.6926	0.002203
420.9112	0.002583
421.1298	0.004164
421.3483	0.001929
421.5669	0.003721
421.7856	0.004185
422.0042	0.004206
422.2228	0.004185
422.4415	0.003742
422.6601	0.003763
422.8788	0.004354
423.0975	0.002857
423.3162	0.005091
423.5349	0.003953
423.7536	0.004417
423.9724	0.005197
424.1911	0.005302
424.4099	0.004143
424.6287	0.003826
424.8475	0.004375
425.0663	0.006504
425.2851	0.006947
425.5039	0.004185
425.7228	0.004396
425.9416	0.003658
426.1605	0.006188
426.3793	0.004501
426.5982	0.005619
426.8171	0.005850
427.0361	0.005007
427.2550	0.005471
427.4739	0.004754
427.6929	0.007094
427.9118	0.003552
428.1308	0.005176
428.3498	0.005703
428.5688	0.005471
428.7878	0.006694
429.0068	0.006124
429.2259	0.005914
429.4449	0.007411
429.6640	0.005134
429.8831	0.008106
430.1022	0.008781
430.3213	0.009076
430.5404	0.008950
430.7595	0.008612
430.9787	0.010320
431.1978	0.009392
431.4170	0.009203
431.6362	0.009793
431.8553	0.009519
432.0745	0.007600
432.2938	0.008170
432.5130	0.009076
432.7322	0.007938
432.9515	0.008697
433.1707	0.009434
433.3900	0.008380
433.6093	0.009919
433.8286	0.009498
434.0479	0.011901
434.2673	0.011564
434.4866	0.009645
434.7059	0.011543
434.9253	0.010742
435.1447	0.010193
435.3641	0.011522
435.5835	0.011838
435.8029	0.010868
436.0223	0.010425
436.2418	0.010193
436.4612	0.011796
436.6807	0.013250
436.9001	0.013124
437.1196	0.014052
437.3391	0.013040
437.5586	0.013714
437.7782	0.012766
437.9977	0.014157
438.2173	0.014305
438.4368	0.014009
438.6564	0.015569
438.8760	0.013609
439.0956	0.013356
439.3152	0.014600
439.5348	0.013398
439.7545	0.014178
439.9741	0.015274
440.1938	0.014895
440.4135	0.015190
440.6331	0.016160
440.8528	0.015253
441.0725	0.016476
441.2923	0.017593
441.5120	0.017593
441.7318	0.018795
441.9515	0.018331
442.1713	0.018057
442.3911	0.019470
442.6109	0.019428
442.8307	0.020608
443.0505	0.018922
443.2703	0.018226
443.4902	0.020102
443.7101	0.020440
443.9299	0.020756
444.1498	0.019343
444.3697	0.022400
444.5896	0.020123
444.8095	0.020861
445.0295	0.018690
445.2494	0.022274
445.4694	0.020271
445.6894	0.021030
445.9093	0.020629
446.1293	0.020967
446.3493	0.020946
446.5694	0.021283
446.7894	0.021199
447.0094	0.023707
447.2295	0.021831
447.4496	0.021241
447.6696	0.020524
447.8897	0.023244
448.1098	0.023960
448.3300	0.020840
448.5501	0.021241
448.7702	0.020397
448.9904	0.023686
449.2106	0.021831
449.4307	0.021262
449.6509	0.023602
449.8711	0.024656
450.0914	0.023939
450.3116	0.022991
450.5318	0.022674
450.7521	0.023560
450.9724	0.025900
451.1926	0.023686
451.4129	0.022948
451.6332	0.023728
451.8535	0.022569
452.0739	0.024572
452.2942	0.021958
452.5146	0.022379
452.7349	0.022611
452.9553	0.022969
453.1757	0.022295
453.3961	0.023728
453.6165	0.023665
453.8369	0.021072
454.0574	0.023433
454.2778	0.023138
454.4983	0.022948
454.7188	0.020608
454.9393	0.022822
455.1597	0.023201
455.3803	0.024867
455.6008	0.023307
455.8213	0.025921
456.0419	0.023307
456.2624	0.023265
456.4830	0.025310
456.7036	0.022421
456.9242	0.021958
457.1448	0.024340
457.3654	0.024382
457.5860	0.024635
457.8067	0.024024
458.0274	0.026828
458.2480	0.025752
458.4687	0.025963
458.6894	0.027081
458.9101	0.027270
459.1308	0.025352
459.3516	0.025816
459.5723	0.027966
459.7931	0.027165
460.0138	0.026596
460.2346	0.027692
460.4554	0.028472
460.6762	0.027797
460.8970	0.026069
461.1178	0.026807
461.3387	0.026807
461.5595	0.027228
461.7804	0.026532
462.0013	0.025373
462.2222	0.025457
462.4431	0.023771
462.6640	0.023075
462.8849	0.023475
463.1059	0.023834
463.3268	0.025520
463.5478	0.026301
463.7687	0.026111
463.9897	0.028493
464.2107	0.027945
464.4317	0.027334
464.6528	0.029653
464.8738	0.031866
465.0948	0.029273
465.3159	0.030939
465.5370	0.028788
465.7581	0.030665
465.9792	0.029526
466.2003	0.032436
466.4214	0.032815
466.6425	0.027903
466.8637	0.028346
467.0848	0.028809
467.3060	0.024719
467.5272	0.026659
467.7484	0.025310
467.9696	0.023370
468.1908	0.026617
468.4120	0.025879
468.6333	0.025542
468.8545	0.026005
469.0758	0.024150
469.2970	0.026005
469.5183	0.025921
469.7396	0.024403
469.9610	0.023391
470.1823	0.023876
470.4036	0.023391
470.6250	0.022358
470.8463	0.022822
471.0677	0.021936
471.2891	0.021873
471.5105	0.020861
471.7319	0.021199
471.9533	0.023497
472.1748	0.023602
472.3962	0.024066
472.6177	0.023265
472.8391	0.022948
473.0606	0.025078
473.2821	0.026195
473.5036	0.025014
473.7251	0.025752
473.9467	0.026385
474.1682	0.025099
474.3898	0.024551
474.6113	0.027102
474.8329	0.023391
475.0545	0.027186
475.2761	0.026069
475.4977	0.028599
475.7193	0.028830
475.9410	0.026975
476.1626	0.024319
476.3843	0.024530
476.6060	0.026764
476.8277	0.026764
477.0494	0.024867
477.2711	0.026912
477.4928	0.026174
477.7145	0.024551
477.9363	0.025014
478.1580	0.029463
478.3798	0.028999
478.6016	0.028029
478.8234	0.027017
479.0452	0.026216
479.2670	0.026301
479.4888	0.027334
479.7107	0.027081
479.9325	0.026343
480.1544	0.026322
480.3763	0.030559
480.5982	0.029716
480.8201	0.029526
481.0420	0.030222
481.2639	0.029147
481.4859	0.027291
481.7078	0.030538
481.9298	0.030391
482.1517	0.030897
482.3737	0.029653
482.5957	0.028662
482.8177	0.029231
483.0398	0.029821
483.2618	0.027144
483.4838	0.028514
483.7059	0.029041
483.9280	0.027565
484.1501	0.030306
484.3721	0.030622
484.5943	0.031740
484.8164	0.033405
485.0385	0.033490
485.2606	0.035851
485.4828	0.037601
485.7050	0.046708
485.9271	0.079914
486.1493	0.104728
486.3715	0.113498
486.5937	0.094524
486.8160	0.071228
487.0382	0.064059
487.2605	0.058030
487.4827	0.052844
487.7050	0.043420
487.9273	0.037559
488.1496	0.033827
488.3719	0.032393
488.5942	0.029421
488.8165	0.031824
489.0389	0.029758
489.2612	0.032183
489.4836	0.029716
489.7060	0.029231
489.9284	0.029779
490.1508	0.030264
490.3732	0.029674
490.5956	0.028472
490.8180	0.033384
491.0405	0.028746
491.2630	0.028198
491.4854	0.028662
491.7079	0.028725
491.9304	0.029020
492.1529	0.028535
492.3755	0.028156
492.5980	0.027924
492.8205	0.029800
493.0431	0.029821
493.2657	0.030264
493.4882	0.030138
493.7108	0.029653
493.9334	0.030854
494.1561	0.028367
494.3787	0.030369
494.6013	0.029632
494.8240	0.029105
495.0466	0.029336
495.2693	0.027671
495.4920	0.025710
495.7147	0.028114
495.9374	0.027481
496.1601	0.027734
496.3829	0.032161
496.6056	0.033426
496.8284	0.034207
497.0511	0.033405
497.2739	0.031571
497.4967	0.028472
497.7195	0.027523
497.9423	0.028641
498.1652	0.028388
498.3880	0.028999
498.6109	0.027397
498.8337	0.030053
499.0566	0.030243
499.2795	0.031403
499.5024	0.031824
499.7253	0.031656
499.9482	0.031972
500.1712	0.031761
500.3941	0.031972
500.6171	0.030116
500.8400	0.029927
501.0630	0.027144
501.2860	0.030011
501.5090	0.032625
501.7320	0.031887
501.9551	0.032267
502.1781	0.032731
502.4012	0.030138
502.6242	0.030580
502.8473	0.031930
503.0704	0.030517
503.2935	0.031107
503.5166	0.031972
503.7397	0.029948
503.9628	0.034333
504.1860	0.031150
504.4092	0.031318
504.6323	0.029990
504.8555	0.028978
505.0787	0.028324
505.3019	0.028978
505.5251	0.029484
505.7483	0.029505
505.9716	0.029020
506.1948	0.029273
506.4181	0.027734
506.6414	0.029948
506.8647	0.029168
507.0880	0.029505
507.3113	0.029484
507.5346	0.025415
507.7579	0.026554
507.9813	0.029779
508.2046	0.031002
508.4280	0.029062
508.6514	0.030159
508.8748	0.030559
509.0982	0.027734
509.3216	0.029632
509.5450	0.028599
509.7685	0.027650
509.9919	0.027966
510.2154	0.028577
510.4388	0.028071
510.6623	0.028662
510.8858	0.026617
511.1093	0.028240
511.3329	0.026301
511.5564	0.028599
511.7799	0.026933
512.0035	0.027523
512.2270	0.027797
512.4506	0.025795
512.6742	0.027207
512.8978	0.027102
513.1214	0.026132
513.3451	0.025647
513.5687	0.027355
513.7923	0.025710
514.0160	0.024825
514.2397	0.023560
514.4634	0.025773
514.6871	0.026090
514.9108	0.027017
515.1345	0.025246
515.3582	0.023855
515.5819	0.023138
515.8057	0.022738
516.0295	0.024277
516.2532	0.023939
516.4770	0.025436
516.7008	0.022991
516.9246	0.025141
517.1485	0.024846
517.3723	0.025457
517.5961	0.023939
517.8200	0.022611
518.0439	0.021789
518.2677	0.024003
518.4916	0.022759
518.7155	0.023328
518.9395	0.023012
519.1634	0.024719
519.3873	0.023138
519.6113	0.025246
519.8352	0.025647
520.0592	0.024867
520.2832	0.024740
520.5072	0.022232
520.7312	0.022885
520.9552	0.022147
521.1792	0.023623
521.4033	0.022927
521.6273	0.022759
521.8514	0.022948
522.0755	0.022274
522.2996	0.020819
522.5237	0.021936
522.7478	0.020756
522.9719	0.023792
523.1960	0.022295
523.4202	0.021325
523.6443	0.020903
523.8685	0.023707
524.0927	0.020313
524.3169	0.021683
524.5411	0.021093
524.7653	0.022105
524.9895	0.022000
525.2138	0.023054
525.4380	0.025099
525.6623	0.021726
525.8865	0.021662
526.1108	0.021135
526.3351	0.024087
526.5594	0.021241
526.7837	0.020376
527.0081	0.023876
527.2324	0.022421
527.4568	0.020882
527.6811	0.021494
527.9055	0.021768
528.1299	0.020650
528.3543	0.022716
528.5787	0.021810
528.8031	0.021578
529.0276	0.023581
529.2520	0.023897
529.4765	0.024066
529.7009	0.022569
529.9254	0.021936
530.1499	0.021915
530.3744	0.023054
530.5989	0.022485
530.8234	0.021747
531.0480	0.022695
531.2725	0.022590
531.4971	0.021093
531.7217	0.022379
531.9462	0.022843
532.1708	0.021388
532.3954	0.022864
532.6200	0.021093
532.8447	0.021325
533.0693	0.023307
533.2940	0.023771
533.5186	0.024783
533.7433	0.025900
533.9680	0.026785
534.1927	0.026469
534.4174	0.026237
534.6421	0.025731
534.8668	0.026554
535.0916	0.026996
535.3163	0.025542
535.5411	0.027713
535.7659	0.026048
535.9907	0.024888
536.2155	0.023897
536.4403	0.025984
536.6651	0.025289
536.8899	0.024361
537.1148	0.022253
537.3396	0.023855
537.5645	0.021915
537.7894	0.022295
538.0143	0.025225
538.2392	0.025352
538.4641	0.025584
538.6890	0.024762
538.9139	0.027270
539.1389	0.026722
539.3638	0.027270
539.5888	0.027629
539.8138	0.027692
540.0388	0.029126
540.2638	0.027903
540.4888	0.026216
540.7138	0.024572
540.9389	0.028620
541.1639	0.025752
541.3890	0.028346
541.6140	0.027207
541.8391	0.027650
542.0642	0.027207
542.2893	0.028029
542.5144	0.029505
542.7396	0.030770
542.9647	0.028472
543.1899	0.028514
543.4150	0.030454
543.6402	0.028430
543.8654	0.028894
544.0906	0.029463
544.3158	0.027882
544.5410	0.029336
544.7662	0.030369
544.9915	0.030222
545.2167	0.030201
545.4420	0.031171
545.6673	0.030201
545.8926	0.030538
546.1179	0.027945
546.3432	0.029168
546.5685	0.028135
546.7938	0.028367
547.0192	0.027481
547.2445	0.026005
547.4699	0.030475
547.6953	0.029547
547.9206	0.029758
548.1460	0.033216
548.3715	0.034923
548.5969	0.035514
548.8223	0.033932
549.0478	0.032077
549.2732	0.030622
549.4987	0.029589
549.7242	0.030053
549.9496	0.029800
550.1751	0.027481
550.4007	0.029379
550.6262	0.028493
550.8517	0.028451
551.0773	0.028873
551.3028	0.028451
551.5284	0.026048
551.7540	0.027249
551.9796	0.028936
552.2052	0.029737
552.4308	0.032246
552.6564	0.034164
552.8820	0.030496
553.1077	0.032794
553.3333	0.029041
553.5590	0.031656
553.7847	0.029990
554.0104	0.031993
554.2361	0.032372
554.4618	0.030517
554.6875	0.029842
554.9132	0.028093
555.1390	0.028093
555.3648	0.028303
555.5905	0.030854
555.8163	0.033764
556.0421	0.032035
556.2679	0.033448
556.4937	0.031360
556.7195	0.033237
556.9454	0.032119
557.1712	0.031550
557.3971	0.030243
557.6230	0.029505
557.8488	0.029020
558.0747	0.031824
558.3006	0.029906
558.5266	0.030116
558.7525	0.029041
558.9784	0.030538
559.2044	0.028662
559.4303	0.028135
559.6563	0.027903
559.8823	0.028641
560.1083	0.029948
560.3343	0.030875
560.5603	0.031044
560.7863	0.034839
561.0124	0.035008
561.2384	0.037791
561.4645	0.036462
561.6905	0.034712
561.9166	0.035935
562.1427	0.035577
562.3688	0.033553
562.5949	0.033595
562.8211	0.032899
563.0472	0.033637
563.2733	0.032815
563.4995	0.033237
563.7257	0.033300
563.9519	0.033701
564.1781	0.035050
564.4043	0.035366
564.6305	0.037580
564.8567	0.036610
565.0829	0.038254
565.3092	0.038781
565.5355	0.038908
565.7617	0.037685
565.9880	0.037854
566.2143	0.035240
566.4406	0.037727
566.6669	0.038950
566.8932	0.037495
567.1196	0.039013
567.3459	0.038845
567.5723	0.045675
567.7987	0.047193
568.0250	0.049238
568.2514	0.048100
568.4778	0.052127
568.7043	0.050651
568.9307	0.054024
569.1571	0.058873
569.3836	0.062605
569.6100	0.067348
569.8365	0.074875
570.0630	0.079471
570.2895	0.088389
570.5160	0.086765
570.7425	0.088326
570.9690	0.086281
571.1956	0.092563
571.4221	0.099162
571.6487	0.101734
571.8752	0.107194
572.1018	0.107426
572.3284	0.114742
572.5550	0.111158
572.7816	0.105740
573.0082	0.097012
573.2349	0.094018
573.4615	0.106372
573.6882	0.112718
573.9149	0.120097
574.1415	0.122205
574.3682	0.125768
574.5949	0.132494
574.8216	0.134370
575.0484	0.135319
575.2751	0.140905
575.5018	0.142655
575.7286	0.134560
575.9554	0.126380
576.1821	0.122290
576.4089	0.116766
576.6357	0.125304
576.8626	0.130786
577.0894	0.136394
577.3162	0.141939
577.5431	0.142234
577.7699	0.144890
577.9968	0.182965
578.2237	0.191546
578.4505	0.180309
578.6774	0.171454
578.9044	0.161630
579.1313	0.152459
579.3582	0.142866
579.5851	0.142908
579.8121	0.148833
580.0391	0.149107
580.2660	0.154546
580.4930	0.147926
580.7200	0.148537
580.9470	0.144384
581.1741	0.145818
581.4011	0.173078
581.6281	0.207442
581.8552	0.230211
582.0822	0.231012
582.3093	0.225320
582.5364	0.214631
582.7635	0.197828
582.9906	0.181511
583.2177	0.167997
583.4449	0.154588
583.6720	0.145249
583.8991	0.133063
584.1263	0.129394
584.3535	0.129816
584.5807	0.137933
584.8079	0.135930
585.0351	0.144490
585.2623	0.157097
585.4895	0.165256
585.7167	0.164750
585.9440	0.162431
586.1713	0.158509
586.3985	0.150625
586.6258	0.140969
586.8531	0.134201
587.0804	0.140568
587.3077	0.146218
587.5350	0.156696
587.7624	0.156992
587.9897	0.155516
588.2171	0.151215
588.4445	0.139619
588.6718	0.136605
588.8992	0.135234
589.1266	0.129921
589.3540	0.119928
589.5815	0.114278
589.8089	0.112739
590.0363	0.111306
590.2638	0.109492
590.4913	0.103716
590.7187	0.100132
590.9462	0.097454
591.1737	0.092816
591.4012	0.089865
591.6288	0.086850
591.8563	0.086681
592.0838	0.090518
592.3114	0.088831
592.5389	0.088115
592.7665	0.103589
592.9941	0.124756
593.2217	0.135593
593.4493	0.140041
593.6769	0.135066
593.9046	0.135846
594.1322	0.129605
594.3598	0.121025
594.5875	0.114447
594.8152	0.114025
595.0429	0.118790
595.2705	0.131819
595.4983	0.134054
595.7260	0.128699
595.9537	0.123302
596.1814	0.118537
596.4092	0.107511
596.6369	0.097686
596.8647	0.096864
597.0925	0.091888
597.3203	0.097728
597.5481	0.097349
597.7759	0.095536
598.0037	0.101692
598.2315	0.096231
598.4594	0.094671
598.6872	0.095198
598.9151	0.104517
599.1430	0.117947
599.3709	0.128129
599.5988	0.123871
599.8267	0.120498
600.0546	0.118326
600.2825	0.118706
600.5105	0.118579
600.7384	0.120772
600.9664	0.121278
601.1944	0.121362
601.4223	0.123913
601.6503	0.116745
601.8783	0.114784
602.1064	0.109535
602.3344	0.109029
602.5624	0.105445
602.7905	0.108881
603.0185	0.116471
603.2466	0.114763
603.4747	0.124524
603.7028	0.127033
603.9309	0.123112
604.1590	0.120223
604.3871	0.116239
604.6152	0.110062
604.8434	0.105445
605.0715	0.104412
605.2997	0.100553
605.5279	0.101882
605.7561	0.107426
605.9843	0.110378
606.2125	0.114468
606.4407	0.110483
606.6689	0.102894
606.8972	0.100216
607.1254	0.100532
607.3537	0.102282
607.5819	0.104201
607.8102	0.106562
608.0385	0.104011
608.2668	0.098782
608.4951	0.093617
608.7235	0.092711
608.9518	0.092416
609.1801	0.092795
609.4085	0.089717
609.6369	0.087651
609.8653	0.086576
610.0936	0.088410
610.3220	0.096737
610.5505	0.097771
610.7789	0.094250
611.0073	0.092753
611.2357	0.089717
611.4642	0.090708
611.6927	0.086533
611.9211	0.092352
612.1496	0.089738
612.3781	0.086344
612.6066	0.082696
612.8351	0.081874
613.0637	0.085732
613.2922	0.086028
613.5208	0.083666
613.7493	0.084383
613.9779	0.080441
614.2065	0.082275
614.4351	0.084973
614.6637	0.081832
614.8923	0.083455
615.1209	0.084109
615.3495	0.081453
615.5782	0.081115
615.8068	0.085416
616.0355	0.086386
616.2642	0.080525
616.4929	0.077510
616.7216	0.072429
616.9503	0.073041
617.1790	0.068930
617.4077	0.068107
617.6365	0.069077
617.8652	0.069014
618.0940	0.070110
618.3227	0.073568
618.5515	0.068550
618.7803	0.068128
619.0091	0.059801
619.2379	0.061087
619.4667	0.060623
619.6956	0.057988
619.9244	0.057861
620.1533	0.059822
620.3821	0.062141
620.6110	0.064059
620.8399	0.060496
621.0688	0.055669
621.2977	0.051347
621.5266	0.047278
621.7556	0.047109
621.9845	0.050082
622.2135	0.052675
622.4424	0.051937
622.6714	0.053118
622.9004	0.056238
623.1294	0.056132
623.3584	0.056870
623.5874	0.059274
623.8164	0.057187
624.0454	0.054446
624.2745	0.055816
624.5035	0.056786
624.7326	0.059527
624.9617	0.057671
625.1908	0.056912
625.4199	0.056723
625.6490	0.052527
625.8781	0.051642
626.1072	0.052380
626.3364	0.050124
626.5655	0.046983
626.7947	0.047278
627.0238	0.045022
627.2530	0.042998
627.4822	0.042597
627.7114	0.046751
627.9406	0.046687
628.1698	0.042555
628.3991	0.041796
628.6283	0.040067
628.8576	0.037053
629.0868	0.036252
629.3161	0.037622
629.5454	0.041670
629.7747	0.039414
630.0040	0.042323
630.2333	0.039077
630.4626	0.036104
630.6920	0.036800
630.9213	0.036821
631.1507	0.036357
631.3801	0.035071
631.6094	0.034691
631.8388	0.031824
632.0682	0.033026
632.2976	0.032942
632.5271	0.033785
632.7565	0.032689
632.9859	0.031002
633.2154	0.030053
633.4448	0.029252
633.6743	0.028556
633.9038	0.028852
634.1333	0.027481
634.3628	0.026975
634.5923	0.026807
634.8218	0.025499
635.0514	0.024783
635.2809	0.025900
635.5105	0.025520
635.7400	0.027228
635.9696	0.025225
636.1992	0.027818
636.4288	0.030159
636.6584	0.030875
636.8880	0.029863
637.1177	0.029800
637.3473	0.028156
637.5770	0.029737
637.8066	0.027629
638.0363	0.026153
638.2660	0.027481
638.4957	0.027207
638.7254	0.027312
638.9551	0.028620
639.1848	0.027418
639.4145	0.025816
639.6443	0.025517
639.8740	0.025931
640.1038	0.024502
640.3336	0.023586
640.5633	0.026044
640.7931	0.024034
641.0229	0.023639
641.2528	0.022605
641.4826	0.022212
641.7124	0.023035
641.9423	0.021538
642.1721	0.021288
642.4020	0.021310
642.6319	0.020064
642.8617	0.019428
643.0916	0.020084
643.3216	0.022136
643.5515	0.020764
643.7814	0.021492
644.0113	0.018398
644.2413	0.019231
644.4712	0.016928
644.7012	0.019494
644.9312	0.017592
645.1612	0.016969
645.3912	0.015870
645.6212	0.017944
645.8512	0.015855
646.0812	0.018798
646.3113	0.017688
646.5413	0.017114
646.7714	0.016147
647.0015	0.017066
647.2316	0.014914
647.4616	0.016880
647.6918	0.015624
647.9219	0.017519
648.1520	0.017972
648.3821	0.020310
648.6123	0.021130
648.8424	0.021015
649.0726	0.021802
649.3028	0.023340
649.5329	0.019568
649.7631	0.023119
649.9933	0.021973
650.2236	0.020563
650.4538	0.018761
650.6840	0.019212
650.9143	0.018006
651.1445	0.018751
651.3748	0.018315
651.6051	0.019368
651.8354	0.018272
652.0657	0.019974
652.2960	0.019371
652.5263	0.021188
652.7566	0.020007
652.9870	0.020911
653.2173	0.021647
653.4477	0.020440
653.6780	0.021447
653.9084	0.021425
654.1388	0.021461
654.3692	0.022367
654.5996	0.021913
654.8300	0.023988
655.0605	0.027048
655.2909	0.038196
655.5213	0.103517
655.7518	0.310909
655.9823	0.635524
656.2128	0.837380
656.4433	0.900518
656.6738	0.888579
656.9043	0.855276
657.1348	0.711919
657.3653	0.572019
657.5959	0.458766
657.8264	0.387616
658.0570	0.340862
658.2875	0.315810
658.5181	0.283263
658.7487	0.253844
658.9793	0.244887
659.2099	0.225857
659.4406	0.177270
659.6712	0.121943
659.9018	0.075843
660.1325	0.045346
660.3632	0.029548
660.5938	0.022793
660.8245	0.019755
661.0552	0.016030
661.2859	0.016808
661.5166	0.014377
661.7474	0.012795
661.9781	0.016060
662.2088	0.014679
662.4396	0.014321
662.6704	0.015448
662.9011	0.015695
663.1319	0.014644
663.3627	0.014461
663.5935	0.014835
663.8243	0.013824
664.0552	0.014821
664.2860	0.013536
664.5168	0.014694
664.7477	0.014267
664.9786	0.016305
665.2094	0.015412
665.4403	0.015631
665.6712	0.015701
665.9021	0.016386
666.1330	0.014544
666.3640	0.016197
666.5949	0.015146
666.8259	0.014162
667.0568	0.015140
667.2878	0.013821
667.5188	0.013490
667.7497	0.015153
667.9807	0.013414
668.2117	0.014670
668.4428	0.013946
668.6738	0.012871
668.9048	0.013335
669.1359	0.014600
669.3669	0.014621
669.5980	0.014916
669.8291	0.015591
670.0602	0.013356
670.2913	0.015274
670.5224	0.013925
670.7535	0.013820
670.9846	0.014241
671.2157	0.013166
671.4469	0.014410
671.6781	0.017298
671.9092	0.020756
672.1404	0.019617
672.3716	0.022189
672.6028	0.023222
672.8340	0.023771
673.0652	0.020756
673.2964	0.021346
673.5277	0.019702
673.7589	0.019259
673.9902	0.020018
674.2214	0.019301
674.4527	0.019554
674.6840	0.017109
674.9153	0.016813
675.1466	0.016539
675.3779	0.016603
675.6093	0.017910
675.8406	0.016982
676.0719	0.016118
676.3033	0.015928
676.5347	0.016771
676.7661	0.014515
676.9974	0.016413
677.2288	0.016539
677.4602	0.014726
677.6917	0.016012
677.9231	0.016603
678.1545	0.018226
678.3860	0.018669
678.6174	0.018479
678.8489	0.020671
679.0804	0.019407
679.3119	0.019196
679.5434	0.021958
679.7749	0.022485
680.0064	0.025078
680.2379	0.024108
680.4694	0.022464
680.7010	0.023054
680.9325	0.022084
681.1641	0.020229
681.3957	0.020946
681.6273	0.024129
681.8589	0.021958
682.0905	0.023454
682.3221	0.021936
682.5537	0.023328
682.7854	0.021873
683.0170	0.020355
683.2487	0.021599
683.4803	0.021135
683.7120	0.019554
683.9437	0.021662
684.1754	0.021367
684.4071	0.021536
684.6388	0.023096
684.8705	0.023750
685.1023	0.025795
685.3340	0.024319
685.5658	0.028008
685.7975	0.028830
686.0293	0.029927
686.2611	0.027776
686.4929	0.028957
686.7247	0.028957
686.9565	0.028725
687.1883	0.028788
687.4202	0.029379
687.6520	0.028915
687.8838	0.031634
688.1157	0.028641
688.3476	0.025183
688.5795	0.024698
688.8114	0.023328
689.0433	0.022421
689.2752	0.023518
689.5071	0.023180
689.7390	0.023222
689.9710	0.024108
690.2029	0.022611
690.4349	0.021241
690.6669	0.023117
690.8988	0.021220
691.1308	0.023201
691.3628	0.025267
691.5948	0.023876
691.8269	0.027102
692.0589	0.024551
692.2909	0.024698
692.5230	0.024361
692.7550	0.025457
692.9871	0.025984
693.2192	0.025563
693.4513	0.024909
693.6834	0.025542
693.9155	0.025310
694.1476	0.022906
694.3797	0.022864
694.6119	0.021409
694.8440	0.021979
695.0762	0.023180
695.3083	0.023475
695.5405	0.022759
695.7727	0.022337
696.0049	0.020355
696.2371	0.019322
696.4693	0.019301
696.7016	0.020060
696.9338	0.022274
697.1660	0.026554
697.3983	0.027776
697.6306	0.026195
697.8628	0.027081
698.0951	0.025373
698.3274	0.027334
698.5597	0.026807
698.7920	0.025752
699.0243	0.024825
699.2567	0.023138
699.4890	0.024192
699.7214	0.022906
699.9537	0.022421
700.1861	0.020081
700.4185	0.020671
700.6509	0.019976
700.8833	0.020440
701.1157	0.020292
701.3481	0.020334
701.5806	0.017825
701.8130	0.018500
702.0454	0.018437
702.2779	0.019870
702.5104	0.018795
702.7429	0.020566
702.9753	0.021051
703.2078	0.018542
703.4403	0.020946
703.6729	0.017235
703.9054	0.017994
704.1379	0.019217
704.3705	0.018563
704.6030	0.019428
704.8356	0.016581
705.0682	0.015548
705.3008	0.015759
705.5334	0.017425
705.7660	0.017762
705.9986	0.016033
706.2312	0.016307
706.4638	0.017657
706.6965	0.020313
706.9291	0.021747
707.1618	0.025394
707.3945	0.025984
707.6272	0.026301
707.8599	0.025057
708.0926	0.024045
708.3253	0.026532
708.5580	0.024213
708.7907	0.024277
709.0235	0.024024
709.2562	0.023265
709.4890	0.022063
709.7217	0.024256
709.9545	0.022189
710.1873	0.023012
710.4201	0.022485
710.6529	0.022084
710.8857	0.022738
711.1186	0.024003
711.3514	0.022358
711.5842	0.020060
711.8171	0.020039
712.0500	0.020946
712.2828	0.018584
712.5157	0.019596
712.7486	0.020650
712.9815	0.021958
713.2144	0.020587
713.4474	0.019554
713.6803	0.020756
713.9132	0.022864
714.1462	0.022611
714.3791	0.023433
714.6121	0.023244
714.8451	0.023686
715.0781	0.023750
715.3111	0.023560
715.5441	0.022548
715.7771	0.022864
716.0102	0.020693
716.2432	0.022211
716.4762	0.020756
716.7093	0.019449
716.9424	0.018057
717.1754	0.019554
717.4085	0.018922
717.6416	0.017404
717.8747	0.019132
718.1078	0.019575
718.3410	0.020524
718.5741	0.019554
718.8072	0.019196
719.0404	0.018964
719.2736	0.019449
719.5067	0.019660
719.7399	0.019828
719.9731	0.019491
720.2063	0.019470
720.4395	0.019470
720.6727	0.018057
720.9060	0.018985
721.1392	0.020165
721.3725	0.020967
721.6057	0.018395
721.8390	0.021409
722.0723	0.019955
722.3055	0.020081
722.5388	0.018458
722.7721	0.019428
723.0055	0.017467
723.2388	0.017404
723.4721	0.019006
723.7055	0.018816
723.9388	0.018416
724.1722	0.018352
724.4056	0.017467
724.6389	0.017931
724.8723	0.017551
725.1057	0.018205
725.3391	0.021915
725.5726	0.019596
725.8060	0.022253
726.0394	0.022948
726.2729	0.021705
726.5063	0.020735
726.7398	0.021662
726.9733	0.020608
727.2068	0.021852
727.4403	0.021430
727.6738	0.019913
727.9073	0.023771
728.1408	0.020988
728.3743	0.022527
728.6079	0.021557
728.8414	0.022864
729.0750	0.021283
729.3086	0.024719
729.5421	0.024192
729.7757	0.023180
730.0093	0.024804
730.2429	0.025563
730.4766	0.024572
730.7102	0.022927
730.9438	0.025900
731.1775	0.030011
731.4111	0.029126
731.6448	0.029568
731.8785	0.028177
732.1122	0.026954
732.3458	0.028367
732.5795	0.026448
732.8133	0.026891
733.0470	0.027755
733.2807	0.028830
733.5145	0.028535
733.7482	0.028556
733.9820	0.032267
734.2157	0.033806
734.4495	0.032878
734.6833	0.032899
734.9171	0.034038
735.1509	0.033616
735.3847	0.031803
735.6185	0.030665
735.8524	0.031150
736.0862	0.032836
736.3201	0.033469
736.5539	0.032056
736.7878	0.030159
737.0217	0.032077
737.2556	0.032288
737.4895	0.033026
737.7234	0.032794
737.9573	0.030095
738.1912	0.029885
738.4252	0.027355
738.6591	0.026722
738.8931	0.028683
739.1271	0.027312
739.3610	0.028430
739.5950	0.029927
739.8290	0.030939
740.0630	0.032773
740.2970	0.029358
740.5310	0.028662
740.7651	0.025626
740.9991	0.024951
741.2332	0.024530
741.4672	0.024234
741.7013	0.022400
741.9354	0.023581
742.1695	0.021599
742.4036	0.020798
742.6377	0.020903
742.8718	0.022590
743.1059	0.022527
743.3400	0.022316
743.5742	0.018774
743.8083	0.020418
744.0425	0.019849
744.2767	0.021536
744.5108	0.017931
744.7450	0.018648
744.9792	0.019786
745.2134	0.018711
745.4477	0.019807
745.6819	0.018816
745.9161	0.020313
746.1504	0.017783
746.3846	0.020187
746.6189	0.019533
746.8532	0.018732
747.0874	0.018795
747.3217	0.018563
747.5560	0.021620
747.7903	0.022442
748.0247	0.021367
748.2590	0.019617
748.4933	0.019322
748.7277	0.019132
748.9620	0.019217
749.1964	0.018500
749.4308	0.020650
749.6652	0.022885
749.8995	0.023307
750.1339	0.024256
750.3684	0.023222
750.6028	0.025225
750.8372	0.027587
751.0717	0.025879
751.3061	0.024572
751.5406	0.025352
751.7750	0.025204
752.0095	0.025921
752.2440	0.025352
752.4785	0.026111
752.7130	0.025584
752.9475	0.024762
753.1820	0.023876
753.4166	0.024087
753.6511	0.023412
753.8856	0.027565
754.1202	0.026469
754.3548	0.027376
754.5894	0.027355
754.8239	0.027228
755.0585	0.026701
755.2931	0.027397
755.5278	0.026048
755.7624	0.027207
755.9970	0.028577
756.2317	0.027840
756.4663	0.030201
756.7010	0.032014
756.9356	0.032878
757.1703	0.033216
757.4050	0.035197
757.6397	0.038444
757.8744	0.041332
758.1091	0.040046
758.3438	0.040236
758.5786	0.036252
758.8133	0.037854
759.0481	0.037221
759.2828	0.036526
759.5176	0.038086
759.7524	0.039245
759.9872	0.039351
760.2220	0.039667
760.4568	0.040679
760.6916	0.039519
760.9264	0.041733
761.1613	0.042534
761.3961	0.042049
761.6310	0.039983
761.8658	0.035387
762.1007	0.033258
762.3356	0.031255
762.5705	0.032920
762.8054	0.031571
763.0403	0.031318
763.2752	0.031107
763.5101	0.032520
763.7450	0.035619
763.9800	0.031993
764.2149	0.032899
764.4499	0.034649
764.6849	0.037538
764.9198	0.037959
765.1548	0.037938
765.3898	0.038402
765.6248	0.039287
765.8599	0.036779
766.0949	0.034649
766.3299	0.031803
766.5650	0.029358
766.8000	0.029716
767.0351	0.029105
767.2701	0.027081
767.5052	0.025267
767.7403	0.025436
767.9754	0.025162
768.2105	0.025689
768.4456	0.027861
768.6808	0.029885
768.9159	0.030686
769.1510	0.030960
769.3862	0.032267
769.6214	0.029906
769.8565	0.031571
770.0917	0.031107
770.3269	0.029737
770.5621	0.030053
770.7973	0.031065
771.0325	0.030686
771.2677	0.032899
771.5030	0.030770
771.7382	0.031550
771.9735	0.029842
772.2087	0.028999
772.4440	0.028093
772.6793	0.026596
772.9146	0.026891
773.1499	0.027270
773.3852	0.026764
773.6205	0.024677
773.8558	0.024677
774.0911	0.026448
774.3265	0.023096
774.5618	0.022400
774.7972	0.021620
775.0326	0.021810
775.2679	0.020081
775.5033	0.020714
775.7387	0.020566
775.9741	0.018015
776.2095	0.018310
776.4450	0.017045
776.6804	0.017340
776.9158	0.015801
777.1513	0.015970
777.3868	0.018774
777.6222	0.014663
777.8577	0.017530
778.0932	0.015801
778.3287	0.016518
778.5642	0.017783
778.7997	0.019090
779.0352	0.018395
779.2707	0.019196
779.5063	0.019196
779.7418	0.022084
779.9774	0.021241
780.2130	0.019470
780.4485	0.019111
780.6841	0.018373
780.9197	0.019849
781.1553	0.019575
781.3909	0.023159
781.6265	0.024108
781.8622	0.024993
782.0978	0.023792
782.3335	0.022442
782.5691	0.024129
782.8048	0.022548
783.0405	0.024509
783.2761	0.023117
783.5118	0.022168
783.7475	0.022485
783.9832	0.024361
784.2190	0.021936
784.4547	0.020819
784.6904	0.018795
784.9262	0.019681
785.1619	0.019069
785.3977	0.018205
785.6335	0.019660
785.8692	0.020903
786.1050	0.018352
786.3408	0.018774
786.5766	0.018395
786.8124	0.019069
787.0483	0.015759
787.2841	0.020313
787.5199	0.018437
787.7558	0.020418
787.9917	0.019723
788.2275	0.018563
788.4634	0.019196
788.6993	0.019449
788.9352	0.021494
789.1711	0.021156
789.4070	0.019259
789.6429	0.018247
789.8789	0.018437
790.1148	0.019533
790.3507	0.018205
790.5867	0.018268
790.8227	0.016961
791.0586	0.017404
791.2946	0.016392
791.5306	0.017720
791.7666	0.016476
792.0026	0.017404
792.2387	0.015970
792.4747	0.013356
792.7107	0.015190
792.9468	0.015696
793.1828	0.013735
793.4189	0.015169
793.6550	0.013440
793.8910	0.015654
794.1271	0.018753
794.3632	0.021409
794.5993	0.021367
794.8355	0.022337
795.0716	0.022274
795.3077	0.020924
795.5439	0.023307
795.7800	0.022485
796.0162	0.019154
796.2523	0.019807
796.4885	0.017762
796.7247	0.016645
796.9609	0.016033
797.1971	0.014684
797.4333	0.015780
797.6695	0.015991
797.9058	0.015211
798.1420	0.016202
798.3783	0.015675
798.6145	0.015380
798.8508	0.016771
799.0871	0.015232
799.3233	0.016054
799.5596	0.015169
799.7959	0.015591
800.0322	0.013588
800.2686	0.014684
800.5049	0.014283
800.7412	0.012871
800.9776	0.014052
801.2139	0.012365
801.4503	0.012491
801.6867	0.012892
801.9230	0.013672
802.1594	0.012154
802.3958	0.012997
802.6322	0.010510
802.8686	0.011311
803.1051	0.010215
803.3415	0.010362
803.5779	0.011353
803.8144	0.013398
804.0508	0.013124
804.2873	0.013440
804.5238	0.012196
804.7603	0.011269
804.9968	0.011079
805.2333	0.010742
805.4698	0.011458
805.7063	0.012597
805.9428	0.011901
806.1794	0.014558
806.4159	0.015021
806.6525	0.016856
806.8890	0.016940
807.1256	0.016455
807.3622	0.017804
807.5988	0.018163
807.8354	0.016792
808.0720	0.017319
808.3086	0.016877
808.5452	0.014832
808.7818	0.016054
809.0185	0.015253
809.2551	0.014094
809.4918	0.015422
809.7284	0.013503
809.9651	0.013018
810.2018	0.013967
810.4385	0.013904
810.6752	0.013082
810.9119	0.012618
811.1486	0.012639
811.3853	0.012850
811.6221	0.012766
811.8588	0.011690
812.0956	0.010678
812.3323	0.012154
812.5691	0.010910
812.8059	0.010067
813.0427	0.010552
813.2795	0.009666
813.5163	0.009456
813.7531	0.010510
813.9899	0.011395
814.2267	0.013335
814.4636	0.013082
814.7004	0.012260
814.9373	0.012323
815.1742	0.012766
815.4110	0.009413
815.6479	0.010425
815.8848	0.009561
816.1217	0.009814
816.3586	0.009835
816.5955	0.009582
816.8324	0.009498
817.0694	0.008338
817.3063	0.010552
817.5433	0.009856
817.7802	0.011922
818.0172	0.009434
818.2542	0.010573
818.4912	0.009645
818.7282	0.009139
818.9652	0.009287
819.2022	0.008739
819.4392	0.009287
819.6762	0.010784
819.9133	0.010025
820.1503	0.007748
820.3874	0.006778
820.6244	0.009181
820.8615	0.008907
821.0986	0.011079
821.3357	0.009751
821.5727	0.011037
821.8099	0.010299
822.0470	0.008127
822.2841	0.008444
822.5212	0.009603
822.7584	0.008528
822.9955	0.008043
823.2327	0.008739
823.4698	0.008844
823.7070	0.007790
823.9442	0.005977
824.1814	0.006588
824.4186	0.007980
824.6558	0.007980
824.8930	0.008275
825.1302	0.008907
825.3675	0.007411
825.6047	0.009034
825.8419	0.011037
826.0792	0.008591
826.3165	0.008444
826.5537	0.008675
826.7910	0.008928
827.0283	0.009814
827.2656	0.008570
827.5029	0.009856
827.7402	0.009709
827.9776	0.008886
828.2149	0.007853
828.4522	0.007938
828.6896	0.007432
828.9270	0.008486
829.1643	0.008781
829.4017	0.008907
829.6391	0.009034
829.8765	0.008317
830.1139	0.008064
830.3513	0.009603
830.5887	0.008127
830.8261	0.007242
831.0636	0.006061
831.3010	0.007073
831.5385	0.005703
831.7759	0.006673
832.0134	0.005450
832.2509	0.005640
832.4884	0.004860
832.7259	0.004902
832.9634	0.005471
833.2009	0.005576
833.4384	0.007642
833.6759	0.007031
833.9135	0.006778
834.1510	0.006124
834.3886	0.007706
834.6261	0.007010
834.8637	0.007094
835.1013	0.007474
835.3389	0.007495
835.5765	0.006673
835.8141	0.007284
836.0517	0.006462
836.2893	0.007706
836.5269	0.006567
836.7646	0.006905
837.0022	0.005134
837.2399	0.005872
837.4775	0.005155
837.7152	0.006209
837.9529	0.003278
838.1906	0.004881
838.4283	0.004881
838.6660	0.006146
838.9037	0.006588
839.1414	0.003742
839.3791	0.004607
839.6169	0.004459
839.8546	0.005766
840.0924	0.005028
840.3302	0.005450
840.5679	0.005049
840.8057	0.005513
841.0435	0.005091
841.2813	0.005682
841.5191	0.004712
841.7569	0.004712
841.9947	0.004522
842.2326	0.003257
842.4704	0.004628
842.7082	0.002688
842.9461	0.004649
843.1840	0.004079
843.4218	0.002899
843.6597	0.004838
843.8976	0.002983
844.1355	0.004733
844.3734	0.003679
844.6113	0.003552
844.8492	0.002709
845.0872	0.003173
845.3251	0.004796
845.5631	0.003763
845.8010	0.005829
846.0390	0.003489
846.2770	0.003890
846.5149	0.003890
846.7529	0.003173
846.9909	0.003552
847.2289	0.004607
847.4669	0.003932
847.7050	0.005218
847.9430	0.004058
848.1810	0.004227
848.4191	0.004480
848.6571	0.003278
848.8952	0.003194
849.1333	0.004122
849.3713	0.004269
849.6094	0.003510
849.8475	0.003700
850.0856	0.004079
850.3237	0.003784
850.5619	0.004817
850.8000	0.004058
851.0381	0.003321
851.2763	0.003953
851.5144	0.002456
851.7526	0.003321
851.9908	0.003236
852.2289	0.003637
852.4671	0.006103
852.7053	0.006040
852.9435	0.006525
853.1817	0.008296
853.4200	0.008907
853.6582	0.009013
853.8964	0.010805
854.1347	0.009962
854.3729	0.010742
854.6112	0.009709
854.8495	0.009392
855.0877	0.009898
855.3260	0.009097
855.5643	0.009877
855.8026	0.007769
856.0409	0.010172
856.2792	0.008802
856.5176	0.008486
856.7559	0.010383
856.9942	0.008633
857.2326	0.008338
857.4710	0.007790
857.7093	0.008591
857.9477	0.007874
858.1861	0.005724
858.4245	0.007642
858.6629	0.005323
858.9013	0.006673
859.1397	0.007537
859.3781	0.005745
859.6166	0.005429
859.8550	0.005387
860.0935	0.005956
860.3319	0.004058
860.5704	0.006082
860.8089	0.005724
861.0473	0.004164
861.2858	0.006462
861.5243	0.004396
861.7628	0.003974
862.0013	0.005724
862.2399	0.004185
862.4784	0.006293
862.7169	0.004122
862.9555	0.004459
863.1940	0.003257
863.4326	0.005640
863.6712	0.004607
863.9098	0.003995
864.1483	0.004480
864.3869	0.005555
864.6255	0.004712
864.8642	0.005260
865.1028	0.004860
865.3414	0.003552
865.5800	0.004396
865.8187	0.003700
866.0573	0.003278
866.2960	0.003321
866.5347	0.003131
866.7733	0.002815
867.0120	0.003278
867.2507	0.004143
867.4894	0.004185
867.7281	0.003721
867.9669	0.004480
868.2056	0.004607
868.4443	0.004417
868.6831	0.004185
868.9218	0.003110
869.1606	0.003447
869.3993	0.002836
869.6381	0.004058
869.8769	0.003890
870.1157	0.002351
870.3545	0.002393
870.5933	0.003426
870.8321	0.003215
871.0709	0.003848
871.3097	0.003552
871.5486	0.004016
871.7874	0.003616
872.0263	0.002730
872.2651	0.003363
872.5040	0.004860
872.7429	0.003131
872.9818	0.002857
873.2207	0.003299
873.4596	0.003595
873.6985	0.003468
873.9374	0.003911
874.1763	0.003025
874.4153	0.005091
874.6542	0.004564
874.8932	0.004986
875.1321	0.002393
875.3711	0.004354
875.6101	0.005366
875.8491	0.003974
876.0880	0.005239
876.3270	0.004796
876.5661	0.004775
876.8051	0.003447
877.0441	0.004607
877.2831	0.003510
877.5222	0.004079
877.7612	0.004396
878.0003	0.004902
878.2393	0.004838
878.4784	0.004923
878.7175	0.004754
878.9566	0.004290
879.1957	0.005893
879.4348	0.004185
879.6739	0.004670
879.9130	0.005155
880.1521	0.005155
880.3913	0.005323
880.6304	0.006019
880.8696	0.005450
881.1087	0.005070
881.3479	0.005850
881.5871	0.004438
881.8262	0.004775
882.0654	0.003911
882.3046	0.004838
882.5438	0.004122
882.7831	0.004902
883.0223	0.002815
883.2615	0.005492
883.5007	0.004037
883.7400	0.004796
883.9792	0.003763
884.2185	0.003110
884.4578	0.003742
884.6971	0.004122
884.9363	0.003953
885.1756	0.002646
885.4149	0.003721
885.6542	0.005344
885.8936	0.005935
886.1329	0.005766
886.3722	0.005724
886.6116	0.005049
886.8509	0.004480
887.0903	0.002772
887.3296	0.003637
887.5690	0.003321
887.8084	0.002941
888.0478	0.003953
888.2872	0.003278
888.5266	0.004902
888.7660	0.002983
889.0054	0.004607
889.2448	0.001803
889.4843	0.004838
889.7237	0.002899
889.9632	0.002330
890.2026	0.001803
890.4421	0.002941
890.6816	0.003995
890.9211	0.004058
891.1606	0.002962
891.4001	0.002836
891.6396	0.002540
891.8791	0.002393
892.1186	0.003763
892.3581	0.002625
892.5977	0.002562
892.8372	0.004902
893.0768	0.003573
893.3163	0.003363
893.5559	0.003911
893.7955	0.002983
894.0351	0.003447
894.2747	0.003953
894.5143	0.003616
894.7539	0.002098
894.9935	0.003616
895.2331	0.001655
895.4727	0.002393
895.7124	0.002140
895.9520	0.003131
896.1917	0.004058
896.4314	0.003995
896.6710	0.003679
896.9107	0.004185
897.1504	0.002920
897.3901	0.004417
897.6298	0.003826
897.8695	0.002836
898.1092	0.003995
898.3489	0.003025
898.5887	0.003173
898.8284	0.003004
899.0682	0.003911
899.3079	0.003342
899.5477	0.002983
899.7875	0.004290
900.0272	0.002372
900.2670	0.002583
900.5068	0.003342
900.7466	0.002857
900.9864	0.001718
901.2263	0.003784
901.4661	0.003700
901.7059	0.003363
901.9458	0.002562
902.1856	0.003489
902.4255	0.003510
902.6654	0.002456
902.9052	0.003173
903.1451	0.003426
903.3850	0.003278
903.6249	0.002477
903.8648	0.002182
904.1047	0.003194
904.3446	0.003995
904.5846	0.003468
904.8245	0.003531
905.0644	0.002498
905.3044	0.004290
905.5444	0.002772
905.7843	0.003974
906.0243	0.004164
906.2643	0.005091
906.5043	0.002793
906.7443	0.002920
906.9843	0.002983
907.2243	0.002330
907.4643	0.003763
907.7043	0.002203
907.9444	0.001760
908.1844	0.004396
908.4245	0.003911
908.6645	0.003004
908.9046	0.003426
909.1447	0.003004
909.3847	0.002836
909.6248	0.001950
909.8649	0.002119
910.1050	0.003215
910.3452	0.003299
910.5853	0.003489
910.8254	0.002625
911.0655	0.002414
911.3057	0.002962
911.5458	0.003194
911.7860	0.002056
912.0262	0.002182
912.2663	0.003194
912.5065	0.002583
912.7467	0.003890
912.9869	0.003595
913.2271	0.001592
913.4673	0.004649
913.7075	0.001781
913.9478	0.003068
914.1880	0.001571
914.4283	0.003974
914.6685	0.001571
914.9088	0.001381
915.1490	0.001992
915.3893	0.002161
915.6296	0.002477
915.8699	0.002709
916.1102	0.002435
916.3505	0.002878
916.5908	0.002709
916.8311	0.001887
917.0714	0.002435
917.3118	0.002983
917.5521	0.003089
917.7925	0.003658
918.0328	0.003236
918.2732	0.004016
918.5136	0.001465
918.7539	0.002983
918.9943	0.002625
919.2347	0.003004
919.4751	0.002772
919.7155	0.002836
919.9560	0.001950
920.1964	0.002604
920.4368	0.002688
920.6773	0.002709
920.9177	0.002477
921.1582	0.002056
921.3986	0.003068
921.6391	0.002646
921.8796	0.001128
922.1201	0.002477
922.3606	0.001908
922.6011	0.002751
922.8416	0.002098
923.0821	0.002625
923.3226	0.002688
923.5631	0.002140
923.8037	0.001275
924.0442	0.003658
924.2848	0.002857
924.5254	0.002245
924.7659	0.002540
925.0065	0.003046
925.2471	0.001360
925.4877	0.002140
925.7283	0.002372
925.9689	0.002519
926.2095	0.002182
926.4501	0.001739
926.6908	0.002456
926.9314	0.001887
927.1720	0.001465
927.4127	0.001971
927.6533	0.001824
927.8940	0.002119
928.1347	0.000833
928.3754	0.001191
928.6161	0.001571
928.8568	0.001845
929.0975	0.002562
929.3382	0.001781
929.5789	0.000727
929.8196	0.002941
930.0604	0.001191
930.3011	0.001107
930.5419	0.001212
930.7826	0.002519
931.0234	0.000622
931.2642	0.002477
931.5049	0.001486
931.7457	0.002077
931.9865	0.000917
932.2273	0.002119
932.4681	0.001170
932.7089	0.002119
932.9498	0.001887
933.1906	0.003299
933.4314	0.001676
933.6723	0.001845
933.9131	0.001824
934.1540	0.002899
934.3949	0.000474
934.6358	0.001971
934.8766	0.001507
935.1175	0.001803
935.3584	0.002498
935.5993	0.000685
935.8403	0.001318
936.0812	0.001254
936.3221	0.001676
936.5630	0.000643
936.8040	0.000812
937.0449	0.001360
937.2859	0.001044
937.5269	0.002351
937.7678	0.002435
938.0088	0.002604
938.2498	0.001465
938.4908	0.000748
938.7318	0.002372
938.9728	0.000432
939.2138	0.001465
939.4549	0.001149
939.6959	0.000095
939.9369	0.001297
940.1780	-0.000116
940.4190	0.001233
940.6601	0.001866
940.9012	0.000854
941.1422	0.002857
941.3833	0.000664
941.6244	0.000917
941.8655	0.001423
942.1066	-0.000137
942.3477	0.000495
942.5889	0.001824
942.8300	0.001149
943.0711	0.002477
943.3123	-0.000306
943.5534	0.001950
943.7946	0.001824
944.0357	0.001170
944.2769	0.000770
944.5181	0.000285
944.7593	0.000432
945.0005	0.001929
945.2417	0.001212
945.4829	0.001760
945.7241	0.000980
945.9653	0.000748
946.2066	0.000748
946.4478	0.000664
946.6891	0.001507
946.9303	0.003025
947.1716	0.001044
947.4128	0.001170
947.6541	0.000495
947.8954	0.002604
948.1367	-0.000495
948.3780	0.001971
948.6193	0.000285
948.8606	0.001465
949.1019	0.000390
949.3433	0.002013
949.5846	0.000538
949.8259	0.002519
950.0673	0.000875
950.3086	0.000727
950.5500	-0.000875
950.7914	0.000685
951.0327	-0.000685
951.2741	0.000264
951.5155	0.000411
951.7569	0.001507
951.9983	0.002519
952.2398	0.000854
952.4812	0.001001
952.7226	0.002013
952.9640	0.002119
953.2055	0.002182
953.4469	0.001149
953.6884	0.002625
953.9299	0.002667
954.1713	0.000538
954.4128	0.001592
954.6543	0.001571
954.8958	0.000580
955.1373	0.001971
955.3788	0.000664
955.6203	0.001592
955.8618	-0.000285
956.1034	0.001402
956.3449	0.001318
956.5865	0.001655
956.8280	0.000137
957.0696	0.001781
957.3111	0.000664
957.5527	0.001423
957.7943	-0.000770
958.0359	0.000517
958.2775	0.001845
958.5191	0.001254
958.7607	0.000327
959.0023	0.001507
959.2439	0.000095
959.4856	0.001528
959.7272	0.001044
959.9688	0.000896
960.2105	-0.000369
960.4522	0.001149
960.6938	-0.000179
960.9355	0.001001
961.1772	0.001824
961.4189	0.001001
961.6606	0.000938
961.9023	0.001845
962.1440	0.000390
962.3857	0.000559
962.6274	0.000432
962.8692	-0.000074
963.1109	0.000348
963.3527	0.000474
963.5944	0.002013
963.8362	-0.000474
964.0779	0.000959
964.3197	0.001001
964.5615	0.000580
964.8033	0.000664
965.0451	0.000896
965.2869	0.001423
965.5287	0.001149
965.7705	0.000179
966.0123	0.000327
966.2542	0.000896
966.4960	0.000095
966.7379	0.000770
966.9797	0.001760
967.2216	0.002266
967.4634	0.000959
967.7053	0.001465
967.9472	-0.000411
968.1891	0.001044
968.4310	0.001318
968.6729	0.001528
968.9148	0.000432
969.1567	0.000938
969.3987	0.000116
969.6406	0.002098
969.8825	-0.001086
970.1245	0.002266
970.3664	0.001275
970.6084	0.000664
970.8504	0.000053
971.0923	0.002013
971.3343	0.000306
971.5763	0.001339
971.8183	-0.000074
972.0603	0.001001
972.3023	0.001191
972.5443	0.000179
972.7864	0.001550
973.0284	0.001360
973.2704	0.000706
973.5125	0.001676
973.7545	0.001339
973.9966	0.001634
974.2387	-0.000074
974.4807	0.001065
974.7228	0.001381
974.9649	0.002098
975.2070	0.000854
975.4491	0.000327
975.6912	0.001275
975.9333	0.001233
976.1755	0.001571
976.4176	0.000875
976.6597	-0.000264
976.9019	0.001254
977.1440	0.001465
977.3862	-0.000833
977.6283	-0.000706
977.8705	0.001254
978.1127	-0.000264
978.3549	0.000854
978.5971	0.000685
978.8393	0.001339
979.0815	-0.001170
979.3237	0.000791
979.5659	-0.000538
979.8082	0.001528
980.0504	-0.000664
980.2926	0.002013
980.5349	-0.000179
980.7771	0.000538
981.0194	0.001381
981.2617	0.001950
981.5040	0.000854
981.7462	-0.000538
981.9885	0.001170
982.2308	0.001676
982.4731	0.001086
982.7155	0.002540
982.9578	0.001781
983.2001	0.001297
983.4424	0.001845
983.6848	0.001507
983.9271	0.000348
984.1695	0.001613
984.4118	0.000664
984.6542	0.001381
984.8966	-0.000664
985.1390	0.000664
985.3814	-0.000453
985.6238	0.000812
985.8662	-0.000221
986.1086	0.000580
986.3510	0.000538
986.5934	0.001233
986.8358	0.000011
987.0783	0.001001
987.3207	0.000727
987.5632	-0.000411
987.8056	0.000032
988.0481	0.002056
988.2906	0.000896
988.5331	-0.000074
988.7756	-0.000791
989.0180	0.001423
989.2605	0.000664
989.5031	0.000390
989.7456	0.000242
989.9881	0.001423
990.2306	0.000854
990.4732	0.000453
990.7157	0.000285
990.9582	0.000580
991.2008	0.001128
991.4434	0.000495
991.6859	-0.000538
991.9285	0.000179
992.1711	0.001634
992.4137	0.002140
992.6563	0.000959
992.8989	0.000580
993.1415	0.001128
993.3841	0.001423
993.6267	-0.000432
993.8694	0.000980
994.1120	0.001402
994.3547	0.001571
994.5973	-0.000011
994.8400	-0.000242
995.0826	0.000580
995.3253	0.001023
995.5680	0.000812
995.8107	0.001044
996.0534	0.000580
996.2961	0.000495
996.5388	0.000517
996.7815	0.001571
997.0242	-0.000938
997.2670	-0.000538
997.5097	0.000285
997.7524	0.000264
997.9952	0.000411
998.2379	-0.000622
998.4807	0.000242
998.7235	0.001444
998.9662	0.000306
999.2090	0.002034
999.4518	0.000053
999.6946	0.000495
999.9374	0.000664
1000.1802	0.000011
1000.4230	0.001023
1000.6659	0.001044
1000.9087	0.000601
1001.1515	0.001465
1001.3944	0.000538
1001.6372	0.000264
1001.8801	0.001318
1002.1230	0.001297
1002.3658	0.002456
1002.6087	-0.000306
1002.8516	0.002077
1003.0945	0.000285
1003.3374	0.001929
1003.5803	0.001044
1003.8232	0.001275
1004.0661	0.000116
1004.3091	0.001360
1004.5520	0.000770
1004.7949	0.001402
1005.0379	-0.000053
1005.2808	-0.000938
1005.5238	0.000517
1005.7667	0.000327
1006.0097	-0.000348
1006.2527	0.000875
1006.4957	-0.000559
1006.7387	0.000242
1006.9817	0.001107
1007.2247	0.001360
1007.4677	0.001971
1007.7107	0.002709
1007.9538	0.000896
1008.1968	0.002730
1008.4398	0.001001
1008.6829	0.001297
1008.9259	0.001086
1009.1690	0.000032
1009.4121	0.000748
1009.6551	0.000137
1009.8982	0.000917
1010.1413	0.000685
1010.3844	0.000664
1010.6275	-0.000179
1010.8706	0.000896
1011.1137	-0.000495
1011.3568	-0.000348
1011.6000	0.000538
1011.8431	-0.000390
1012.0863	0.001550
1012.3294	0.000495
1012.5726	0.000517
1012.8157	0.002224
1013.0589	-0.000179
1013.3021	-0.000095
1013.5452	0.001128
1013.7884	0.000453
1014.0316	0.000474
1014.2748	0.000348
1014.5180	-0.000664
1014.7613	0.000495
1015.0045	0.000179
1015.2477	0.001507
1015.4909	0.000285
1015.7342	0.000179
1015.9774	0.001929
1016.2207	0.000264
1016.4640	0.000179
1016.7072	-0.000517
1016.9505	0.001191
1017.1938	0.001718
1017.4371	0.000264
1017.6804	-0.000517
1017.9237	0.001676
1018.1670	0.001086
1018.4103	0.000896
1018.6536	-0.000538
1018.8969	0.001465
1019.1403	-0.000390
1019.3836	0.001550
1019.6270	0.000875
1019.8703	0.001107
1020.1137	0.000432
1020.3571	-0.000011
1020.6004	-0.000053
1020.8438	0.001381
1021.0872	0.000242
1021.3306	0.001381
1021.5740	0.000938
1021.8174	0.000580
1022.0608	0.000221
1022.3042	0.000221
1022.5477	0.001360
1022.7911	0.000074
1023.0345	-0.000474
