# Wavelength (nm)	Intensity (a.u.)
197.7802	-0.000643
197.9842	-0.001489
198.1882	0.000583
198.3922	-0.000453
198.5963	-0.000707
198.8003	0.000562
199.0044	0.000139
199.2085	0.000118
199.4126	0.000943
199.6168	-0.001405
199.8209	0.002233
200.0251	-0.001764
200.2292	-0.000009
200.4334	-0.000241
200.6376	-0.000072
200.8418	0.000901
201.0461	0.001641
201.2503	-0.000538
201.4546	0.000774
201.6589	-0.000664
201.8631	0.001049
202.0674	0.000499
202.2718	0.001133
202.4761	-0.000749
202.6805	0.000118
202.8848	-0.001003
203.0892	-0.000707
203.2936	0.000985
203.4980	0.000055
203.7024	0.000837
203.9069	0.000182
204.1113	0.000414
204.3158	-0.000136
204.5203	0.000943
204.7248	-0.000389
204.9293	-0.001954
205.1338	0.001133
205.3384	-0.002187
205.5430	-0.000601
205.7475	-0.000368
205.9521	0.001831
206.1567	0.001746
206.3614	0.000922
206.5660	0.001916
206.7706	0.002254
206.9753	0.000774
207.1800	-0.000157
207.3847	0.000393
207.5894	0.000012
207.7941	-0.000241
207.9989	0.001810
208.2036	0.000097
208.4084	0.000943
208.6132	-0.000241
208.8180	0.001725
209.0228	-0.001214
209.2276	0.000478
209.4325	0.000372
209.6373	0.000245
209.8422	-0.001637
210.0471	0.001239
210.2520	-0.000241
210.4569	0.000308
210.6618	-0.000072
210.8668	0.000139
211.0718	-0.001066
211.2767	0.001493
211.4817	0.001175
211.6867	-0.000030
211.8918	0.000922
212.0968	0.000668
212.3018	0.000689
212.5069	0.002212
212.7120	0.000795
212.9171	0.000541
213.1222	0.000351
213.3273	0.000203
213.5325	0.000795
213.7376	-0.001257
213.9428	-0.000918
214.1480	-0.000918
214.3532	-0.000580
214.5584	0.000266
214.7636	-0.000263
214.9689	-0.000538
215.1741	-0.001426
215.3794	-0.000030
215.5847	-0.001362
215.7900	-0.000220
215.9953	0.000330
216.2007	0.001408
216.4060	-0.000411
216.6114	0.000139
216.8168	-0.000389
217.0222	-0.000030
217.2276	0.000816
217.4330	-0.000115
217.6384	0.000922
217.8439	0.000731
218.0494	-0.000347
218.2548	0.001070
218.4603	-0.000516
218.6659	0.001641
218.8714	0.000943
219.0769	0.001197
219.2825	0.000033
219.4881	0.000562
219.6936	0.000266
219.8992	0.002000
220.1049	-0.000241
220.3105	-0.000728
220.5161	-0.000707
220.7218	0.000287
220.9275	0.001154
221.1332	-0.000178
221.3389	0.000033
221.5446	0.000604
221.7503	-0.000030
221.9561	0.001472
222.1618	0.000541
222.3676	0.000583
222.5734	-0.001468
222.7792	0.000160
222.9850	0.000203
223.1909	0.000816
223.3967	-0.000516
223.6026	0.000055
223.8085	0.000351
224.0144	-0.000453
224.2203	-0.000368
224.4262	0.000604
224.6322	0.002106
224.8381	-0.001087
225.0441	-0.001362
225.2501	0.000710
225.4561	-0.000178
225.6621	0.000266
225.8681	-0.000474
226.0742	-0.000411
226.2802	-0.000601
226.4863	-0.000136
226.6924	0.001027
226.8985	0.000922
227.1046	-0.000960
227.3107	-0.000982
227.5169	-0.000749
227.7230	-0.001066
227.9292	0.001324
228.1354	0.001450
228.3416	-0.000284
228.5478	0.002021
228.7541	-0.000389
228.9603	0.000330
229.1666	0.001429
229.3729	-0.000030
229.5791	-0.001109
229.7855	-0.001003
229.9918	-0.001257
230.1981	-0.001489
230.4045	0.001006
230.6108	-0.000093
230.8172	0.001175
231.0236	-0.001299
231.2300	-0.001806
231.4364	-0.001193
231.6429	-0.000284
231.8493	0.001958
232.0558	-0.002356
232.2623	-0.000347
232.4688	0.000795
232.6753	0.000456
232.8818	0.000287
233.0884	-0.000220
233.2949	0.000203
233.5015	0.001070
233.7081	0.000012
233.9147	-0.000516
234.1213	-0.000115
234.3279	0.000731
234.5346	0.000203
234.7413	0.000985
234.9479	-0.000072
235.1546	0.000604
235.3613	-0.000580
235.5680	0.000245
235.7748	-0.000326
235.9815	0.000012
236.1883	-0.000411
236.3951	0.001704
236.6018	0.001472
236.8087	0.001895
237.0155	0.000414
237.2223	-0.000601
237.4292	0.000689
237.6360	0.000478
237.8429	0.001641
238.0498	-0.000199
238.2567	-0.000622
238.4636	0.002021
238.6706	0.000858
238.8775	-0.000199
239.0845	-0.000643
239.2915	-0.000030
239.4985	-0.001172
239.7055	-0.000432
239.9125	-0.001680
240.1195	0.000308
240.3266	-0.000474
240.5337	0.000287
240.7407	0.001070
240.9478	-0.000918
241.1549	-0.001680
241.3621	0.000456
241.5692	-0.000389
241.7764	0.000604
241.9835	-0.000432
242.1907	0.000182
242.3979	-0.000834
242.6051	0.000964
242.8124	0.000731
243.0196	-0.000728
243.2269	-0.000326
243.4341	0.000816
243.6414	0.000372
243.8487	0.000626
244.0560	0.002275
244.2634	0.001175
244.4707	-0.000474
244.6781	0.000224
244.8854	-0.000051
245.0928	0.000414
245.3002	-0.001806
245.5076	-0.000538
245.7151	-0.000516
245.9225	0.000837
246.1300	-0.000834
246.3375	0.000393
246.5449	-0.000559
246.7524	-0.000072
246.9600	-0.000072
247.1675	0.002254
247.3750	0.001006
247.5826	0.001049
247.7902	-0.001976
247.9978	0.000626
248.2054	-0.000326
248.4130	-0.000368
248.6206	0.000647
248.8283	0.000160
249.0359	0.002021
249.2436	0.001704
249.4513	-0.000326
249.6590	-0.000495
249.8667	0.000266
250.0745	0.000182
250.2822	-0.000305
250.4900	-0.000411
250.6978	-0.001976
250.9056	0.000351
251.1134	-0.000178
251.3212	0.001620
251.5290	0.000012
251.7369	0.000055
251.9447	-0.001553
252.1526	-0.000326
252.3605	0.000160
252.5684	0.000456
252.7763	-0.001383
252.9843	-0.000474
253.1922	-0.001130
253.4002	0.001091
253.6082	-0.000411
253.8162	-0.000516
254.0242	-0.001405
254.2322	0.000435
254.4402	-0.000030
254.6483	0.000287
254.8564	-0.001172
255.0644	0.000033
255.2725	-0.000030
255.4806	-0.000347
255.6888	-0.001743
255.8969	0.000816
256.1051	-0.000939
256.3132	0.000266
256.5214	0.002127
256.7296	0.000287
256.9378	0.000330
257.1460	0.000435
257.3543	-0.001214
257.5625	0.001154
257.7708	-0.001743
257.9791	-0.001405
258.1874	-0.001130
258.3957	0.002169
258.6040	-0.000368
258.8124	0.001598
259.0207	0.001049
259.2291	0.001345
259.4375	-0.000939
259.6459	-0.000411
259.8543	-0.000432
260.0627	0.001239
260.2711	-0.000559
260.4796	-0.001003
260.6881	0.001324
260.8965	0.000604
261.1050	-0.000326
261.3135	-0.000559
261.5221	-0.000982
261.7306	0.002148
261.9392	0.000922
262.1477	0.001450
262.3563	0.001006
262.5649	-0.000157
262.7735	0.001260
262.9822	0.000266
263.1908	-0.000305
263.3995	0.000731
263.6081	-0.000411
263.8168	-0.001214
264.0255	0.000203
264.2342	-0.000347
264.4429	-0.001489
264.6517	0.001704
264.8604	-0.000030
265.0692	-0.000897
265.2780	-0.001616
265.4868	-0.001087
265.6956	-0.001172
265.9044	0.002635
266.1133	-0.000601
266.3221	0.000689
266.5310	0.000076
266.7399	0.000520
266.9488	0.000372
267.1577	-0.000918
267.3666	-0.000157
267.5755	-0.000834
267.7845	-0.000812
267.9935	-0.000009
268.2024	0.000033
268.4114	-0.000389
268.6205	-0.001193
268.8295	-0.000305
269.0385	0.000435
269.2476	0.001620
269.4566	-0.000072
269.6657	0.001197
269.8748	0.000097
270.0839	0.000689
270.2931	-0.001151
270.5022	0.000478
270.7114	-0.000157
270.9205	-0.000072
271.1297	0.000308
271.3389	0.001556
271.5481	0.000499
271.7573	0.000139
271.9666	-0.000326
272.1758	-0.000538
272.3851	-0.001151
272.5944	-0.000368
272.8037	-0.001468
273.0130	-0.001278
273.2223	0.000330
273.4316	0.000224
273.6410	-0.000220
273.8504	0.001958
274.0597	-0.000538
274.2691	0.000456
274.4785	-0.001722
274.6880	-0.001362
274.8974	0.000499
275.1069	-0.000580
275.3163	-0.001680
275.5258	-0.001849
275.7353	-0.001722
275.9448	-0.000368
276.1543	-0.001257
276.3639	-0.000347
276.5734	-0.000686
276.7830	-0.001828
276.9926	-0.000241
277.2022	-0.000474
277.4118	-0.001447
277.6214	-0.000284
277.8310	-0.001976
278.0407	0.000626
278.2503	0.000118
278.4600	0.000816
278.6697	0.001345
278.8794	-0.000749
279.0891	-0.001510
279.2989	0.000055
279.5086	0.000922
279.7184	0.000287
279.9281	-0.001468
280.1379	0.000816
280.3477	-0.001489
280.5576	-0.000982
280.7674	0.000668
280.9772	0.000160
281.1871	0.000118
281.3970	-0.000453
281.6069	0.001281
281.8168	0.000795
282.0267	0.000393
282.2366	-0.001172
282.4466	-0.000284
282.6565	0.000478
282.8665	-0.000326
283.0765	0.000583
283.2865	0.001746
283.4965	0.000858
283.7065	0.000647
283.9166	-0.000812
284.1266	-0.001172
284.3367	-0.000220
284.5468	0.000266
284.7569	-0.000368
284.9670	-0.000241
285.1771	0.000118
285.3873	-0.000030
285.5974	0.000541
285.8076	0.001916
286.0178	0.000858
286.2280	-0.000136
286.4382	0.001683
286.6484	0.000499
286.8587	0.001831
287.0689	0.000160
287.2792	0.001281
287.4895	0.000203
287.6998	0.000689
287.9101	-0.000263
288.1204	0.000456
288.3308	0.000393
288.5411	0.000203
288.7515	0.000076
288.9619	-0.000093
289.1723	-0.000411
289.3827	-0.000791
289.5931	-0.000474
289.8035	-0.000453
290.0140	0.000499
290.2245	0.000710
290.4349	-0.000622
290.6454	0.000985
290.8559	0.000435
291.0665	-0.000453
291.2770	-0.000749
291.4875	0.000774
291.6981	-0.000834
291.9087	-0.001722
292.1193	-0.000834
292.3299	0.000372
292.5405	0.001197
292.7511	0.000879
292.9618	-0.000580
293.1724	0.000055
293.3831	0.002402
293.5938	0.000055
293.8045	-0.001003
294.0152	-0.000326
294.2260	-0.000791
294.4367	0.000604
294.6475	-0.001616
294.8582	0.000499
295.0690	-0.001574
295.2798	0.000414
295.4906	-0.000136
295.7015	-0.001489
295.9123	0.000245
296.1232	-0.000347
296.3340	0.000414
296.5449	-0.000136
296.7558	-0.000580
296.9667	-0.000834
297.1777	-0.000686
297.3886	-0.000136
297.5995	-0.000136
297.8105	0.001916
298.0215	0.000033
298.2325	-0.000664
298.4435	-0.000051
298.6545	0.000774
298.8656	0.001133
299.0766	-0.000664
299.2877	-0.001891
299.4988	-0.000199
299.7099	-0.000389
299.9210	0.000689
300.1321	0.002212
300.3432	-0.000051
300.5544	0.000478
300.7655	0.000182
300.9767	-0.000093
301.1879	-0.000516
301.3991	-0.000474
301.6103	0.000372
301.8215	-0.001616
302.0328	0.000668
302.2441	0.000478
302.4553	0.000520
302.6666	-0.000389
302.8779	-0.000707
303.0892	-0.001870
303.3006	0.001387
303.5119	0.000837
303.7233	0.000266
303.9346	0.000689
304.1460	0.000055
304.3574	0.001873
304.5688	-0.000009
304.7803	-0.001045
304.9917	0.001598
305.2031	0.000287
305.4146	-0.000326
305.6261	0.000774
305.8376	-0.000559
306.0491	-0.000834
306.2606	0.000266
306.4722	-0.001553
306.6837	-0.001235
306.8953	-0.000749
307.1069	0.000139
307.3184	0.000647
307.5301	-0.000009
307.7417	-0.001066
307.9533	0.000160
308.1650	-0.000749
308.3766	0.000985
308.5883	-0.000770
308.8000	0.000478
309.0117	-0.000093
309.2234	0.000033
309.4351	-0.001151
309.6469	-0.001637
309.8586	0.000351
310.0704	0.001789
310.2822	0.000901
310.4940	0.000731
310.7058	-0.001257
310.9176	-0.000516
311.1295	-0.001912
311.3413	0.000541
311.5532	-0.000982
311.7651	0.000055
311.9770	-0.001066
312.1889	0.001768
312.4008	-0.001426
312.6127	-0.001087
312.8247	-0.001468
313.0366	0.000520
313.2486	-0.000982
313.4606	-0.000051
313.6726	0.000287
313.8846	0.000901
314.0967	0.000266
314.3087	-0.001066
314.5208	-0.000474
314.7328	0.000308
314.9449	-0.000411
315.1570	0.000076
315.3692	0.000858
315.5813	0.001133
315.7934	0.000583
316.0056	0.000562
316.2177	-0.000580
316.4299	-0.001257
316.6421	-0.000411
316.8543	-0.000960
317.0666	-0.000664
317.2788	-0.001954
317.4911	0.000118
317.7033	-0.000263
317.9156	-0.000157
318.1279	-0.000051
318.3402	-0.000347
318.5525	-0.000664
318.7649	-0.001849
318.9772	-0.001024
319.1896	0.000097
319.4019	0.000795
319.6143	0.000478
319.8267	0.000435
320.0392	-0.000093
320.2516	-0.001595
320.4640	-0.001130
320.6765	-0.001193
320.8890	-0.000347
321.1014	-0.001299
321.3139	0.001049
321.5265	0.001112
321.7390	0.000287
321.9515	-0.000770
322.1641	-0.000982
322.3766	-0.000580
322.5892	0.000435
322.8018	0.000012
323.0144	0.000393
323.2270	0.001091
323.4397	-0.001109
323.6523	-0.000664
323.8650	-0.000347
324.0777	0.000731
324.2904	0.000055
324.5031	0.000330
324.7158	0.000499
324.9285	-0.000115
325.1412	-0.000136
325.3540	-0.000601
325.5668	-0.002800
325.7796	-0.000876
325.9924	-0.000686
326.2052	0.000689
326.4180	-0.000115
326.6308	0.001197
326.8437	-0.002102
327.0566	0.000033
327.2694	0.000414
327.4823	-0.001045
327.6952	0.001281
327.9082	0.001450
328.1211	-0.001637
328.3340	-0.000601
328.5470	0.000118
328.7600	-0.000474
328.9730	0.000330
329.1860	0.000224
329.3990	0.000710
329.6120	0.000562
329.8251	-0.000389
330.0381	0.001408
330.2512	-0.000220
330.4643	0.000858
330.6774	-0.000559
330.8905	-0.000749
331.1036	0.000985
331.3167	0.000626
331.5299	-0.000664
331.7431	-0.000178
331.9562	-0.001553
332.1694	-0.000030
332.3826	-0.001764
332.5959	0.000901
332.8091	0.000182
333.0223	0.000245
333.2356	0.000689
333.4489	-0.000241
333.6622	-0.000220
333.8755	0.000160
334.0888	-0.000411
334.3021	-0.000263
334.5154	0.001070
334.7288	0.000964
334.9422	-0.000051
335.1555	-0.000791
335.3689	0.001006
335.5823	0.001556
335.7958	-0.000157
336.0092	0.000985
336.2227	0.000964
336.4361	-0.000115
336.6496	-0.000812
336.8631	-0.000707
337.0766	-0.000072
337.2901	-0.000326
337.5036	-0.000538
337.7172	0.001408
337.9307	-0.002272
338.1443	0.000076
338.3579	0.000033
338.5715	0.001873
338.7851	-0.001235
338.9987	-0.000326
339.2124	-0.002335
339.4260	0.000456
339.6397	-0.001172
339.8533	0.001197
340.0670	-0.001405
340.2807	0.000055
340.4945	-0.000622
340.7082	0.000774
340.9219	0.000033
341.1357	0.000435
341.3495	-0.000960
341.5633	-0.000051
341.7771	-0.000368
341.9909	0.003459
342.2047	-0.001003
342.4185	-0.001087
342.6324	0.000033
342.8463	-0.000918
343.0601	0.000224
343.2740	0.000795
343.4879	0.000076
343.7019	-0.000495
343.9158	0.000456
344.1297	0.001006
344.3437	-0.000791
344.5577	0.000414
344.7717	-0.000812
344.9857	0.000816
345.1997	0.000203
345.4137	0.002043
345.6277	-0.000918
345.8418	-0.001976
346.0559	0.001281
346.2699	0.001387
346.4840	-0.000009
346.6981	0.000245
346.9123	-0.000495
347.1264	-0.000136
347.3406	-0.000368
347.5547	0.000435
347.7689	0.000414
347.9831	0.000456
348.1973	0.001366
348.4115	0.000668
348.6257	-0.000601
348.8400	0.000943
349.0542	0.000520
349.2685	-0.000199
349.4828	0.000203
349.6971	-0.001933
349.9114	0.000520
350.1257	-0.000538
350.3400	-0.000157
350.5544	0.000330
350.7687	0.000795
350.9831	-0.000093
351.1975	0.001979
351.4119	0.001239
351.6263	0.000943
351.8407	-0.000432
352.0552	0.001704
352.2696	-0.001045
352.4841	-0.000284
352.6986	-0.000389
352.9131	0.000943
353.1276	-0.000812
353.3421	0.000541
353.5566	0.000055
353.7712	-0.000918
353.9858	0.001493
354.2003	0.001175
354.4149	-0.000580
354.6295	-0.000072
354.8441	-0.000157
355.0588	0.000689
355.2734	-0.000474
355.4881	0.000985
355.7027	0.000901
355.9174	-0.001828
356.1321	-0.001806
356.3468	-0.001658
356.5615	-0.000812
356.7763	0.000499
356.9910	0.001218
357.2058	0.000182
357.4206	-0.000220
357.6353	-0.001341
357.8501	0.000731
358.0650	0.000456
358.2798	0.001070
358.4946	0.000478
358.7095	0.001852
358.9243	-0.000157
359.1392	-0.000622
359.3541	-0.002420
359.5690	0.000541
359.7839	0.000372
359.9989	-0.000009
360.2138	-0.000347
360.4288	-0.001214
360.6438	0.000583
360.8587	0.000816
361.0737	0.000351
361.2888	-0.000220
361.5038	0.000774
361.7188	0.001472
361.9339	0.000604
362.1489	-0.000368
362.3640	0.000033
362.5791	-0.001045
362.7942	-0.000368
363.0093	-0.000263
363.2245	0.000901
363.4396	0.001091
363.6548	0.000351
363.8699	0.001281
364.0851	0.000922
364.3003	0.000858
364.5155	-0.000432
364.7308	0.000562
364.9460	-0.000960
365.1612	-0.000030
365.3765	-0.000559
365.5918	-0.000559
365.8071	0.000245
366.0224	0.001598
366.2377	-0.001045
366.4530	-0.000220
366.6684	-0.000664
366.8837	0.000499
367.0991	-0.000199
367.3145	-0.001151
367.5299	-0.001574
367.7453	-0.000897
367.9607	0.000351
368.1761	0.000795
368.3916	0.000055
368.6070	0.000668
368.8225	-0.000728
369.0380	-0.000411
369.2535	-0.000728
369.4690	-0.000580
369.6845	0.000076
369.9001	0.001450
370.1156	-0.000389
370.3312	0.000012
370.5468	-0.000495
370.7624	-0.000876
370.9780	0.000456
371.1936	0.000647
371.4092	0.000139
371.6249	0.000012
371.8405	0.000203
372.0562	-0.001722
372.2719	0.001514
372.4876	-0.000960
372.7033	-0.000284
372.9190	-0.000453
373.1348	-0.000411
373.3505	-0.001087
373.5663	0.001641
373.7820	-0.001087
373.9978	-0.000960
374.2136	0.000753
374.4294	-0.001087
374.6453	0.000668
374.8611	-0.000876
375.0770	0.000943
375.2928	-0.001680
375.5087	-0.000918
375.7246	-0.001976
375.9405	-0.000241
376.1564	0.002423
376.3724	0.000922
376.5883	-0.000791
376.8043	0.000139
377.0203	-0.001278
377.2362	-0.000601
377.4522	0.000076
377.6682	-0.001510
377.8843	0.000203
378.1003	0.000393
378.3164	0.000055
378.5324	-0.000686
378.7485	0.001027
378.9646	-0.000580
379.1807	0.000626
379.3968	-0.001468
379.6129	0.000604
379.8291	-0.000559
380.0452	-0.001257
380.2614	0.000118
380.4776	-0.001553
380.6938	-0.001616
380.9100	0.001535
381.1262	-0.001087
381.3424	0.001049
381.5587	-0.001024
381.7749	-0.000263
381.9912	0.000055
382.2075	-0.000538
382.4238	0.001704
382.6401	-0.001553
382.8564	-0.001066
383.0728	-0.000707
383.2891	-0.000559
383.5055	0.000626
383.7219	-0.000051
383.9382	-0.000707
384.1546	0.000985
384.3711	0.001450
384.5875	-0.000664
384.8039	0.000351
385.0204	-0.000855
385.2368	-0.000474
385.4533	0.001197
385.6698	0.000033
385.8863	0.000182
386.1028	-0.001616
386.3194	0.000266
386.5359	-0.000559
386.7525	-0.000855
386.9690	-0.000220
387.1856	-0.000368
387.4022	-0.000368
387.6188	0.000647
387.8355	0.000224
388.0521	-0.001151
388.2687	-0.000812
388.4854	-0.000432
388.7021	-0.000305
388.9188	0.000414
389.1355	0.000478
389.3522	-0.000093
389.5689	-0.000580
389.7856	-0.001933
390.0024	-0.001320
390.2192	-0.000474
390.4359	-0.000115
390.6527	0.000731
390.8695	-0.000284
391.0863	-0.000157
391.3032	-0.000072
391.5200	0.000224
391.7369	-0.000834
391.9537	0.000879
392.1706	-0.000241
392.3875	-0.000093
392.6044	0.000520
392.8213	0.000774
393.0383	-0.001235
393.2552	-0.000559
393.4722	-0.000157
393.6891	-0.000072
393.9061	-0.000749
394.1231	0.000224
394.3401	-0.000411
394.5572	-0.001045
394.7742	-0.000220
394.9912	0.000964
395.2083	-0.001151
395.4254	0.000266
395.6425	0.000330
395.8596	0.000499
396.0767	-0.001891
396.2938	-0.000664
396.5109	0.000118
396.7281	-0.001235
396.9453	-0.000220
397.1624	-0.000093
397.3796	-0.000770
397.5968	0.000499
397.8140	0.000478
398.0313	-0.000918
398.2485	-0.000157
398.4658	-0.000157
398.6830	-0.001235
398.9003	-0.000326
399.1176	0.000245
399.3349	0.002021
399.5522	-0.000686
399.7696	-0.000326
399.9869	0.000182
400.2043	0.000435
400.4216	-0.001130
400.6390	-0.001278
400.8564	0.000118
401.0738	0.000351
401.2912	-0.001489
401.5087	0.001937
401.7261	-0.000559
401.9436	-0.000093
402.1610	-0.001701
402.3785	-0.000622
402.5960	0.000287
402.8135	-0.000157
403.0310	-0.000093
403.2486	0.000203
403.4661	-0.001722
403.6837	0.000943
403.9013	-0.000305
404.1189	-0.000411
404.3365	-0.000897
404.5541	-0.000622
404.7717	-0.001066
404.9893	0.000710
405.2070	-0.000474
405.4246	-0.000474
405.6423	-0.000834
405.8600	0.000351
406.0777	-0.001828
406.2954	-0.000368
406.5131	-0.001870
406.7309	-0.000389
406.9486	-0.000495
407.1664	-0.000136
407.3842	0.000203
407.6020	-0.000136
407.8198	-0.001257
408.0376	-0.000559
408.2554	-0.000030
408.4733	0.000308
408.6911	0.001979
408.9090	-0.000559
409.1269	0.001514
409.3448	-0.000411
409.5627	-0.000326
409.7806	-0.002208
409.9985	0.002635
410.2165	0.001006
410.4344	-0.000960
410.6524	-0.000199
410.8704	0.000224
411.0884	-0.000199
411.3064	0.000499
411.5244	0.000182
411.7424	-0.000072
411.9605	-0.000707
412.1785	-0.000178
412.3966	0.002021
412.6147	-0.000601
412.8328	0.000837
413.0509	0.000330
413.2690	0.000139
413.4871	0.000478
413.7053	0.000266
413.9234	-0.000136
414.1416	0.000520
414.3598	0.000858
414.5780	-0.000220
414.7962	-0.000643
415.0144	0.001133
415.2326	0.001472
415.4509	-0.001976
415.6692	0.001006
415.8874	-0.000432
416.1057	0.000774
416.3240	-0.000601
416.5423	0.000287
416.7606	-0.000559
416.9790	0.000731
417.1973	-0.000284
417.4157	0.000858
417.6341	0.001197
417.8524	-0.001045
418.0708	-0.000199
418.2893	0.000182
418.5077	-0.001151
418.7261	0.001746
418.9446	-0.001637
419.1630	0.000160
419.3815	-0.000622
419.6000	0.000097
419.8185	-0.001785
420.0370	0.000901
420.2555	-0.000728
420.4741	0.000182
420.6926	-0.000664
420.9112	0.000689
421.1298	-0.001087
421.3483	0.001027
421.5669	-0.001468
421.7856	0.000351
422.0042	0.000033
422.2228	-0.000834
422.4415	0.000837
422.6601	-0.001130
422.8788	-0.001595
423.0975	0.001429
423.3162	-0.001658
423.5349	-0.000178
423.7536	-0.000305
423.9724	0.000076
424.1911	-0.001214
424.4099	0.001027
424.6287	-0.001130
424.8475	0.000118
425.0663	-0.000918
425.2851	-0.000136
425.5039	0.006716
425.7228	0.000076
425.9416	0.000372
426.1605	0.000520
426.3793	0.000668
426.5982	0.000097
426.8171	-0.000051
427.0361	-0.001024
427.2550	-0.000982
427.4739	0.000097
427.6929	0.001514
427.9118	0.001556
428.1308	0.001408
428.3498	-0.001933
428.5688	-0.000305
428.7878	0.000118
429.0068	-0.001405
429.2259	-0.000115
429.4449	-0.001553
429.6640	-0.000368
429.8831	-0.000876
430.1022	-0.000368
430.3213	-0.000770
430.5404	0.001154
430.7595	-0.000453
430.9787	0.000435
431.1978	-0.001278
431.4170	0.001768
431.6362	0.000985
431.8553	0.001472
432.0745	0.000985
432.2938	-0.001383
432.5130	-0.001130
432.7322	-0.001849
432.9515	-0.001828
433.1707	0.000626
433.3900	-0.000580
433.6093	0.000330
433.8286	-0.001193
434.0479	0.000203
434.2673	0.000435
434.4866	-0.001109
434.7059	-0.001595
434.9253	-0.000389
435.1447	-0.000897
435.3641	-0.000136
435.5835	-0.001130
435.8029	0.001366
436.0223	-0.001235
436.2418	0.001577
436.4612	-0.000326
436.6807	0.000774
436.9001	-0.000960
437.1196	-0.001531
437.3391	0.000583
437.5586	0.000626
437.7782	-0.000580
437.9977	0.001260
438.2173	-0.000305
438.4368	-0.000030
438.6564	0.002064
438.8760	0.000774
439.0956	0.000879
439.3152	0.000414
439.5348	-0.000918
439.7545	0.000541
439.9741	0.000520
440.1938	0.000372
440.4135	-0.001701
440.6331	0.001175
440.8528	0.000372
441.0725	-0.000622
441.2923	-0.000770
441.5120	-0.001405
441.7318	0.000012
441.9515	0.000753
442.1713	-0.000982
442.3911	0.000351
442.6109	-0.000220
442.8307	0.000055
443.0505	0.001450
443.2703	0.000604
443.4902	-0.001870
443.7101	0.000520
443.9299	-0.000474
444.1498	0.000203
444.3697	-0.001109
444.5896	0.000837
444.8095	0.000604
445.0295	0.001302
445.2494	-0.000030
445.4694	-0.000749
445.6894	-0.000347
445.9093	-0.000326
446.1293	0.000583
446.3493	0.003544
446.5694	-0.000178
446.7894	-0.000009
447.0094	-0.000939
447.2295	-0.000241
447.4496	0.001598
447.6696	-0.000326
447.8897	-0.001933
448.1098	-0.000939
448.3300	0.000478
448.5501	0.000520
448.7702	0.000055
448.9904	-0.000664
449.2106	-0.001997
449.4307	-0.000157
449.6509	0.000182
449.8711	-0.000347
450.0914	-0.000157
450.3116	-0.001553
450.5318	-0.001426
450.7521	-0.001574
450.9724	0.000520
451.1926	-0.000664
451.4129	-0.001658
451.6332	-0.000199
451.8535	-0.001214
452.0739	0.001387
452.2942	-0.001383
452.5146	0.000118
452.7349	-0.000834
452.9553	0.000287
453.1757	-0.000770
453.3961	-0.002187
453.6165	-0.000855
453.8369	-0.001616
454.0574	-0.000453
454.2778	-0.000220
454.4983	-0.000411
454.7188	0.000414
454.9393	-0.000072
455.1597	-0.000009
455.3803	-0.000855
455.6008	0.001218
455.8213	-0.000622
456.0419	-0.001087
456.2624	0.000097
456.4830	0.002106
456.7036	-0.000601
456.9242	0.000689
457.1448	-0.000686
457.3654	0.000139
457.5860	-0.000876
457.8067	-0.001151
458.0274	-0.000072
458.2480	0.000055
458.4687	0.000012
458.6894	-0.001891
458.9101	-0.001595
459.1308	-0.000495
459.3516	-0.001489
459.5723	-0.000559
459.7931	-0.000305
460.0138	0.000626
460.2346	-0.000326
460.4554	-0.001426
460.6762	-0.000136
460.8970	-0.000284
461.1178	0.000033
461.3387	0.001556
461.5595	-0.000770
461.7804	0.000731
462.0013	0.000901
462.2222	0.001345
462.4431	-0.000093
462.6640	-0.002377
462.8849	0.001218
463.1059	-0.000855
463.3268	-0.001193
463.5478	0.000541
463.7687	0.000647
463.9897	-0.000559
464.2107	-0.001510
464.4317	-0.000072
464.6528	-0.000347
464.8738	0.001324
465.0948	-0.000136
465.3159	-0.000516
465.5370	-0.000834
465.7581	0.000160
465.9792	0.000456
466.2003	-0.000939
466.4214	0.000520
466.6425	-0.000220
466.8637	0.000795
467.0848	-0.000601
467.3060	0.000266
467.5272	-0.001426
467.7484	0.000266
467.9696	-0.001510
468.1908	-0.000030
468.4120	-0.000178
468.6333	0.002064
468.8545	-0.002800
469.0758	0.000118
469.2970	-0.000009
469.5183	-0.000009
469.7396	-0.001489
469.9610	0.000224
470.1823	-0.000834
470.4036	0.001091
470.6250	-0.000072
470.8463	0.000435
471.0677	-0.000686
471.2891	0.000308
471.5105	0.001979
471.7319	0.001027
471.9533	-0.001045
472.1748	-0.001426
472.3962	-0.000538
472.6177	-0.001151
472.8391	-0.000664
473.0606	0.000076
473.2821	0.000308
473.5036	0.000033
473.7251	-0.001214
473.9467	0.000604
474.1682	-0.000051
474.3898	0.000626
474.6113	-0.000791
474.8329	-0.001172
475.0545	-0.000728
475.2761	-0.001637
475.4977	0.000203
475.7193	-0.000876
475.9410	-0.000812
476.1626	-0.000199
476.3843	0.000816
476.6060	-0.000939
476.8277	0.000435
477.0494	0.000203
477.2711	0.006949
477.4928	-0.002081
477.7145	-0.001257
477.9363	-0.000093
478.1580	-0.000897
478.3798	0.000604
478.6016	-0.000157
478.8234	-0.000093
479.0452	-0.000051
479.2670	-0.000411
479.4888	-0.000791
479.7107	0.000541
479.9325	-0.000009
480.1544	0.000224
480.3763	0.000414
480.5982	-0.000876
480.8201	0.001239
481.0420	0.001218
481.2639	0.000330
481.4859	-0.000030
481.7078	-0.001087
481.9298	-0.000516
482.1517	-0.000411
482.3737	-0.000411
482.5957	-0.000664
482.8177	0.001577
483.0398	0.000287
483.2618	-0.000432
483.4838	0.000435
483.7059	0.000774
483.9280	-0.001109
484.1501	0.000055
484.3721	0.001302
484.5943	0.000858
484.8164	-0.000241
485.0385	-0.001405
485.2606	0.000731
485.4828	0.000287
485.7050	0.000922
485.9271	0.000308
486.1493	0.000076
486.3715	0.000583
486.5937	0.000795
486.8160	0.000435
487.0382	-0.001489
487.2605	0.001345
487.4827	0.000816
487.7050	-0.000326
487.9273	0.000033
488.1496	-0.000432
488.3719	-0.001447
488.5942	0.001345
488.8165	-0.000601
489.0389	0.001175
489.2612	-0.001172
489.4836	0.000118
489.7060	-0.001510
489.9284	-0.000030
490.1508	-0.000664
490.3732	0.000393
490.5956	-0.000220
490.8180	-0.000178
491.0405	-0.000559
491.2630	0.000245
491.4854	-0.000707
491.7079	-0.000157
491.9304	-0.000389
492.1529	0.000435
492.3755	0.000118
492.5980	0.001027
492.8205	-0.000453
493.0431	0.000224
493.2657	-0.000093
493.4882	-0.000199
493.7108	-0.000368
493.9334	-0.000664
494.1561	-0.001574
494.3787	-0.000474
494.6013	0.000139
494.8240	-0.000918
495.0466	0.000160
495.2693	0.000351
495.4920	0.001027
495.7147	-0.000918
495.9374	-0.002610
496.1601	0.000097
496.3829	-0.000643
496.6056	-0.001997
496.8284	-0.001278
497.0511	-0.000474
497.2739	0.001387
497.4967	-0.000284
497.7195	-0.001045
497.9423	0.000139
498.1652	-0.000411
498.3880	0.000055
498.6109	-0.000580
498.8337	0.000583
499.0566	-0.000982
499.2795	0.000795
499.5024	-0.000009
499.7253	0.000393
499.9482	0.001450
500.1712	-0.000664
500.3941	0.000710
500.6171	0.002296
500.8400	-0.000326
501.0630	-0.000960
501.2860	-0.000347
501.5090	-0.000072
501.7320	0.001324
501.9551	0.000816
502.1781	-0.000643
502.4012	0.000626
502.6242	-0.000707
502.8473	-0.000855
503.0704	-0.000241
503.2935	0.000308
503.5166	-0.000030
503.7397	0.000562
503.9628	-0.000411
504.1860	-0.000622
504.4092	-0.001087
504.6323	-0.000178
504.8555	-0.000347
505.0787	0.000541
505.3019	0.000435
505.5251	-0.000411
505.7483	0.000012
505.9716	-0.000326
506.1948	0.000245
506.4181	-0.000453
506.6414	0.000266
506.8647	-0.001764
507.0880	-0.000220
507.3113	-0.001193
507.5346	-0.000580
507.7579	-0.001341
507.9813	-0.001383
508.2046	-0.000411
508.4280	0.000139
508.6514	-0.000072
508.8748	0.001006
509.0982	-0.000178
509.3216	0.001324
509.5450	0.000203
509.7685	-0.001151
509.9919	0.000012
510.2154	-0.000960
510.4388	-0.000516
510.6623	-0.001003
510.8858	-0.001066
511.1093	-0.000876
511.3329	0.000224
511.5564	0.001006
511.7799	-0.000220
512.0035	0.001218
512.2270	-0.001574
512.4506	-0.002568
512.6742	0.000308
512.8978	-0.002525
513.1214	0.000710
513.3451	-0.000707
513.5687	-0.000918
513.7923	-0.000347
514.0160	0.000731
514.2397	0.000097
514.4634	-0.000538
514.6871	-0.001087
514.9108	-0.000115
515.1345	-0.000643
515.3582	0.001027
515.5819	0.001197
515.8057	0.000224
516.0295	-0.001426
516.2532	0.000583
516.4770	-0.000474
516.7008	0.000224
516.9246	-0.001003
517.1485	-0.001087
517.3723	0.000858
517.5961	0.000964
517.8200	-0.000812
518.0439	0.000245
518.2677	-0.001087
518.4916	0.001112
518.7155	0.000055
518.9395	-0.000284
519.1634	-0.000982
519.3873	0.001112
519.6113	0.000330
519.8352	0.000689
520.0592	0.000182
520.2832	-0.001172
520.5072	-0.000347
520.7312	-0.001764
520.9552	-0.000241
521.1792	0.000879
521.4033	0.001387
521.6273	-0.000432
521.8514	0.000160
522.0755	0.000668
522.2996	0.000287
522.5237	-0.000326
522.7478	-0.000411
522.9719	0.000033
523.1960	0.001789
523.4202	-0.001997
523.6443	0.000647
523.8685	-0.000686
524.0927	0.000266
524.3169	-0.000559
524.5411	-0.000728
524.7653	-0.000305
524.9895	0.000012
525.2138	-0.000030
525.4380	0.000837
525.6623	-0.000305
525.8865	-0.000601
526.1108	-0.001849
526.3351	0.000118
526.5594	0.000710
526.7837	0.000372
527.0081	-0.000157
527.2324	-0.001257
527.4568	-0.000495
527.6811	-0.001024
527.9055	-0.001087
528.1299	-0.000960
528.3543	-0.001003
528.5787	-0.000664
528.8031	-0.001235
529.0276	-0.000368
529.2520	-0.000199
529.4765	-0.000812
529.7009	-0.000918
529.9254	0.001154
530.1499	0.001662
530.3744	0.000456
530.5989	-0.000918
530.8234	-0.001003
531.0480	-0.000072
531.2725	-0.001743
531.4971	-0.000136
531.7217	0.000118
531.9462	-0.000960
532.1708	-0.000051
532.3954	-0.002102
532.6200	0.001408
532.8447	0.000203
533.0693	-0.001087
533.2940	-0.001214
533.5186	-0.000474
533.7433	-0.000051
533.9680	-0.001109
534.1927	0.000964
534.4174	0.000160
534.6421	-0.001214
534.8668	-0.000749
535.0916	0.000097
535.3163	-0.000136
535.5411	0.000266
535.7659	-0.000157
535.9907	0.001324
536.2155	-0.000157
536.4403	-0.000495
536.6651	-0.000326
536.8899	-0.000411
537.1148	0.001514
537.3396	-0.001743
537.5645	0.000308
537.7894	-0.000960
538.0143	-0.000791
538.2392	-0.000241
538.4641	0.001556
538.6890	-0.000834
538.9139	0.002169
539.1389	-0.001405
539.3638	0.000266
539.5888	0.001620
539.8138	0.000816
540.0388	-0.000284
540.2638	-0.000664
540.4888	-0.000770
540.7138	0.001768
540.9389	-0.001214
541.1639	0.001873
541.3890	-0.001405
541.6140	-0.000368
541.8391	0.001873
542.0642	-0.000157
542.2893	-0.000559
542.5144	0.001345
542.7396	0.000351
542.9647	0.001472
543.1899	-0.000580
543.4150	0.000097
543.6402	-0.000538
543.8654	0.000858
544.0906	-0.000728
544.3158	-0.001257
544.5410	-0.001087
544.7662	-0.002081
544.9915	0.002381
545.2167	0.001175
545.4420	-0.000834
545.6673	-0.001066
545.8926	0.000266
546.1179	-0.000368
546.3432	-0.000284
546.5685	-0.000009
546.7938	-0.001087
547.0192	0.000182
547.2445	-0.000770
547.4699	-0.001235
547.6953	0.000731
547.9206	-0.000072
548.1460	0.000351
548.3715	-0.001405
548.5969	0.000414
548.8223	0.000668
549.0478	-0.000220
549.2732	0.001768
549.4987	-0.000559
549.7242	-0.002906
549.9496	0.000562
550.1751	-0.001278
550.4007	-0.002610
550.6262	0.000604
550.8517	-0.000812
551.0773	0.000097
551.3028	0.001620
551.5284	0.003206
551.7540	-0.000643
551.9796	0.000541
552.2052	-0.001362
552.4308	-0.000622
552.6564	-0.002272
552.8820	0.001049
553.1077	0.000604
553.3333	-0.000686
553.5590	-0.000432
553.7847	-0.000432
554.0104	-0.000030
554.2361	-0.000474
554.4618	0.000837
554.6875	-0.000622
554.9132	0.001746
555.1390	0.000372
555.3648	-0.002187
555.5905	0.000033
555.8163	0.001281
556.0421	0.002148
556.2679	-0.001658
556.4937	0.000372
556.7195	0.000689
556.9454	0.000055
557.1712	-0.000876
557.3971	0.000456
557.6230	0.000626
557.8488	0.001112
558.0747	-0.000411
558.3006	0.001450
558.5266	-0.001257
558.7525	-0.000326
558.9784	-0.000855
559.2044	0.000308
559.4303	-0.000009
559.6563	-0.001003
559.8823	-0.002081
560.1083	0.000478
560.3343	0.000224
560.5603	0.000774
560.7863	-0.000559
561.0124	0.001789
561.2384	0.000245
561.4645	-0.000834
561.6905	-0.000538
561.9166	0.000520
562.1427	-0.000389
562.3688	-0.001891
562.5949	-0.000622
562.8211	0.000224
563.0472	0.000372
563.2733	0.000287
563.4995	-0.001003
563.7257	-0.000876
563.9519	-0.000241
564.1781	-0.001489
564.4043	-0.000030
564.6305	0.000372
564.8567	-0.000241
565.0829	0.000964
565.3092	-0.000834
565.5355	-0.000199
565.7617	-0.000918
565.9880	0.000604
566.2143	0.000858
566.4406	-0.000347
566.6669	-0.001172
566.8932	0.001598
567.1196	0.000330
567.3459	0.001197
567.5723	-0.001278
567.7987	0.001345
568.0250	-0.000580
568.2514	-0.001003
568.4778	-0.000918
568.7043	0.001535
568.9307	0.001725
569.1571	0.001641
569.3836	0.000012
569.6100	-0.000051
569.8365	-0.000474
570.0630	0.000731
570.2895	-0.000960
570.5160	-0.001320
570.7425	-0.000749
570.9690	-0.001172
571.1956	-0.000389
571.4221	0.000118
571.6487	-0.000834
571.8752	-0.000072
572.1018	-0.000474
572.3284	-0.000791
572.5550	-0.000643
572.7816	0.001450
573.0082	-0.000474
573.2349	-0.000093
573.4615	-0.000178
573.6882	-0.000241
573.9149	-0.000009
574.1415	0.000182
574.3682	0.001556
574.5949	0.002804
574.8216	-0.000982
575.0484	-0.000220
575.2751	-0.000474
575.5018	0.001260
575.7286	-0.001722
575.9554	-0.001341
576.1821	0.001239
576.4089	0.000562
576.6357	0.000266
576.8626	0.000139
577.0894	-0.000157
577.3162	-0.000707
577.5431	0.000055
577.7699	-0.000178
577.9968	-0.000115
578.2237	-0.000749
578.4505	0.000837
578.6774	0.000266
578.9044	0.000330
579.1313	0.000182
579.3582	0.000435
579.5851	-0.001193
579.8121	0.000858
580.0391	-0.002145
580.2660	-0.002145
580.4930	-0.000622
580.7200	0.001070
580.9470	-0.000368
581.1741	0.000287
581.4011	0.000266
581.6281	0.001493
581.8552	-0.000749
582.0822	-0.001087
582.3093	-0.001130
582.5364	-0.000495
582.7635	0.000499
582.9906	-0.001341
583.2177	0.001218
583.4449	0.000478
583.6720	-0.000284
583.8991	0.000224
584.1263	-0.000263
584.3535	-0.000157
584.5807	-0.003139
584.8079	0.000266
585.0351	0.000456
585.2623	0.000499
585.4895	-0.000199
585.7167	0.002381
585.9440	-0.000918
586.1713	-0.000115
586.3985	-0.001447
586.6258	-0.000263
586.8531	-0.000199
587.0804	-0.000918
587.3077	-0.002251
587.5350	0.000435
587.7624	0.001556
587.9897	0.000076
588.2171	-0.000812
588.4445	0.001281
588.6718	-0.001447
588.8992	0.000266
589.1266	0.000647
589.3540	-0.000601
589.5815	0.000224
589.8089	0.002296
590.0363	-0.000495
590.2638	0.001662
590.4913	0.000520
590.7187	-0.000432
590.9462	0.000097
591.1737	0.001746
591.4012	-0.000284
591.6288	-0.001193
591.8563	-0.000749
592.0838	-0.000559
592.3114	-0.001087
592.5389	0.001027
592.7665	0.000203
592.9941	0.000139
593.2217	-0.002568
593.4493	-0.000115
593.6769	0.000456
593.9046	0.001175
594.1322	-0.000241
594.3598	0.000710
594.5875	-0.001109
594.8152	0.000224
595.0429	-0.001405
595.2705	-0.000643
595.4983	0.000330
595.7260	-0.000643
595.9537	-0.001531
596.1814	-0.000622
596.4092	-0.001680
596.6369	-0.000284
596.8647	0.001049
597.0925	-0.000707
597.3203	-0.000855
597.5481	-0.000897
597.7759	-0.001954
598.0037	-0.000495
598.2315	-0.000009
598.4594	-0.000601
598.6872	-0.000812
598.9151	0.001197
599.1430	-0.001341
599.3709	0.000287
599.5988	0.000033
599.8267	-0.001637
600.0546	-0.000030
600.2825	0.000985
600.5105	-0.001764
600.7384	0.000351
600.9664	0.001641
601.1944	0.000245
601.4223	0.002466
601.6503	0.000055
601.8783	-0.001510
602.1064	-0.000326
602.3344	-0.001257
602.5624	-0.000918
602.7905	-0.001087
603.0185	-0.000495
603.2466	-0.002081
603.4747	0.000562
603.7028	0.001112
603.9309	-0.000516
604.1590	-0.001574
604.3871	0.000795
604.6152	-0.001362
604.8434	-0.001151
605.0715	-0.002187
605.2997	-0.001574
605.5279	-0.000834
605.7561	-0.001066
605.9843	0.000562
606.2125	-0.000115
606.4407	0.000118
606.6689	0.000795
606.8972	0.001472
607.1254	0.000922
607.3537	0.000139
607.5819	-0.000368
607.8102	-0.002356
608.0385	-0.000559
608.2668	-0.000199
608.4951	-0.001045
608.7235	-0.000791
608.9518	0.000012
609.1801	-0.001849
609.4085	-0.001426
609.6369	-0.000030
609.8653	-0.000411
610.0936	0.000076
610.3220	-0.001214
610.5505	-0.000939
610.7789	-0.000453
611.0073	-0.000072
611.2357	0.001154
611.4642	-0.001912
611.6927	-0.000622
611.9211	0.000266
612.1496	0.000774
612.3781	0.000287
612.6066	-0.000389
612.8351	-0.000770
613.0637	0.001472
613.2922	0.000139
613.5208	0.001408
613.7493	0.000541
613.9779	-0.000051
614.2065	0.000393
614.4351	-0.000791
614.6637	-0.000812
614.8923	0.000689
615.1209	-0.000284
615.3495	0.002085
615.5782	-0.000707
615.8068	0.000118
616.0355	-0.000326
616.2642	0.000774
616.4929	0.000795
616.7216	-0.001087
616.9503	0.000583
617.1790	-0.002102
617.4077	-0.000876
617.6365	-0.000749
617.8652	0.001218
618.0940	0.001175
618.3227	-0.001828
618.5515	0.001493
618.7803	-0.001109
619.0091	0.000139
619.2379	0.000182
619.4667	-0.000411
619.6956	-0.001997
619.9244	-0.000622
620.1533	0.001387
620.3821	-0.001066
620.6110	0.000858
620.8399	-0.000707
621.0688	-0.000707
621.2977	-0.000115
621.5266	-0.000601
621.7556	0.000435
621.9845	-0.000749
622.2135	0.000901
622.4424	-0.001616
622.6714	0.000182
622.9004	-0.000051
623.1294	0.002296
623.3584	-0.000876
623.5874	-0.000897
623.8164	-0.000326
624.0454	0.000203
624.2745	0.000689
624.5035	-0.000686
624.7326	-0.000728
624.9617	-0.000220
625.1908	-0.001680
625.4199	-0.000749
625.6490	-0.000643
625.8781	0.001006
626.1072	-0.000030
626.3364	-0.001214
626.5655	-0.000516
626.7947	-0.001637
627.0238	-0.001405
627.2530	0.001302
627.4822	-0.001235
627.7114	-0.001828
627.9406	-0.000284
628.1698	0.000689
628.3991	0.000604
628.6283	0.000097
628.8576	-0.001341
629.0868	0.001852
629.3161	-0.001553
629.5454	-0.000559
629.7747	0.000520
630.0040	0.000372
630.2333	0.002487
630.4626	-0.000834
630.6920	-0.000157
630.9213	0.000520
631.1507	0.000203
631.3801	0.000351
631.6094	-0.000263
631.8388	0.000879
632.0682	-0.001214
632.2976	0.000055
632.5271	-0.000368
632.7565	-0.000812
632.9859	-0.000326
633.2154	-0.000157
633.4448	-0.001278
633.6743	0.001852
633.9038	-0.000580
634.1333	0.000689
634.3628	-0.000728
634.5923	-0.000241
634.8218	-0.001574
635.0514	-0.000389
635.2809	0.000287
635.5105	0.000816
635.7400	-0.000157
635.9696	0.000393
636.1992	0.000541
636.4288	-0.001616
636.6584	-0.000263
636.8880	-0.000516
637.1177	-0.001193
637.3473	0.000710
637.5770	0.002487
637.8066	-0.001764
638.0363	-0.000368
638.2660	0.001873
638.4957	-0.002081
638.7254	0.000583
638.9551	-0.001553
639.1848	-0.001172
639.4145	0.001281
639.6443	0.001365
639.8740	-0.000670
640.1038	-0.001789
640.3336	0.000486
640.5633	-0.000542
640.7931	0.000994
641.0229	0.000096
641.2528	0.002046
641.4826	-0.001815
641.7124	-0.000286
641.9423	-0.001433
642.1721	0.001142
642.4020	0.000502
642.6319	-0.000769
642.8617	0.000329
643.0916	0.000076
643.3216	-0.000312
643.5515	-0.001167
643.7814	0.000403
644.0113	-0.000663
644.2413	0.000196
644.4712	0.000683
644.7012	0.001064
644.9312	0.000884
645.1612	0.001339
645.3912	-0.000077
645.6212	-0.000901
645.8512	-0.000167
646.0812	-0.001304
646.3113	-0.000612
646.5413	-0.000209
646.7714	0.001015
647.0015	-0.002371
647.2316	-0.001429
647.4616	-0.001721
647.6918	-0.000967
647.9219	0.000456
648.1520	0.000519
648.3821	0.000890
648.6123	-0.000273
648.8424	-0.001101
649.0726	0.001396
649.3028	-0.000681
649.5329	-0.001531
649.7631	-0.001440
649.9933	0.000247
650.2236	-0.000957
650.4538	0.000539
650.6840	0.000967
650.9143	-0.000541
651.1445	0.000204
651.3748	0.000333
651.6051	-0.000221
651.8354	-0.000158
652.0657	0.000630
652.2960	0.000902
652.5263	-0.001080
652.7566	0.001424
652.9870	-0.001076
653.2173	-0.000621
653.4477	-0.001756
653.6780	-0.000181
653.9084	0.000821
654.1388	0.001530
654.3692	-0.000624
654.5996	-0.000030
654.8300	-0.001036
655.0605	-0.000159
655.2909	-0.001747
655.5213	0.001111
655.7518	-0.001475
655.9823	0.000441
656.2128	-0.001942
656.4433	0.001716
656.6738	0.001033
656.9043	0.001341
657.1348	-0.000791
657.3653	0.000289
657.5959	-0.000073
657.8264	0.001091
658.0570	-0.001253
658.2875	0.001496
658.5181	0.000392
658.7487	-0.001274
658.9793	0.000626
659.2099	0.000545
659.4406	-0.000861
659.6712	0.000656
659.9018	-0.000369
660.1325	0.000097
660.3632	-0.001160
660.5938	-0.000854
660.8245	0.000968
661.0552	-0.000157
661.2859	0.000309
661.5166	-0.000747
661.7474	-0.000306
661.9781	0.000076
662.2088	0.000288
662.4396	0.000201
662.6704	-0.001838
662.9011	0.001477
663.1319	-0.001042
663.3627	0.001322
663.5935	-0.000218
663.8243	-0.001205
664.0552	0.000966
664.2860	0.001654
664.5168	0.000477
664.7477	0.000370
664.9786	0.001323
665.2094	0.000075
665.4403	-0.000259
665.6712	-0.000953
665.9021	-0.001136
666.1330	0.000980
666.3640	-0.000262
666.5949	-0.000791
666.8259	-0.000325
667.0568	-0.000051
667.2878	-0.000850
667.5188	0.000435
667.7497	-0.000326
667.9807	-0.000073
668.2117	0.000243
668.4428	-0.000157
668.6738	-0.000241
668.9048	-0.000157
669.1359	-0.001045
669.3669	0.000435
669.5980	-0.000051
669.8291	0.000160
670.0602	-0.000982
670.2913	-0.000411
670.5224	-0.000897
670.7535	0.002444
670.9846	0.000203
671.2157	-0.000474
671.4469	-0.001003
671.6781	0.001937
671.9092	-0.000432
672.1404	-0.001193
672.3716	-0.001933
672.6028	-0.000834
672.8340	-0.000220
673.0652	-0.001616
673.2964	0.000055
673.5277	0.000562
673.7589	-0.000474
673.9902	-0.000009
674.2214	0.001810
674.4527	0.000139
674.6840	-0.000411
674.9153	-0.001595
675.1466	-0.001151
675.3779	0.000139
675.6093	0.000012
675.8406	0.000055
676.0719	-0.001024
676.3033	-0.000305
676.5347	0.000435
676.7661	-0.000580
676.9974	-0.001172
677.2288	-0.000559
677.4602	-0.000749
677.6917	0.000139
677.9231	0.001027
678.1545	0.001662
678.3860	-0.000791
678.6174	0.000182
678.8489	-0.000538
679.0804	0.000012
679.3119	-0.000136
679.5434	0.000033
679.7749	-0.001320
680.0064	0.000224
680.2379	0.000604
680.4694	-0.000178
680.7010	-0.001806
680.9325	-0.001785
681.1641	-0.000770
681.3957	-0.000199
681.6273	-0.000939
681.8589	0.002212
682.0905	-0.001870
682.3221	-0.001109
682.5537	-0.000495
682.7854	0.000795
683.0170	-0.000347
683.2487	-0.001680
683.4803	0.000858
683.7120	0.000033
683.9437	-0.000368
684.1754	0.001620
684.4071	0.000330
684.6388	-0.000093
684.8705	-0.001933
685.1023	0.000753
685.3340	-0.000368
685.5658	0.000266
685.7975	-0.000474
686.0293	-0.000432
686.2611	0.001197
686.4929	0.000689
686.7247	-0.001785
686.9565	0.000943
687.1883	-0.001109
687.4202	-0.000749
687.6520	0.001218
687.8838	-0.000876
688.1157	-0.001299
688.3476	-0.000157
688.5795	-0.001193
688.8114	0.000520
689.0433	-0.001680
689.2752	-0.000728
689.5071	-0.002441
689.7390	-0.001278
689.9710	0.000626
690.2029	0.000499
690.4349	-0.000939
690.6669	0.000287
690.8988	-0.000157
691.1308	0.000160
691.3628	-0.000939
691.5948	0.000076
691.8269	-0.000918
692.0589	-0.000093
692.2909	-0.001976
692.5230	-0.000495
692.7550	0.000541
692.9871	0.000012
693.2192	-0.001933
693.4513	-0.001278
693.6834	-0.000368
693.9155	0.000604
694.1476	0.000858
694.3797	0.000097
694.6119	0.000245
694.8440	0.001535
695.0762	-0.002124
695.3083	-0.002081
695.5405	-0.000960
695.7727	-0.000051
696.0049	0.000562
696.2371	-0.000664
696.4693	-0.000051
696.7016	0.000922
696.9338	0.001027
697.1660	-0.000580
697.3983	0.000795
697.6306	-0.002631
697.8628	-0.000115
698.0951	-0.000009
698.3274	-0.000622
698.5597	0.000520
698.7920	0.005151
699.0243	0.002466
699.2567	0.000541
699.4890	-0.002399
699.7214	-0.000622
699.9537	0.002360
700.1861	0.000055
700.4185	-0.000220
700.6509	0.001535
700.8833	-0.001447
701.1157	-0.000347
701.3481	-0.002060
701.5806	0.000520
701.8130	-0.000686
702.0454	-0.001299
702.2779	-0.000495
702.5104	0.000160
702.7429	0.000076
702.9753	-0.000263
703.2078	-0.001257
703.4403	0.000499
703.6729	-0.000199
703.9054	0.001218
704.1379	0.000541
704.3705	-0.000136
704.6030	-0.000263
704.8356	0.001704
705.0682	-0.003033
705.3008	0.001027
705.5334	0.000499
705.7660	0.000837
705.9986	0.000562
706.2312	-0.000897
706.4638	-0.000474
706.6965	0.000668
706.9291	0.001514
707.1618	0.001070
707.3945	-0.000474
707.6272	-0.001362
707.8599	-0.001299
708.0926	-0.000770
708.3253	-0.001743
708.5580	-0.001214
708.7907	-0.001426
709.0235	0.000139
709.2562	0.000499
709.4890	-0.000855
709.7217	-0.001849
709.9545	-0.000707
710.1873	0.000520
710.4201	-0.000411
710.6529	-0.000030
710.8857	0.000583
711.1186	0.001408
711.3514	-0.000072
711.5842	-0.001003
711.8171	-0.000982
712.0500	-0.000960
712.2828	-0.001531
712.5157	0.000182
712.7486	-0.001933
712.9815	-0.000495
713.2144	-0.001510
713.4474	-0.000834
713.6803	0.000203
713.9132	-0.000263
714.1462	-0.000072
714.3791	0.000541
714.6121	0.000964
714.8451	0.000033
715.0781	-0.000305
715.3111	-0.000982
715.5441	0.000710
715.7771	-0.000664
716.0102	0.000160
716.2432	-0.001235
716.4762	0.001725
716.7093	-0.000982
716.9424	0.000055
717.1754	-0.000115
717.4085	0.001683
717.6416	0.000351
717.8747	0.000943
718.1078	-0.001722
718.3410	-0.000368
718.5741	0.000879
718.8072	-0.000030
719.0404	0.000668
719.2736	0.001302
719.5067	-0.001299
719.7399	0.000731
719.9731	-0.001045
720.2063	-0.000199
720.4395	0.000330
720.6727	-0.000157
720.9060	-0.001426
721.1392	-0.001531
721.3725	0.001260
721.6057	0.002000
721.8390	0.002191
722.0723	0.000943
722.3055	0.000943
722.5388	0.000456
722.7721	0.000012
723.0055	0.001746
723.2388	-0.000960
723.4721	0.000097
723.7055	0.000097
723.9388	0.000203
724.1722	-0.001426
724.4056	0.001577
724.6389	-0.000241
724.8723	-0.000664
725.1057	-0.000516
725.3391	0.001535
725.5726	-0.000453
725.8060	-0.000834
726.0394	0.000837
726.2729	0.001006
726.5063	-0.000220
726.7398	0.002085
726.9733	-0.000432
727.2068	0.000160
727.4403	0.000245
727.6738	-0.000453
727.9073	0.001154
728.1408	0.000647
728.3743	-0.001257
728.6079	0.001873
728.8414	-0.001341
729.0750	0.000118
729.3086	0.000647
729.5421	0.001895
729.7757	-0.000347
730.0093	0.000224
730.2429	-0.001257
730.4766	-0.001130
730.7102	-0.001278
730.9438	0.000287
731.1775	0.000351
731.4111	0.001725
731.6448	0.000626
731.8785	0.000245
732.1122	0.001154
732.3458	-0.000474
732.5795	0.000308
732.8133	-0.000326
733.0470	-0.001976
733.2807	-0.001489
733.5145	-0.000834
733.7482	-0.000284
733.9820	-0.001976
734.2157	-0.000897
734.4495	0.000520
734.6833	-0.000474
734.9171	-0.001870
735.1509	-0.000474
735.3847	-0.000707
735.6185	-0.000389
735.8524	-0.001933
736.0862	0.000456
736.3201	-0.000728
736.5539	-0.000538
736.7878	0.000710
737.0217	-0.000453
737.2556	0.002592
737.4895	-0.001024
737.7234	-0.001045
737.9573	0.000203
738.1912	-0.000580
738.4252	-0.001257
738.6591	-0.000897
738.8931	0.001091
739.1271	-0.000411
739.3610	-0.000220
739.5950	-0.000559
739.8290	-0.001954
740.0630	0.001324
740.2970	0.001281
740.5310	0.000668
740.7651	0.001831
740.9991	-0.001362
741.2332	0.000901
741.4672	-0.000009
741.7013	0.000647
741.9354	-0.001045
742.1695	-0.000305
742.4036	-0.000939
742.6377	-0.000960
742.8718	-0.000855
743.1059	0.001810
743.3400	0.000520
743.5742	0.000710
743.8083	0.000224
744.0425	0.000964
744.2767	-0.000918
744.5108	0.000541
744.7450	-0.000136
744.9792	-0.000241
745.2134	-0.000897
745.4477	-0.000284
745.6819	0.001704
745.9161	-0.000960
746.1504	0.002085
746.3846	0.001789
746.6189	-0.000559
746.8532	-0.000559
747.0874	0.000837
747.3217	0.000858
747.5560	0.000266
747.7903	-0.000495
748.0247	-0.001257
748.2590	0.001197
748.4933	0.000879
748.7277	-0.000136
748.9620	0.000710
749.1964	-0.001045
749.4308	-0.002081
749.6652	0.000139
749.8995	-0.002568
750.1339	0.001979
750.3684	0.000710
750.6028	0.000879
750.8372	-0.000918
751.0717	-0.000326
751.3061	-0.000263
751.5406	-0.000072
751.7750	-0.001130
752.0095	0.000985
752.2440	-0.000897
752.4785	0.001070
752.7130	0.001620
752.9475	-0.000622
753.1820	0.000964
753.4166	0.000626
753.6511	-0.001320
753.8856	0.000245
754.1202	0.001239
754.3548	0.000943
754.5894	-0.000115
754.8239	-0.001595
755.0585	-0.001214
755.2931	-0.001806
755.5278	-0.000855
755.7624	0.000689
755.9970	-0.000241
756.2317	0.000076
756.4663	-0.000284
756.7010	-0.001257
756.9356	-0.000115
757.1703	-0.000960
757.4050	0.001641
757.6397	0.000583
757.8744	0.001260
758.1091	0.000541
758.3438	0.000520
758.5786	-0.000939
758.8133	0.000837
759.0481	0.000414
759.2828	-0.000072
759.5176	-0.000368
759.7524	0.000182
759.9872	-0.001193
760.2220	-0.000284
760.4568	-0.000284
760.6916	0.000626
760.9264	0.001472
761.1613	0.001197
761.3961	0.001027
761.6310	0.000097
761.8658	0.000393
762.1007	-0.000051
762.3356	0.001873
762.5705	-0.000241
762.8054	-0.001468
763.0403	-0.000538
763.2752	0.000435
763.5101	-0.000326
763.7450	0.000266
763.9800	-0.000664
764.2149	-0.000241
764.4499	0.001302
764.6849	-0.000770
764.9198	0.001133
765.1548	-0.000009
765.3898	-0.000580
765.6248	-0.000199
765.8599	-0.001806
766.0949	-0.002018
766.3299	-0.000643
766.5650	-0.000326
766.8000	-0.001024
767.0351	0.001154
767.2701	0.000689
767.5052	-0.000686
767.7403	0.000879
767.9754	-0.000157
768.2105	-0.000601
768.4456	-0.002018
768.6808	0.001408
768.9159	-0.000305
769.1510	0.000795
769.3862	0.001725
769.6214	0.001091
769.8565	0.000583
770.0917	-0.000728
770.3269	-0.000284
770.5621	0.000203
770.7973	0.000731
771.0325	0.000710
771.2677	0.000414
771.5030	-0.000115
771.7382	-0.002483
771.9735	-0.000982
772.2087	0.000182
772.4440	0.000689
772.6793	0.000139
772.9146	0.000562
773.1499	-0.000897
773.3852	0.000012
773.6205	-0.001785
773.8558	0.000541
774.0911	0.000076
774.3265	0.000879
774.5618	-0.000453
774.7972	-0.001447
775.0326	-0.000326
775.2679	0.000964
775.5033	-0.001531
775.7387	0.000689
775.9741	-0.000157
776.2095	0.000689
776.4450	-0.001299
776.6804	-0.000326
776.9158	-0.001130
777.1513	0.000245
777.3868	-0.001531
777.6222	0.001472
777.8577	-0.001489
778.0932	0.000879
778.3287	0.000816
778.5642	-0.000199
778.7997	-0.001806
779.0352	-0.000220
779.2707	-0.000707
779.5063	0.000118
779.7418	-0.000982
779.9774	0.000901
780.2130	0.001683
780.4485	0.001324
780.6841	-0.000622
780.9197	-0.000115
781.1553	-0.000686
781.3909	0.001239
781.6265	0.000520
781.8622	0.000774
782.0978	-0.000157
782.3335	-0.001299
782.5691	-0.000770
782.8048	-0.001214
783.0405	-0.000136
783.2761	-0.000855
783.5118	0.001154
783.7475	-0.000559
783.9832	0.000351
784.2190	-0.001574
784.4547	0.000351
784.6904	0.000668
784.9262	-0.001383
785.1619	-0.000474
785.3977	0.000351
785.6335	-0.000580
785.8692	-0.002399
786.1050	-0.000157
786.3408	-0.001468
786.5766	-0.001151
786.8124	-0.001764
787.0483	-0.000834
787.2841	-0.000728
787.5199	0.001027
787.7558	0.000456
787.9917	0.000456
788.2275	-0.000918
788.4634	0.001704
788.6993	-0.003160
788.9352	0.000541
789.1711	-0.000347
789.4070	-0.000157
789.6429	-0.000072
789.8789	-0.000157
790.1148	0.000583
790.3507	0.000731
790.5867	-0.000241
790.8227	0.000710
791.0586	-0.000284
791.2946	-0.000157
791.5306	0.000055
791.7666	0.001366
792.0026	0.002064
792.2387	-0.000009
792.4747	0.000456
792.7107	0.000795
792.9468	-0.000199
793.1828	0.000224
793.4189	0.000012
793.6550	0.001239
793.8910	-0.001045
794.1271	-0.000982
794.3632	0.000330
794.5993	-0.001933
794.8355	0.000731
795.0716	0.000245
795.3077	0.001006
795.5439	-0.000897
795.7800	0.000076
796.0162	-0.000284
796.2523	0.000182
796.4885	-0.000686
796.7247	-0.000263
796.9609	0.002212
797.1971	0.000012
797.4333	0.002106
797.6695	-0.001489
797.9058	-0.000368
798.1420	-0.000622
798.3783	0.000647
798.6145	-0.001172
798.8508	-0.000728
799.0871	0.001175
799.3233	-0.001066
799.5596	0.000097
799.7959	-0.000199
800.0322	0.000266
800.2686	0.001133
800.5049	-0.000982
800.7412	0.000055
800.9776	-0.000157
801.2139	0.000562
801.4503	-0.000199
801.6867	0.000182
801.9230	-0.000960
802.1594	-0.000580
802.3958	-0.000664
802.6322	-0.000791
802.8686	-0.001193
803.1051	0.000943
803.3415	-0.000115
803.5779	-0.000664
803.8144	-0.002039
804.0508	0.000816
804.2873	-0.000855
804.5238	-0.000580
804.7603	0.000118
804.9968	0.000435
805.2333	-0.000707
805.4698	-0.000918
805.7063	-0.000918
805.9428	0.000731
806.1794	-0.000559
806.4159	0.000076
806.6525	-0.000960
806.8890	-0.000030
807.1256	0.000308
807.3622	0.000943
807.5988	-0.001278
807.8354	-0.001341
808.0720	-0.000030
808.3086	0.000351
808.5452	0.000203
808.7818	0.000647
809.0185	-0.000559
809.2551	0.001704
809.4918	-0.001087
809.7284	0.002148
809.9651	0.000710
810.2018	0.000985
810.4385	-0.001828
810.6752	0.000139
810.9119	-0.000093
811.1486	0.001408
811.3853	0.000710
811.6221	-0.000960
811.8588	-0.000495
812.0956	-0.001066
812.3323	-0.000030
812.5691	-0.000030
812.8059	-0.000770
813.0427	0.000689
813.2795	-0.000411
813.5163	-0.001637
813.7531	-0.000516
813.9899	0.001112
814.2267	-0.001341
814.4636	0.000541
814.7004	-0.000474
814.9373	-0.000876
815.1742	0.000795
815.4110	-0.001172
815.6479	-0.000538
815.8848	-0.000093
816.1217	0.000795
816.3586	-0.000072
816.5955	-0.000347
816.8324	-0.001341
817.0694	-0.000136
817.3063	-0.001235
817.5433	0.000731
817.7802	0.000033
818.0172	-0.000643
818.2542	-0.000411
818.4912	-0.000770
818.7282	-0.000411
818.9652	0.001577
819.2022	-0.001531
819.4392	0.000562
819.6762	-0.000411
819.9133	-0.000918
820.1503	0.000583
820.3874	0.000245
820.6244	-0.000601
820.8615	0.000456
821.0986	-0.002208
821.3357	-0.000326
821.5727	0.000478
821.8099	-0.001214
822.0470	-0.001849
822.2841	0.000372
822.5212	-0.000241
822.7584	-0.001531
822.9955	-0.000072
823.2327	0.000668
823.4698	-0.000072
823.7070	-0.001003
823.9442	0.000414
824.1814	0.000393
824.4186	0.001239
824.6558	-0.001405
824.8930	-0.000580
825.1302	-0.000347
825.3675	-0.001151
825.6047	0.000330
825.8419	-0.000538
826.0792	0.000689
826.3165	-0.000686
826.5537	-0.000897
826.7910	-0.001214
827.0283	-0.000770
827.2656	-0.000855
827.5029	-0.000939
827.7402	0.001154
827.9776	0.000901
828.2149	0.000541
828.4522	0.001598
828.6896	-0.002652
828.9270	0.000372
829.1643	-0.000664
829.4017	-0.001003
829.6391	-0.001109
829.8765	0.000435
830.1139	-0.000791
830.3513	-0.000263
830.5887	-0.001109
830.8261	0.000478
831.0636	-0.000051
831.3010	-0.001405
831.5385	-0.002060
831.7759	-0.002124
832.0134	-0.000241
832.2509	0.000520
832.4884	-0.000389
832.7259	-0.001510
832.9634	0.000224
833.2009	0.000224
833.4384	0.000160
833.6759	0.001831
833.9135	-0.000686
834.1510	-0.001658
834.3886	0.000456
834.6261	-0.001531
834.8637	-0.001235
835.1013	0.000520
835.3389	-0.001553
835.5765	0.001218
835.8141	-0.001553
836.0517	0.000203
836.2893	0.000308
836.5269	0.000182
836.7646	0.000456
837.0022	0.001197
837.2399	-0.001320
837.4775	-0.000072
837.7152	0.000520
837.9529	0.000435
838.1906	-0.001045
838.4283	0.000245
838.6660	0.000879
838.9037	-0.000707
839.1414	-0.001489
839.3791	-0.000263
839.6169	-0.000157
839.8546	-0.000347
840.0924	-0.000115
840.3302	0.000033
840.5679	-0.000897
840.8057	0.000414
841.0435	0.000499
841.2813	0.001387
841.5191	-0.001172
841.7569	0.000964
841.9947	-0.000220
842.2326	-0.000136
842.4704	-0.000622
842.7082	0.001472
842.9461	-0.000093
843.1840	-0.000834
843.4218	0.000118
843.6597	-0.001172
843.8976	0.000055
844.1355	-0.000601
844.3734	-0.000495
844.6113	0.001091
844.8492	-0.001235
845.0872	-0.001743
845.3251	-0.000749
845.5631	-0.000389
845.8010	-0.000516
846.0390	-0.000960
846.2770	0.000922
846.5149	-0.000093
846.7529	-0.000474
846.9909	-0.000220
847.2289	-0.001151
847.4669	0.000224
847.7050	-0.000199
847.9430	-0.000051
848.1810	-0.000834
848.4191	-0.001087
848.6571	-0.001320
848.8952	0.000626
849.1333	-0.001172
849.3713	0.000478
849.6094	-0.000241
849.8475	0.001027
850.0856	0.000055
850.3237	0.000858
850.5619	-0.001680
850.8000	0.001091
851.0381	0.000985
851.2763	-0.000834
851.5144	-0.000495
851.7526	-0.002102
851.9908	0.000308
852.2289	-0.000178
852.4671	0.000055
852.7053	0.000985
852.9435	0.000118
853.1817	0.001302
853.4200	0.000795
853.6582	0.000287
853.8964	-0.000495
854.1347	0.000076
854.3729	-0.000453
854.6112	-0.001235
854.8495	-0.001405
855.0877	0.000435
855.3260	-0.000897
855.5643	0.000012
855.8026	-0.000220
856.0409	0.000604
856.2792	0.000182
856.5176	-0.001193
856.7559	0.000837
856.9942	0.001916
857.2326	0.001429
857.4710	-0.000115
857.7093	0.000097
857.9477	0.000520
858.1861	0.000160
858.4245	0.002254
858.6629	0.000520
858.9013	0.001535
859.1397	0.000520
859.3781	-0.001257
859.6166	-0.000559
859.8550	-0.001574
860.0935	-0.000093
860.3319	0.001768
860.5704	-0.000749
860.8089	-0.000855
861.0473	0.000139
861.2858	-0.000453
861.5243	0.000224
861.7628	0.001091
862.0013	0.000626
862.2399	0.000435
862.4784	-0.001722
862.7169	0.000351
862.9555	0.001175
863.1940	0.000203
863.4326	-0.000664
863.6712	0.000668
863.9098	-0.000157
864.1483	0.000435
864.3869	-0.001130
864.6255	0.000033
864.8642	0.000139
865.1028	-0.000495
865.3414	-0.000559
865.5800	0.000287
865.8187	0.000203
866.0573	0.000774
866.2960	0.000456
866.5347	-0.000199
866.7733	-0.000136
867.0120	0.001641
867.2507	0.000266
867.4894	0.001218
867.7281	-0.001426
867.9669	-0.000326
868.2056	-0.000770
868.4443	0.000731
868.6831	-0.000728
868.9218	0.000901
869.1606	-0.000538
869.3993	-0.000411
869.6381	0.000097
869.8769	0.002169
870.1157	-0.001870
870.3545	0.001197
870.5933	-0.000199
870.8321	0.000731
871.0709	-0.000707
871.3097	0.000520
871.5486	-0.000157
871.7874	0.000203
872.0263	0.000647
872.2651	-0.000622
872.5040	-0.000178
872.7429	-0.000939
872.9818	-0.001976
873.2207	0.000456
873.4596	-0.000939
873.6985	-0.000284
873.9374	-0.000897
874.1763	0.002191
874.4153	0.001006
874.6542	0.000118
874.8932	-0.000664
875.1321	-0.001299
875.3711	-0.000051
875.6101	-0.000157
875.8491	-0.000199
876.0880	-0.000136
876.3270	-0.001574
876.5661	-0.000474
876.8051	-0.001510
877.0441	-0.000411
877.2831	0.001112
877.5222	0.000816
877.7612	0.001577
878.0003	-0.000728
878.2393	0.000668
878.4784	-0.000643
878.7175	-0.000284
878.9566	-0.000157
879.1957	-0.000051
879.4348	0.000308
879.6739	-0.000580
879.9130	-0.000876
880.1521	-0.000115
880.3913	-0.001341
880.6304	0.000266
880.8696	-0.000453
881.1087	0.000224
881.3479	-0.000030
881.5871	0.000774
881.8262	-0.001235
882.0654	-0.000389
882.3046	-0.000960
882.5438	-0.000601
882.7831	-0.000326
883.0223	0.000943
883.2615	-0.001257
883.5007	0.000033
883.7400	0.000245
883.9792	0.000731
884.2185	-0.001087
884.4578	0.000372
884.6971	0.000668
884.9363	0.001408
885.1756	0.001725
885.4149	-0.000284
885.6542	-0.000347
885.8936	-0.000115
886.1329	0.000118
886.3722	-0.000876
886.6116	-0.000960
886.8509	0.002127
887.0903	-0.000939
887.3296	0.000478
887.5690	-0.000516
887.8084	0.000753
888.0478	0.000478
888.2872	0.000647
888.5266	-0.001087
888.7660	-0.000199
889.0054	0.000393
889.2448	-0.001087
889.4843	0.000499
889.7237	-0.000495
889.9632	-0.000960
890.2026	-0.001151
890.4421	-0.000834
890.6816	0.000795
890.9211	0.001641
891.1606	-0.000030
891.4001	0.000097
891.6396	-0.000474
891.8791	0.001049
892.1186	-0.000072
892.3581	-0.000495
892.5977	-0.000115
892.8372	-0.000516
893.0768	0.001979
893.3163	0.002191
893.5559	-0.000241
893.7955	0.000033
894.0351	0.000456
894.2747	-0.000220
894.5143	-0.001447
894.7539	0.000562
894.9935	-0.000178
895.2331	-0.001151
895.4727	0.001154
895.7124	-0.001024
895.9520	-0.001510
896.1917	-0.001278
896.4314	0.000435
896.6710	-0.000136
896.9107	-0.000538
897.1504	0.000097
897.3901	0.000182
897.6298	-0.002145
897.8695	0.000985
898.1092	-0.000136
898.3489	-0.000220
898.5887	-0.000855
898.8284	0.001027
899.0682	0.000520
899.3079	-0.001130
899.5477	0.000224
899.7875	0.000816
900.0272	-0.002377
900.2670	-0.000664
900.5068	0.000647
900.7466	0.000943
900.9864	-0.001024
901.2263	-0.000284
901.4661	0.000033
901.7059	-0.000686
901.9458	0.000710
902.1856	-0.000030
902.4255	0.000456
902.6654	0.000562
902.9052	-0.001658
903.1451	0.000033
903.3850	0.000224
903.6249	0.000837
903.8648	-0.000707
904.1047	-0.000178
904.3446	-0.000093
904.5846	0.000435
904.8245	-0.001637
905.0644	0.000879
905.3044	-0.002060
905.5444	-0.000389
905.7843	-0.000432
906.0243	-0.000326
906.2643	-0.000347
906.5043	0.000456
906.7443	-0.001362
906.9843	-0.000664
907.2243	0.000985
907.4643	0.000287
907.7043	-0.000770
907.9444	-0.000178
908.1844	-0.000559
908.4245	-0.000432
908.6645	0.000858
908.9046	0.000033
909.1447	-0.001870
909.3847	0.002106
909.6248	0.000393
909.8649	0.000266
910.1050	-0.000326
910.3452	0.001154
910.5853	-0.000115
910.8254	-0.000432
911.0655	-0.000368
911.3057	0.001049
911.5458	-0.001468
911.7860	-0.000199
912.0262	0.000626
912.2663	-0.000411
912.5065	0.000393
912.7467	0.002064
912.9869	0.000351
913.2271	-0.000051
913.4673	-0.001109
913.7075	-0.000326
913.9478	0.000393
914.1880	-0.000728
914.4283	0.000520
914.6685	-0.000453
914.9088	0.000731
915.1490	0.000012
915.3893	0.000689
915.6296	0.000710
915.8699	0.000541
916.1102	0.001514
916.3505	-0.000009
916.5908	0.000541
916.8311	0.000245
917.0714	0.000795
917.3118	-0.001066
917.5521	0.000224
917.7925	-0.001087
918.0328	0.000774
918.2732	-0.000749
918.5136	-0.000770
918.7539	-0.000982
918.9943	0.000393
919.2347	-0.000157
919.4751	0.000118
919.7155	-0.000305
919.9560	0.001260
920.1964	-0.000326
920.4368	-0.000009
920.6773	0.000351
920.9177	-0.001997
921.1582	-0.001066
921.3986	0.000414
921.6391	-0.000411
921.8796	0.001789
922.1201	-0.000326
922.3606	0.001197
922.6011	0.000456
922.8416	0.000731
923.0821	-0.000580
923.3226	-0.000918
923.5631	-0.001785
923.8037	-0.001130
924.0442	-0.000453
924.2848	-0.000918
924.5254	-0.000918
924.7659	-0.000305
925.0065	0.000393
925.2471	-0.000664
925.4877	-0.000770
925.7283	0.000330
925.9689	-0.000389
926.2095	-0.001172
926.4501	0.001197
926.6908	-0.000664
926.9314	-0.000474
927.1720	0.000224
927.4127	0.001239
927.6533	-0.000136
927.8940	-0.000305
928.1347	0.000351
928.3754	-0.000707
928.6161	0.001027
928.8568	-0.001426
929.0975	-0.000030
929.3382	-0.000136
929.5789	0.000287
929.8196	0.000668
930.0604	0.000139
930.3011	-0.000178
930.5419	-0.001257
930.7826	-0.000728
931.0234	-0.000178
931.2642	-0.000115
931.5049	0.001027
931.7457	-0.000432
931.9865	-0.001489
932.2273	0.000287
932.4681	-0.000812
932.7089	-0.001426
932.9498	0.001535
933.1906	-0.000199
933.4314	0.000118
933.6723	-0.002356
933.9131	-0.001130
934.1540	0.000541
934.3949	-0.001257
934.6358	-0.001976
934.8766	-0.000982
935.1175	-0.001172
935.3584	0.000731
935.5993	0.001366
935.8403	0.000562
936.0812	-0.000749
936.3221	-0.000812
936.5630	-0.002187
936.8040	0.000774
937.0449	-0.001087
937.2859	-0.002335
937.5269	-0.000770
937.7678	0.000943
938.0088	-0.001109
938.2498	0.000901
938.4908	-0.000072
938.7318	0.000266
938.9728	-0.000305
939.2138	-0.000791
939.4549	-0.000749
939.6959	-0.001637
939.9369	0.001112
940.1780	-0.000664
940.4190	-0.001235
940.6601	0.000435
940.9012	-0.000791
941.1422	0.000287
941.3833	-0.001680
941.6244	0.000203
941.8655	0.000562
942.1066	-0.001003
942.3477	0.001662
942.5889	0.000033
942.8300	0.000287
943.0711	-0.000855
943.3123	-0.000834
943.5534	-0.000474
943.7946	-0.000326
944.0357	-0.000220
944.2769	-0.000136
944.5181	-0.000580
944.7593	-0.001383
945.0005	0.000224
945.2417	-0.001003
945.4829	-0.001278
945.7241	0.000668
945.9653	0.000837
946.2066	-0.000939
946.4478	-0.000474
946.6891	0.001049
946.9303	0.000774
947.1716	0.001810
947.4128	-0.002272
947.6541	-0.001595
947.8954	0.000055
948.1367	0.000182
948.3780	0.000435
948.6193	-0.001468
948.8606	-0.000474
949.1019	-0.000707
949.3433	-0.001658
949.5846	-0.000051
949.8259	-0.000347
950.0673	0.000393
950.3086	-0.001891
950.5500	-0.000601
950.7914	0.000943
951.0327	0.000626
951.2741	0.001133
951.5155	0.001493
951.7569	-0.000982
951.9983	0.000055
952.2398	-0.001278
952.4812	-0.001595
952.7226	-0.001024
952.9640	-0.000664
953.2055	0.000372
953.4469	-0.000072
953.6884	0.000668
953.9299	0.001218
954.1713	0.000520
954.4128	-0.000347
954.6543	-0.000305
954.8958	0.000055
955.1373	-0.000728
955.3788	-0.001130
955.6203	-0.000622
955.8618	-0.000686
956.1034	-0.001045
956.3449	0.001197
956.5865	0.000499
956.8280	0.000266
957.0696	-0.000115
957.3111	0.000118
957.5527	0.000499
957.7943	-0.000559
958.0359	0.000076
958.2775	0.000626
958.5191	0.000182
958.7607	-0.001616
959.0023	-0.001278
959.2439	0.000245
959.4856	-0.000728
959.7272	-0.000241
959.9688	-0.001087
960.2105	0.000774
960.4522	-0.000960
960.6938	-0.001003
960.9355	-0.001891
961.1772	-0.000580
961.4189	-0.000389
961.6606	-0.000960
961.9023	-0.001003
962.1440	0.001197
962.3857	0.000266
962.6274	-0.000686
962.8692	-0.000178
963.1109	-0.000686
963.3527	0.000393
963.5944	-0.000791
963.8362	-0.000834
964.0779	-0.000664
964.3197	0.000393
964.5615	-0.000411
964.8033	0.000308
965.0451	0.001577
965.2869	0.001556
965.5287	-0.000939
965.7705	0.000224
966.0123	-0.000305
966.2542	-0.001045
966.4960	-0.001489
966.7379	-0.000368
966.9797	0.001154
967.2216	0.000351
967.4634	-0.000115
967.7053	-0.002420
967.9472	0.000710
968.1891	-0.001426
968.4310	0.001154
968.6729	-0.001257
968.9148	-0.000516
969.1567	-0.000876
969.3987	0.000266
969.6406	-0.000305
969.8825	0.000287
970.1245	-0.001341
970.3664	-0.001130
970.6084	-0.001383
970.8504	-0.000601
971.0923	0.001197
971.3343	0.000393
971.5763	0.000033
971.8183	-0.000072
972.0603	-0.001553
972.3023	-0.001701
972.5443	0.000160
972.7864	0.001577
973.0284	0.000922
973.2704	0.000012
973.5125	-0.002293
973.7545	0.000139
973.9966	0.000287
974.2387	0.000076
974.4807	-0.000453
974.7228	-0.000368
974.9649	-0.001637
975.2070	-0.000030
975.4491	-0.001637
975.6912	-0.000664
975.9333	-0.000284
976.1755	-0.000347
976.4176	-0.001066
976.6597	-0.000115
976.9019	-0.000960
977.1440	0.000287
977.3862	-0.001595
977.6283	0.000774
977.8705	-0.000389
978.1127	0.000985
978.3549	-0.001193
978.5971	0.001810
978.8393	0.002043
979.0815	0.000795
979.3237	-0.000538
979.5659	0.000964
979.8082	-0.000411
980.0504	-0.001405
980.2926	0.000012
980.5349	0.000033
980.7771	0.000076
981.0194	-0.001003
981.2617	-0.002102
981.5040	-0.001299
981.7462	-0.000326
981.9885	0.000203
982.2308	-0.001828
982.4731	0.000414
982.7155	-0.000051
982.9578	-0.000474
983.2001	-0.002631
983.4424	0.000604
983.6848	-0.000326
983.9271	0.000901
984.1695	0.000478
984.4118	-0.000728
984.6542	-0.000263
984.8966	-0.000559
985.1390	0.000562
985.3814	0.000393
985.6238	0.001641
985.8662	-0.000347
986.1086	0.000795
986.3510	-0.000157
986.5934	-0.000326
986.8358	0.000626
987.0783	-0.001405
987.3207	-0.000622
987.5632	0.000033
987.8056	0.002000
988.0481	-0.001257
988.2906	0.001154
988.5331	-0.000770
988.7756	-0.000093
989.0180	-0.000326
989.2605	0.000245
989.5031	0.001218
989.7456	-0.001087
989.9881	0.000308
990.2306	0.001091
990.4732	-0.000580
990.7157	0.001895
990.9582	0.000139
991.2008	0.000330
991.4434	0.000012
991.6859	0.000731
991.9285	0.000076
992.1711	-0.000432
992.4137	-0.000791
992.6563	-0.000664
992.8989	-0.001743
993.1415	0.000139
993.3841	0.000118
993.6267	0.000076
993.8694	-0.000136
994.1120	0.002571
994.3547	-0.000495
994.5973	-0.001024
994.8400	-0.000157
995.0826	0.000858
995.3253	-0.000072
995.5680	0.000139
995.8107	-0.001849
996.0534	-0.001003
996.2961	-0.000093
996.5388	0.000710
996.7815	0.000287
997.0242	-0.000347
997.2670	-0.000093
997.5097	-0.000580
997.7524	-0.000664
997.9952	0.000668
998.2379	-0.000347
998.4807	0.002127
998.7235	0.000604
998.9662	-0.000115
999.2090	0.000604
999.4518	-0.000960
999.6946	-0.000030
999.9374	-0.001045
1000.1802	-0.000686
1000.4230	0.000393
1000.6659	-0.001045
1000.9087	-0.000897
1001.1515	0.000287
1001.3944	-0.000009
1001.6372	-0.000495
1001.8801	0.000943
1002.1230	-0.001024
1002.3658	0.001387
1002.6087	0.001260
1002.8516	-0.000707
1003.0945	0.000985
1003.3374	-0.001235
1003.5803	-0.001658
1003.8232	-0.000284
1004.0661	0.000351
1004.3091	0.000076
1004.5520	0.000604
1004.7949	0.001450
1005.0379	-0.001066
1005.2808	-0.000389
1005.5238	-0.000855
1005.7667	0.000118
1006.0097	-0.000009
1006.2527	-0.000368
1006.4957	0.001133
1006.7387	-0.001151
1006.9817	-0.001278
1007.2247	-0.001003
1007.4677	-0.001891
1007.7107	0.000753
1007.9538	0.002677
1008.1968	-0.000834
1008.4398	0.000393
1008.6829	-0.000157
1008.9259	-0.000812
1009.1690	-0.000770
1009.4121	-0.001362
1009.6551	-0.000918
1009.8982	-0.000453
1010.1413	-0.001743
1010.3844	-0.000918
1010.6275	0.000245
1010.8706	-0.001468
1011.1137	-0.001785
1011.3568	0.000583
1011.6000	-0.000178
1011.8431	0.000435
1012.0863	0.000393
1012.3294	-0.000241
1012.5726	-0.001109
1012.8157	-0.001214
1013.0589	-0.000834
1013.3021	-0.001405
1013.5452	-0.000284
1013.7884	0.001514
1014.0316	-0.000622
1014.2748	0.001768
1014.5180	0.000182
1014.7613	0.002148
1015.0045	-0.000368
1015.2477	-0.000516
1015.4909	0.000097
1015.7342	-0.000538
1015.9774	0.000372
1016.2207	0.000287
1016.4640	-0.001109
1016.7072	0.000541
1016.9505	-0.000347
1017.1938	0.001958
1017.4371	-0.000474
1017.6804	0.001789
1017.9237	0.000203
1018.1670	0.000076
1018.4103	-0.000982
1018.6536	0.000245
1018.8969	0.001472
1019.1403	0.000647
1019.3836	-0.000093
1019.6270	0.001112
1019.8703	0.000922
1020.1137	0.001514
1020.3571	-0.000495
1020.6004	0.000139
1020.8438	-0.000009
1021.0872	0.000435
1021.3306	-0.000347
1021.5740	0.000182
1021.8174	-0.003942
1022.0608	-0.000982
1022.3042	-0.003900
1022.5477	-0.002039
1022.7911	-0.002631
1023.0345	-0.001172
