# Wavelength (nm)	Intensity (a.u.)
197.7802	0.000702
197.9842	0.000955
198.1882	0.001799
198.3922	-0.000142
198.5963	0.000343
198.8003	-0.000670
199.0044	0.000849
199.2085	-0.000965
199.4126	0.000934
199.6168	0.000005
199.8209	0.002200
200.0251	-0.000185
200.2292	0.000659
200.4334	-0.000142
200.6376	0.001377
200.8418	-0.000649
201.0461	0.000702
201.2503	-0.000501
201.4546	0.000575
201.6589	0.000469
201.8631	-0.000142
202.0674	0.001440
202.2718	0.001271
202.4761	-0.000248
202.6805	0.000786
202.8848	-0.001197
203.0892	-0.000100
203.2936	-0.000543
203.4980	0.001124
203.7024	-0.000206
203.9069	-0.000375
204.1113	-0.000965
204.3158	0.000280
204.5203	-0.000375
204.7248	-0.000311
204.9293	-0.000691
205.1338	0.000596
205.3384	0.000575
205.5430	-0.001050
205.7475	0.000744
205.9521	0.001482
206.1567	0.000659
206.3614	0.000322
206.5660	0.001482
206.7706	0.000786
206.9753	0.000533
207.1800	-0.000058
207.3847	-0.000396
207.5894	0.000617
207.7941	-0.001472
207.9989	0.000385
208.2036	0.000702
208.4084	0.001335
208.6132	-0.000649
208.8180	0.001440
209.0228	-0.000480
209.2276	0.000659
209.4325	-0.000332
209.6373	0.001799
209.8422	0.000280
210.0471	-0.000227
210.2520	0.000322
210.4569	0.002558
210.6618	0.000047
210.8668	0.000427
211.0718	0.000469
211.2767	0.000491
211.4817	0.001145
211.6867	0.000069
211.8918	-0.001155
212.0968	0.000554
212.3018	-0.000100
212.5069	0.001862
212.7120	-0.000649
212.9171	0.001124
213.1222	-0.000839
213.3273	0.001229
213.5325	0.001546
213.7376	0.001081
213.9428	0.000702
214.1480	0.000195
214.3532	0.000512
214.5584	0.000364
214.7636	-0.001240
214.9689	0.000026
215.1741	-0.000522
215.3794	0.000976
215.5847	0.000448
215.7900	0.002115
215.9953	0.000744
216.2007	0.000090
216.4060	0.000343
216.6114	0.000702
216.8168	-0.000396
217.0222	0.000765
217.2276	-0.000923
217.4330	0.002052
217.6384	0.000216
217.8439	0.000132
218.0494	0.000005
218.2548	0.000090
218.4603	0.001187
218.6659	0.001482
218.8714	0.000702
219.0769	-0.000058
219.2825	-0.000016
219.4881	0.000005
219.6936	0.001018
219.8992	0.000744
220.1049	-0.000100
220.3105	0.000047
220.5161	0.000765
220.7218	0.000997
220.9275	0.001419
221.1332	0.001651
221.3389	0.000322
221.5446	-0.000164
221.7503	0.000870
221.9561	0.000005
222.1618	0.000638
222.3676	0.000955
222.5734	-0.000016
222.7792	0.000469
222.9850	0.000322
223.1909	-0.000058
223.3967	-0.001556
223.6026	0.000280
223.8085	0.000575
224.0144	0.000322
224.2203	0.000174
224.4262	0.000090
224.6322	0.001735
224.8381	-0.000712
225.0441	0.000301
225.2501	0.000744
225.4561	0.000491
225.6621	0.002390
225.8681	-0.001387
226.0742	0.001546
226.2802	0.000026
226.4863	0.001039
226.6924	0.000828
226.8985	0.000491
227.1046	-0.000522
227.3107	0.000153
227.5169	-0.000079
227.7230	-0.000923
227.9292	0.000702
228.1354	0.002495
228.3416	0.000638
228.5478	0.001060
228.7541	-0.000037
228.9603	0.000132
229.1666	0.000111
229.3729	-0.000396
229.5791	0.000047
229.7855	0.001229
229.9918	0.000026
230.1981	0.001799
230.4045	0.000702
230.6108	0.001292
230.8172	-0.000944
231.0236	0.001419
231.2300	0.000744
231.4364	0.000005
231.6429	0.000153
231.8493	0.000723
232.0558	-0.000375
232.2623	0.001419
232.4688	-0.000375
232.6753	-0.000375
232.8818	0.000638
233.0884	0.000849
233.2949	-0.001556
233.5015	0.001313
233.7081	0.000723
233.9147	-0.000185
234.1213	-0.000332
234.3279	0.002242
234.5346	-0.000269
234.7413	-0.000058
234.9479	0.000512
235.1546	0.000258
235.3613	-0.000332
235.5680	-0.000691
235.7748	0.000765
235.9815	0.000870
236.1883	0.000786
236.3951	0.001862
236.6018	0.000702
236.8087	-0.000058
237.0155	0.000385
237.2223	0.000575
237.4292	0.000491
237.6360	0.000702
237.8429	0.001989
238.0498	0.000638
238.2567	0.000111
238.4636	-0.000311
238.6706	0.000343
238.8775	0.000575
239.0845	0.001292
239.2915	0.000680
239.4985	-0.000480
239.7055	0.000723
239.9125	0.000258
240.1195	0.000596
240.3266	0.000575
240.5337	0.001630
240.7407	-0.000417
240.9478	-0.000586
241.1549	0.000828
241.3621	0.001672
241.5692	0.000216
241.7764	0.000786
241.9835	0.000617
242.1907	0.002896
242.3979	0.001335
242.6051	0.001039
242.8124	0.000617
243.0196	0.000765
243.2269	-0.000459
243.4341	0.001356
243.6414	0.000469
243.8487	-0.000227
244.0560	0.000364
244.2634	-0.000100
244.4707	0.000617
244.6781	0.001482
244.8854	0.000575
245.0928	0.001672
245.3002	-0.000586
245.5076	0.000596
245.7151	-0.000079
245.9225	0.000301
246.1300	-0.000396
246.3375	0.000723
246.5449	0.001039
246.7524	0.001714
246.9600	-0.000142
247.1675	-0.000037
247.3750	0.000237
247.5826	-0.001261
247.7902	0.000385
247.9978	0.001292
248.2054	-0.000164
248.4130	0.000976
248.6206	0.000364
248.8283	0.001124
249.0359	-0.000058
249.2436	0.001820
249.4513	0.001208
249.6590	0.001799
249.8667	0.000047
250.0745	-0.000206
250.2822	-0.000417
250.4900	-0.000459
250.6978	0.000427
250.9056	-0.000185
251.1134	0.000849
251.3212	0.000828
251.5290	-0.000058
251.7369	0.000322
251.9447	0.000322
252.1526	0.000849
252.3605	0.000702
252.5684	-0.001303
252.7763	0.000090
252.9843	0.001335
253.1922	0.001841
253.4002	0.000828
253.6082	0.000237
253.8162	0.001398
254.0242	-0.001176
254.2322	0.000828
254.4402	0.002516
254.6483	0.000195
254.8564	0.000807
255.0644	0.001335
255.2725	-0.000227
255.4806	0.001250
255.6888	-0.001704
255.8969	0.001145
256.1051	0.000322
256.3132	0.000005
256.5214	-0.000839
256.7296	-0.000164
256.9378	0.000343
257.1460	0.001124
257.3543	-0.000775
257.5625	0.000280
257.7708	0.000026
257.9791	0.000828
258.1874	-0.000860
258.3957	0.000533
258.6040	0.000090
258.8124	-0.000079
259.0207	-0.000121
259.2291	0.001292
259.4375	-0.000206
259.6459	0.000090
259.8543	0.000448
260.0627	-0.000058
260.2711	-0.000269
260.4796	0.000575
260.6881	-0.000396
260.8965	0.001335
261.1050	-0.001704
261.3135	0.001377
261.5221	0.000069
261.7306	-0.000564
261.9392	0.001081
262.1477	0.000469
262.3563	0.001440
262.5649	-0.000227
262.7735	-0.001176
262.9822	0.001440
263.1908	0.000575
263.3995	0.000364
263.6081	-0.000881
263.8168	0.000828
264.0255	0.001208
264.2342	0.000005
264.4429	0.001081
264.6517	0.000575
264.8604	0.000301
265.0692	0.000786
265.2780	-0.000733
265.4868	0.001946
265.6956	0.000427
265.9044	0.001166
266.1133	-0.000522
266.3221	-0.000691
266.5310	-0.000206
266.7399	0.000955
266.9488	0.000090
267.1577	0.001060
267.3666	-0.000860
267.5755	0.001356
267.7845	-0.000100
267.9935	0.000575
268.2024	0.001440
268.4114	-0.000375
268.6205	-0.000607
268.8295	0.000153
269.0385	0.000659
269.2476	0.000765
269.4566	0.001292
269.6657	0.000195
269.8748	0.000891
270.0839	0.001524
270.2931	-0.000142
270.5022	0.000153
270.7114	-0.000332
270.9205	0.002010
271.1297	-0.001451
271.3389	0.001081
271.5481	0.000026
271.7573	-0.000438
271.9666	0.000533
272.1758	0.000765
272.3851	0.000301
272.5944	0.000976
272.8037	-0.000375
273.0130	0.000512
273.2223	0.000596
273.4316	-0.000839
273.6410	0.001208
273.8504	0.000765
274.0597	0.001313
274.2691	-0.000564
274.4785	-0.000206
274.6880	0.000744
274.8974	0.000891
275.1069	0.002453
275.3163	0.000934
275.5258	-0.001071
275.7353	-0.000501
275.9448	-0.000353
276.1543	0.000174
276.3639	0.000237
276.5734	0.001060
276.7830	0.001039
276.9926	0.000343
277.2022	0.001799
277.4118	0.000976
277.6214	0.000807
277.8310	0.000554
278.0407	0.000702
278.2503	-0.000522
278.4600	0.000322
278.6697	-0.001134
278.8794	0.001503
279.0891	0.001081
279.2989	-0.000797
279.5086	-0.000438
279.7184	0.001039
279.9281	0.000554
280.1379	0.001039
280.3477	0.001166
280.5576	0.000807
280.7674	-0.000016
280.9772	0.000744
281.1871	-0.001134
281.3970	0.000744
281.6069	0.000617
281.8168	0.001335
282.0267	0.000533
282.2366	0.001124
282.4466	0.001250
282.6565	-0.000586
282.8665	-0.000058
283.0765	-0.000121
283.2865	0.000976
283.4965	0.000237
283.7065	-0.000290
283.9166	0.000174
284.1266	0.000153
284.3367	0.001820
284.5468	0.001187
284.7569	0.001039
284.9670	0.000069
285.1771	-0.000185
285.3873	0.001419
285.5974	-0.000818
285.8076	0.000828
286.0178	0.000406
286.2280	-0.000733
286.4382	-0.000438
286.6484	-0.000227
286.8587	0.001313
287.0689	-0.000332
287.2792	0.000997
287.4895	0.000723
287.6998	0.000891
287.9101	0.000870
288.1204	0.000680
288.3308	-0.000290
288.5411	0.000617
288.7515	-0.000522
288.9619	0.000870
289.1723	0.000828
289.3827	0.001166
289.5931	0.000596
289.8035	0.001567
290.0140	0.000406
290.2245	0.000069
290.4349	0.000512
290.6454	0.001208
290.8559	0.001208
291.0665	0.000723
291.2770	0.000533
291.4875	0.000280
291.6981	-0.001514
291.9087	0.000047
292.1193	0.000069
292.3299	0.000216
292.5405	0.001145
292.7511	0.000364
292.9618	0.000934
293.1724	-0.000142
293.3831	0.000786
293.5938	0.000891
293.8045	0.000280
294.0152	0.000427
294.2260	0.000617
294.4367	0.000343
294.6475	0.000807
294.8582	0.000554
295.0690	0.000659
295.2798	0.000870
295.4906	0.000870
295.7015	0.000132
295.9123	-0.000016
296.1232	0.000491
296.3340	0.001039
296.5449	0.000512
296.7558	-0.000628
296.9667	0.000427
297.1777	0.001271
297.3886	0.000216
297.5995	0.001567
297.8105	0.001271
298.0215	0.000322
298.2325	0.000575
298.4435	0.000237
298.6545	-0.000037
298.8656	0.000997
299.0766	0.001461
299.2877	0.001377
299.4988	0.001208
299.7099	0.002094
299.9210	0.000216
300.1321	-0.000311
300.3432	0.000280
300.5544	0.001482
300.7655	-0.001113
300.9767	0.000280
301.1879	0.000322
301.3991	0.000090
301.6103	0.000680
301.8215	0.001018
302.0328	0.000301
302.2441	-0.000438
302.4553	0.001482
302.6666	0.000870
302.8779	-0.000564
303.0892	-0.000860
303.3006	0.000955
303.5119	0.000533
303.7233	0.001292
303.9346	-0.000332
304.1460	0.000638
304.3574	0.000237
304.5688	0.001081
304.7803	-0.000100
304.9917	0.001714
305.2031	0.001377
305.4146	-0.000016
305.6261	0.001124
305.8376	0.000659
306.0491	-0.000775
306.2606	0.000828
306.4722	0.000237
306.6837	0.000659
306.8953	-0.000058
307.1069	-0.000754
307.3184	0.000237
307.5301	-0.000227
307.7417	0.000786
307.9533	0.001588
308.1650	-0.001050
308.3766	0.001482
308.5883	-0.000375
308.8000	0.000723
309.0117	0.000385
309.2234	0.000364
309.4351	0.000174
309.6469	0.000554
309.8586	-0.000248
310.0704	0.001419
310.2822	0.001124
310.4940	0.000280
310.7058	-0.000353
310.9176	0.000870
311.1295	0.001398
311.3413	-0.000100
311.5532	0.000280
311.7651	0.000934
311.9770	-0.000164
312.1889	0.001039
312.4008	0.001398
312.6127	0.001588
312.8247	0.001145
313.0366	-0.000058
313.2486	-0.000353
313.4606	0.000406
313.6726	0.000659
313.8846	0.000828
314.0967	0.000870
314.3087	0.000554
314.5208	-0.000818
314.7328	0.001145
314.9449	0.001292
315.1570	0.000659
315.3692	-0.000269
315.5813	0.000322
315.7934	0.001335
316.0056	0.000807
316.2177	0.000891
316.4299	0.000765
316.6421	-0.000417
316.8543	0.000680
317.0666	0.001018
317.2788	0.001102
317.4911	0.000111
317.7033	0.000849
317.9156	0.000047
318.1279	0.000005
318.3402	0.000153
318.5525	0.000934
318.7649	-0.000480
318.9772	0.000828
319.1896	-0.000733
319.4019	0.001313
319.6143	0.000280
319.8267	0.000617
320.0392	0.000807
320.2516	-0.000016
320.4640	-0.001261
320.6765	0.000533
320.8890	-0.001050
321.1014	0.001166
321.3139	0.000575
321.5265	0.001693
321.7390	-0.000311
321.9515	0.000702
322.1641	-0.000058
322.3766	0.000195
322.5892	0.002094
322.8018	0.000005
323.0144	-0.000290
323.2270	0.002094
323.4397	0.000828
323.6523	0.001398
323.8650	-0.001366
324.0777	-0.000501
324.2904	-0.000016
324.5031	-0.000248
324.7158	0.000005
324.9285	0.000047
325.1412	0.000575
325.3540	0.001102
325.5668	-0.001261
325.7796	-0.000227
325.9924	-0.000775
326.2052	0.000427
326.4180	0.002200
326.6308	-0.000142
326.8437	0.001208
327.0566	0.000554
327.2694	0.000090
327.4823	0.000469
327.6952	0.000870
327.9082	0.001588
328.1211	0.001039
328.3340	0.000575
328.5470	-0.000185
328.7600	0.000828
328.9730	-0.000522
329.1860	0.000406
329.3990	-0.000185
329.6120	0.001145
329.8251	0.000153
330.0381	0.000575
330.2512	0.000385
330.4643	0.001060
330.6774	-0.000269
330.8905	0.000301
331.1036	0.001145
331.3167	0.001503
331.5299	0.000090
331.7431	0.002010
331.9562	0.000554
332.1694	0.000744
332.3826	0.000301
332.5959	0.000744
332.8091	0.000680
333.0223	0.001398
333.2356	0.001187
333.4489	0.000343
333.6622	-0.000121
333.8755	0.000702
334.0888	-0.000860
334.3021	0.000301
334.5154	0.000406
334.7288	0.000955
334.9422	0.000385
335.1555	-0.000121
335.3689	-0.000185
335.5823	0.000702
335.7958	0.001313
336.0092	0.001335
336.2227	-0.000185
336.4361	0.000258
336.6496	-0.000353
336.8631	-0.000037
337.0766	-0.000417
337.2901	-0.000142
337.5036	0.001356
337.7172	0.000153
337.9307	-0.000438
338.1443	0.001060
338.3579	-0.000501
338.5715	0.001609
338.7851	0.000807
338.9987	0.000090
339.2124	0.000533
339.4260	0.001757
339.6397	0.001862
339.8533	0.000554
340.0670	0.000491
340.2807	0.000891
340.4945	0.000195
340.7082	-0.000227
340.9219	0.000132
341.1357	0.001567
341.3495	0.001546
341.5633	0.001693
341.7771	0.000807
341.9909	0.000638
342.2047	0.000554
342.4185	0.001735
342.6324	0.000301
342.8463	0.000132
343.0601	0.000596
343.2740	0.000491
343.4879	0.000047
343.7019	-0.000311
343.9158	0.000364
344.1297	-0.000164
344.3437	-0.000311
344.5577	0.000448
344.7717	0.001039
344.9857	0.001503
345.1997	0.000723
345.4137	0.000448
345.6277	0.000385
345.8418	-0.000375
346.0559	-0.000164
346.2699	0.000744
346.4840	-0.000438
346.6981	0.001145
346.9123	0.000047
347.1264	0.000069
347.3406	-0.001830
347.5547	0.000891
347.7689	-0.001176
347.9831	-0.001029
348.1973	-0.000480
348.4115	0.000913
348.6257	-0.000691
348.8400	0.001588
349.0542	-0.000185
349.2685	0.001208
349.4828	0.000976
349.6971	0.001503
349.9114	-0.000016
350.1257	0.000448
350.3400	-0.000353
350.5544	0.001672
350.7687	0.000702
350.9831	0.001377
351.1975	0.000638
351.4119	0.001651
351.6263	0.000111
351.8407	0.000111
352.0552	-0.000100
352.2696	0.001292
352.4841	-0.000986
352.6986	0.001039
352.9131	0.000659
353.1276	0.000026
353.3421	0.000322
353.5566	-0.000459
353.7712	-0.000543
353.9858	0.000596
354.2003	0.000828
354.4149	0.000343
354.6295	-0.000121
354.8441	0.000195
355.0588	0.000702
355.2734	-0.000797
355.4881	0.000828
355.7027	0.000491
355.9174	-0.000290
356.1321	0.000385
356.3468	0.000469
356.5615	0.000343
356.7763	-0.001240
356.9910	0.000322
357.2058	0.001208
357.4206	0.000132
357.6353	0.001335
357.8501	0.000723
358.0650	0.001060
358.2798	0.000891
358.4946	0.001292
358.7095	0.000744
358.9243	0.000554
359.1392	0.001018
359.3541	0.001208
359.5690	0.001335
359.7839	-0.000311
359.9989	0.001145
360.2138	-0.001429
360.4288	0.000659
360.6438	-0.000986
360.8587	0.000702
361.0737	0.000322
361.2888	0.000976
361.5038	-0.000818
361.7188	0.001335
361.9339	0.000554
362.1489	0.001482
362.3640	0.000596
362.5791	-0.000396
362.7942	0.000448
363.0093	0.001356
363.2245	-0.000016
363.4396	0.000280
363.6548	0.000258
363.8699	0.000976
364.0851	0.000026
364.3003	-0.000227
364.5155	0.000174
364.7308	-0.000332
364.9460	0.000343
365.1612	0.000765
365.3765	-0.000375
365.5918	0.000891
365.8071	0.001419
366.0224	0.000680
366.2377	-0.000079
366.4530	0.000301
366.6684	0.000702
366.8837	0.000406
367.0991	0.001039
367.3145	0.000512
367.5299	0.000047
367.7453	0.001609
367.9607	0.000174
368.1761	-0.000058
368.3916	-0.000375
368.6070	-0.000375
368.8225	-0.001640
369.0380	0.000280
369.2535	0.000723
369.4690	0.000322
369.6845	-0.000016
369.9001	-0.000164
370.1156	-0.000712
370.3312	-0.000564
370.5468	0.000491
370.7624	0.001145
370.9780	-0.000016
371.1936	0.002010
371.4092	0.000596
371.6249	-0.000775
371.8405	0.000069
372.0562	0.001229
372.2719	0.000301
372.4876	0.000976
372.7033	-0.000206
372.9190	0.001735
373.1348	-0.000037
373.3505	-0.000164
373.5663	0.000005
373.7820	0.001757
373.9978	-0.000142
374.2136	0.001524
374.4294	0.000828
374.6453	0.001292
374.8611	-0.000100
375.0770	0.001039
375.2928	-0.000185
375.5087	0.001356
375.7246	-0.001113
375.9405	0.001081
376.1564	0.000786
376.3724	0.001313
376.5883	-0.000438
376.8043	0.000343
377.0203	0.000385
377.2362	0.000744
377.4522	0.001145
377.6682	0.000406
377.8843	-0.000965
378.1003	0.000153
378.3164	0.000680
378.5324	0.000132
378.7485	-0.000628
378.9646	0.001820
379.1807	0.000153
379.3968	0.001335
379.6129	0.002474
379.8291	0.000744
380.0452	0.000005
380.2614	0.002136
380.4776	-0.000965
380.6938	0.001018
380.9100	0.000891
381.1262	0.000807
381.3424	0.000385
381.5587	0.001124
381.7749	0.000702
381.9912	-0.000522
382.2075	0.000596
382.4238	-0.000100
382.6401	0.000026
382.8564	0.000891
383.0728	0.000828
383.2891	0.000533
383.5055	0.001524
383.7219	0.001018
383.9382	0.000132
384.1546	0.001524
384.3711	0.001102
384.5875	0.002305
384.8039	0.000596
385.0204	0.001946
385.2368	0.000448
385.4533	0.001968
385.6698	0.000786
385.8863	0.001419
386.1028	0.001968
386.3194	0.001693
386.5359	0.001039
386.7525	0.001609
386.9690	0.001968
387.1856	0.002495
387.4022	0.002052
387.6188	0.000744
387.8355	0.000322
388.0521	0.002052
388.2687	0.001862
388.4854	0.003550
388.7021	0.001546
388.9188	0.002474
389.1355	0.002432
389.3522	0.002812
389.5689	0.002622
389.7856	0.003571
390.0024	0.003086
390.2192	0.004352
390.4359	0.003423
390.6527	0.005301
390.8695	0.002727
391.0863	0.005533
391.3032	0.004753
391.5200	0.005322
391.7369	0.006736
391.9537	0.004795
392.1706	0.005660
392.3875	0.006694
392.6044	0.005808
392.8213	0.009500
393.0383	0.007453
393.2552	0.008023
393.4722	0.008677
393.6891	0.009563
393.9061	0.007327
394.1231	0.008973
394.3401	0.009015
394.5572	0.010450
394.7742	0.010471
394.9912	0.010133
395.2083	0.009880
395.4254	0.009627
395.6425	0.012011
395.8596	0.011716
396.0767	0.012454
396.2938	0.013404
396.5109	0.011462
396.7281	0.013720
396.9453	0.012011
397.1624	0.014395
397.3796	0.013910
397.5968	0.015767
397.8140	0.015830
398.0313	0.016400
398.2485	0.017075
398.4658	0.016674
398.6830	0.015471
398.9003	0.017033
399.1176	0.017033
399.3349	0.017708
399.5522	0.016547
399.7696	0.017602
399.9869	0.017054
400.2043	0.019100
400.4216	0.017096
400.6390	0.018299
400.8564	0.018467
401.0738	0.020704
401.2912	0.019565
401.5087	0.019776
401.7261	0.019923
401.9436	0.020409
402.1610	0.020472
402.3785	0.022329
402.5960	0.022012
402.8135	0.022244
403.0310	0.021907
403.2486	0.020176
403.4661	0.020008
403.6837	0.021907
403.9013	0.021717
404.1189	0.024418
404.3365	0.023341
404.5541	0.023742
404.7717	0.023932
404.9893	0.025008
405.2070	0.024228
405.4246	0.024671
405.6423	0.025198
405.8600	0.026591
406.0777	0.025008
406.2954	0.024966
406.5131	0.024755
406.7309	0.025430
406.9486	0.026506
407.1664	0.023679
407.3842	0.023109
407.6020	0.023616
407.8198	0.025536
408.0376	0.025705
408.2554	0.025051
408.4733	0.026781
408.6911	0.024734
408.9090	0.025451
409.1269	0.027709
409.3448	0.026654
409.5627	0.025135
409.7806	0.025958
409.9985	0.028215
410.2165	0.026633
410.4344	0.026274
410.6524	0.028047
410.8704	0.025937
411.0884	0.025683
411.3064	0.027899
411.5244	0.028891
411.7424	0.028047
411.9605	0.028237
412.1785	0.026591
412.3966	0.027139
412.6147	0.028511
412.8328	0.028891
413.0509	0.030811
413.2690	0.029671
413.4871	0.027625
413.7053	0.031950
413.9234	0.030051
414.1416	0.029270
414.3598	0.029017
414.5780	0.030093
414.7962	0.029988
415.0144	0.027498
415.2326	0.028363
415.4509	0.028068
415.6692	0.028722
415.8874	0.030536
416.1057	0.030220
416.3240	0.030410
416.5423	0.028722
416.7606	0.029798
416.9790	0.029102
417.1973	0.029798
417.4157	0.031064
417.6341	0.029017
417.8524	0.029819
418.0708	0.029397
418.2893	0.029460
418.5077	0.028848
418.7261	0.029650
418.9446	0.030325
419.1630	0.032984
419.3815	0.031106
419.6000	0.031085
419.8185	0.032625
420.0370	0.031212
420.2555	0.032119
420.4741	0.032034
420.6926	0.032435
420.9112	0.032731
421.1298	0.033153
421.3483	0.034714
421.5669	0.035875
421.7856	0.038807
422.0042	0.034820
422.2228	0.035959
422.4415	0.037584
422.6601	0.036824
422.8788	0.033786
423.0975	0.033722
423.3162	0.032583
423.5349	0.033132
423.7536	0.033406
423.9724	0.032499
424.1911	0.031866
424.4099	0.032351
424.6287	0.033617
424.8475	0.035199
425.0663	0.032098
425.2851	0.034398
425.5039	0.032625
425.7228	0.033744
425.9416	0.029967
426.1605	0.031887
426.3793	0.029165
426.5982	0.030199
426.8171	0.032499
427.0361	0.030874
427.2550	0.029650
427.4739	0.032815
427.6929	0.033047
427.9118	0.033005
428.1308	0.030811
428.3498	0.031148
428.5688	0.030558
428.7878	0.031760
429.0068	0.029207
429.2259	0.032604
429.4449	0.032583
429.6640	0.033870
429.8831	0.033786
430.1022	0.035664
430.3213	0.035621
430.5404	0.034946
430.7595	0.037309
430.9787	0.034756
431.1978	0.032013
431.4170	0.033955
431.6362	0.032499
431.8553	0.029503
432.0745	0.029017
432.2938	0.029059
432.5130	0.030030
432.7322	0.029882
432.9515	0.027899
433.1707	0.027540
433.3900	0.029988
433.6093	0.031676
433.8286	0.035832
434.0479	0.036191
434.2673	0.031781
434.4866	0.029397
434.7059	0.031866
434.9253	0.029123
435.1447	0.029292
435.3641	0.029671
435.5835	0.029650
435.8029	0.028722
436.0223	0.031338
436.2418	0.031549
436.4612	0.030410
436.6807	0.031317
436.9001	0.030726
437.1196	0.030093
437.3391	0.030790
437.5586	0.028996
437.7782	0.028469
437.9977	0.030009
438.2173	0.028996
438.4368	0.031845
438.6564	0.032119
438.8760	0.029144
439.0956	0.029460
439.3152	0.030895
439.5348	0.027772
439.7545	0.030072
439.9741	0.028827
440.1938	0.029376
440.4135	0.030178
440.6331	0.030072
440.8528	0.029228
441.0725	0.031001
441.2923	0.033258
441.5120	0.035643
441.7318	0.034609
441.9515	0.034482
442.1713	0.035347
442.3911	0.032182
442.6109	0.033364
442.8307	0.031401
443.0505	0.031043
443.2703	0.034123
443.4902	0.032878
443.7101	0.033406
443.9299	0.031465
444.1498	0.033427
444.3697	0.032140
444.5896	0.032288
444.8095	0.032224
445.0295	0.031169
445.2494	0.031591
445.4694	0.030937
445.6894	0.031823
445.9093	0.029692
446.1293	0.029650
446.3493	0.029903
446.5694	0.031781
446.7894	0.031465
447.0094	0.030114
447.2295	0.031887
447.4496	0.031507
447.6696	0.029418
447.8897	0.028827
448.1098	0.030093
448.3300	0.029334
448.5501	0.030072
448.7702	0.028848
448.9904	0.028237
449.2106	0.026612
449.4307	0.028258
449.6509	0.029059
449.8711	0.028511
450.0914	0.028068
450.3116	0.025768
450.5318	0.027498
450.7521	0.024502
450.9724	0.027477
451.1926	0.025557
451.4129	0.023552
451.6332	0.024671
451.8535	0.025726
452.0739	0.026127
452.2942	0.024987
452.5146	0.024966
452.7349	0.026253
452.9553	0.023974
453.1757	0.024375
453.3961	0.024861
453.6165	0.022561
453.8369	0.023932
454.0574	0.022033
454.2778	0.021020
454.4983	0.019417
454.7188	0.023152
454.9393	0.020620
455.1597	0.022350
455.3803	0.021928
455.6008	0.022877
455.8213	0.020831
456.0419	0.020725
456.2624	0.022160
456.4830	0.021189
456.7036	0.018868
456.9242	0.019944
457.1448	0.020113
457.3654	0.022244
457.5860	0.020134
457.8067	0.022118
458.0274	0.021527
458.2480	0.022603
458.4687	0.020219
458.6894	0.021822
458.9101	0.020261
459.1308	0.020662
459.3516	0.021210
459.5723	0.021611
459.7931	0.020662
460.0138	0.018932
460.2346	0.019290
460.4554	0.021569
460.6762	0.019290
460.8970	0.020282
461.1178	0.018045
461.3387	0.018995
461.5595	0.019881
461.7804	0.017856
462.0013	0.017117
462.2222	0.016252
462.4431	0.015914
462.6640	0.016125
462.8849	0.016442
463.1059	0.015492
463.3268	0.017581
463.5478	0.016632
463.7687	0.016969
463.9897	0.017708
464.2107	0.018130
464.4317	0.017518
464.6528	0.017075
464.8738	0.018552
465.0948	0.017497
465.3159	0.016526
465.5370	0.018256
465.7581	0.017560
465.9792	0.019164
466.2003	0.015260
466.4214	0.015535
466.6425	0.016357
466.8637	0.013994
467.0848	0.014184
467.3060	0.014480
467.5272	0.013868
467.7484	0.014543
467.9696	0.012939
468.1908	0.012897
468.4120	0.013889
468.6333	0.012349
468.8545	0.011990
469.0758	0.011863
469.2970	0.012285
469.5183	0.011357
469.7396	0.011230
469.9610	0.012349
470.1823	0.011547
470.4036	0.010661
470.6250	0.008762
470.8463	0.010196
471.0677	0.010260
471.2891	0.009838
471.5105	0.009120
471.7319	0.009015
471.9533	0.011505
472.1748	0.010534
472.3962	0.011040
472.6177	0.008487
472.8391	0.010808
473.0606	0.008213
473.2821	0.010175
473.5036	0.009943
473.7251	0.009606
473.9467	0.009690
474.1682	0.010175
474.3898	0.010682
474.6113	0.008065
474.8329	0.009922
475.0545	0.009458
475.2761	0.010239
475.4977	0.008276
475.7193	0.010872
475.9410	0.009163
476.1626	0.007496
476.3843	0.008909
476.6060	0.010112
476.8277	0.009521
477.0494	0.008804
477.2711	0.007749
477.4928	0.007411
477.7145	0.007242
477.9363	0.009901
478.1580	0.009774
478.3798	0.009563
478.6016	0.007221
478.8234	0.009922
479.0452	0.008129
479.2670	0.008171
479.4888	0.007622
479.7107	0.009395
479.9325	0.007559
480.1544	0.008762
480.3763	0.008403
480.5982	0.007306
480.8201	0.008508
481.0420	0.007559
481.2639	0.006335
481.4859	0.007812
481.7078	0.007981
481.9298	0.006778
482.1517	0.008445
482.3737	0.007264
482.5957	0.006103
482.8177	0.006230
483.0398	0.008213
483.2618	0.008002
483.4838	0.005533
483.7059	0.007306
483.9280	0.007791
484.1501	0.006187
484.3721	0.006799
484.5943	0.007791
484.8164	0.006609
485.0385	0.009268
485.2606	0.008150
485.4828	0.009205
485.7050	0.014859
485.9271	0.020240
486.1493	0.022012
486.3715	0.018489
486.5937	0.014037
486.8160	0.012095
487.0382	0.010154
487.2605	0.010618
487.4827	0.010450
487.7050	0.006588
487.9273	0.007031
488.1496	0.007453
488.3719	0.007031
488.5942	0.006884
488.8165	0.006040
489.0389	0.005280
489.2612	0.005850
489.4836	0.007432
489.7060	0.005048
489.9284	0.005723
490.1508	0.005090
490.3732	0.005702
490.5956	0.005175
490.8180	0.006272
491.0405	0.005132
491.2630	0.006061
491.4854	0.005006
491.7079	0.004478
491.9304	0.003191
492.1529	0.005913
492.3755	0.004563
492.5980	0.005597
492.8205	0.003255
493.0431	0.002643
493.2657	0.005681
493.4882	0.006230
493.7108	0.004352
493.9334	0.005196
494.1561	0.003719
494.3787	0.002980
494.6013	0.003634
494.8240	0.005449
495.0466	0.004246
495.2693	0.004183
495.4920	0.005428
495.7147	0.003740
495.9374	0.003592
496.1601	0.003508
496.3829	0.004436
496.6056	0.003824
496.8284	0.004478
497.0511	0.003656
497.2739	0.002833
497.4967	0.003613
497.7195	0.002643
497.9423	0.004436
498.1652	0.004436
498.3880	0.004816
498.6109	0.003972
498.8337	0.005554
499.0566	0.004267
499.2795	0.004732
499.5024	0.003951
499.7253	0.004753
499.9482	0.003845
500.1712	0.005154
500.3941	0.004246
500.6171	0.002558
500.8400	0.003044
501.0630	0.004605
501.2860	0.004457
501.5090	0.004521
501.7320	0.003972
501.9551	0.002769
502.1781	0.003803
502.4012	0.002136
502.6242	0.003993
502.8473	0.003571
503.0704	0.003402
503.2935	0.004499
503.5166	0.004753
503.7397	0.003529
503.9628	0.002558
504.1860	0.003318
504.4092	0.003107
504.6323	0.004478
504.8555	0.002474
505.0787	0.003634
505.3019	0.002833
505.5251	0.002643
505.7483	0.002980
505.9716	0.003613
506.1948	0.002073
506.4181	0.004457
506.6414	0.004141
506.8647	0.003234
507.0880	0.003212
507.3113	0.004035
507.5346	0.002833
507.7579	0.003360
507.9813	0.002284
508.2046	0.002727
508.4280	0.002411
508.6514	0.002980
508.8748	0.003698
509.0982	0.004415
509.3216	0.002516
509.5450	0.003550
509.7685	0.003212
509.9919	0.001883
510.2154	0.003128
510.4388	0.002727
510.6623	0.002748
510.8858	0.003656
511.1093	0.002347
511.3329	0.002959
511.5564	0.004521
511.7799	0.003255
512.0035	0.002790
512.2270	0.003613
512.4506	0.002368
512.6742	0.003951
512.8978	0.002959
513.1214	0.003423
513.3451	0.003761
513.5687	0.003234
513.7923	0.003508
514.0160	0.003761
514.2397	0.002854
514.4634	0.003845
514.6871	0.002411
514.9108	0.003234
515.1345	0.002305
515.3582	0.003381
515.5819	0.004732
515.8057	0.002938
516.0295	0.003719
516.2532	0.003656
516.4770	0.003972
516.7008	0.004331
516.9246	0.003698
517.1485	0.002516
517.3723	0.002474
517.5961	0.003656
517.8200	0.003318
518.0439	0.003086
518.2677	0.002411
518.4916	0.002242
518.7155	0.003972
518.9395	0.004436
519.1634	0.003592
519.3873	0.003529
519.6113	0.003381
519.8352	0.003276
520.0592	0.003423
520.2832	0.002179
520.5072	0.002010
520.7312	0.003255
520.9552	0.004668
521.1792	0.003719
521.4033	0.004373
521.6273	0.004014
521.8514	0.004077
522.0755	0.003951
522.2996	0.004964
522.5237	0.001503
522.7478	0.003571
522.9719	0.004331
523.1960	0.003656
523.4202	0.003297
523.6443	0.002601
523.8685	0.003972
524.0927	0.004331
524.3169	0.003001
524.5411	0.004310
524.7653	0.005027
524.9895	0.003234
525.2138	0.002896
525.4380	0.005365
525.6623	0.004204
525.8865	0.003634
526.1108	0.004331
526.3351	0.005048
526.5594	0.003339
526.7837	0.004478
527.0081	0.004352
527.2324	0.005470
527.4568	0.001820
527.6811	0.005871
527.9055	0.004373
528.1299	0.003867
528.3543	0.004077
528.5787	0.005723
528.8031	0.004943
529.0276	0.005132
529.2520	0.005998
529.4765	0.004352
529.7009	0.005787
529.9254	0.005533
530.1499	0.004605
530.3744	0.006736
530.5989	0.004141
530.8234	0.006166
531.0480	0.004288
531.2725	0.006335
531.4971	0.004668
531.7217	0.006166
531.9462	0.004774
532.1708	0.005280
532.3954	0.004499
532.6200	0.005765
532.8447	0.005681
533.0693	0.005976
533.2940	0.006926
533.5186	0.006377
533.7433	0.005998
533.9680	0.007411
534.1927	0.006061
534.4174	0.007538
534.6421	0.007010
534.8668	0.008888
535.0916	0.008572
535.3163	0.007664
535.5411	0.009015
535.7659	0.008255
535.9907	0.007580
536.2155	0.009669
536.4403	0.007580
536.6651	0.007496
536.8899	0.007960
537.1148	0.008572
537.3396	0.006884
537.5645	0.008741
537.7894	0.008340
538.0143	0.009774
538.2392	0.009880
538.4641	0.008213
538.6890	0.008340
538.9139	0.010682
539.1389	0.008044
539.3638	0.009985
539.5888	0.009922
539.8138	0.010112
540.0388	0.010703
540.2638	0.011061
540.4888	0.009985
540.7138	0.011420
540.9389	0.011230
541.1639	0.013889
541.3890	0.010850
541.6140	0.011357
541.8391	0.011863
542.0642	0.011927
542.2893	0.010597
542.5144	0.011927
542.7396	0.013826
542.9647	0.011905
543.1899	0.011863
543.4150	0.014691
543.6402	0.014923
543.8654	0.015513
544.0906	0.013868
544.3158	0.014079
544.5410	0.013214
544.7662	0.014775
544.9915	0.013847
545.2167	0.015197
545.4420	0.014648
545.6673	0.014606
545.8926	0.014838
546.1179	0.016505
546.3432	0.015535
546.5685	0.015724
546.7938	0.016020
547.0192	0.016885
547.2445	0.015513
547.4699	0.017138
547.6953	0.016189
547.9206	0.020852
548.1460	0.019987
548.3715	0.019607
548.5969	0.020240
548.8223	0.018995
549.0478	0.018531
549.2732	0.019354
549.4987	0.019143
549.7242	0.018425
549.9496	0.018995
550.1751	0.018953
550.4007	0.016969
550.6262	0.019776
550.8517	0.019122
551.0773	0.017898
551.3028	0.017476
551.5284	0.018151
551.7540	0.019438
551.9796	0.021189
552.2052	0.021548
552.4308	0.024270
552.6564	0.021168
552.8820	0.024143
553.1077	0.023510
553.3333	0.023890
553.5590	0.022962
553.7847	0.024291
554.0104	0.025283
554.2361	0.023278
554.4618	0.022983
554.6875	0.023236
554.9132	0.021527
555.1390	0.024861
555.3648	0.026591
555.5905	0.024713
555.8163	0.022708
556.0421	0.026443
556.2679	0.028511
556.4937	0.028110
556.7195	0.024966
556.9454	0.025578
557.1712	0.025262
557.3971	0.026844
557.6230	0.025641
557.8488	0.027034
558.0747	0.027878
558.3006	0.026401
558.5266	0.025705
558.7525	0.024228
558.9784	0.024882
559.2044	0.024375
559.4303	0.027034
559.6563	0.026612
559.8823	0.026591
560.1083	0.030136
560.3343	0.029671
560.5603	0.030916
560.7863	0.035495
561.0124	0.035685
561.2384	0.035031
561.4645	0.036613
561.6905	0.035410
561.9166	0.035516
562.1427	0.035347
562.3688	0.037077
562.5949	0.035157
562.8211	0.035157
563.0472	0.035136
563.2733	0.035917
563.4995	0.036297
563.7257	0.036128
563.9519	0.037330
564.1781	0.038470
564.4043	0.039546
564.6305	0.040179
564.8567	0.039651
565.0829	0.040453
565.3092	0.040432
565.5355	0.040306
565.7617	0.039926
565.9880	0.041276
566.2143	0.041993
566.4406	0.044926
566.6669	0.042837
566.8932	0.045011
567.1196	0.045918
567.3459	0.052733
567.5723	0.055075
567.7987	0.057059
568.0250	0.058388
568.2514	0.059380
568.4778	0.063283
568.7043	0.066638
568.9307	0.069381
569.1571	0.072630
569.3836	0.079888
569.6100	0.086661
569.8365	0.094764
570.0630	0.105124
570.2895	0.105039
570.5160	0.103773
570.7425	0.108563
570.9690	0.111875
571.1956	0.128586
571.4221	0.126160
571.6487	0.131224
571.8752	0.133566
572.1018	0.138862
572.3284	0.139748
572.5550	0.134051
572.7816	0.119724
573.0082	0.117720
573.2349	0.127552
573.4615	0.141710
573.6882	0.154729
573.9149	0.153927
574.1415	0.160404
574.3682	0.170849
574.5949	0.176630
574.8216	0.177369
575.0484	0.174794
575.2751	0.180850
575.5018	0.174794
575.7286	0.170216
575.9554	0.161143
576.1821	0.164793
576.4089	0.165405
576.6357	0.175048
576.8626	0.184521
577.0894	0.190661
577.3162	0.192096
577.5431	0.200768
577.7699	0.220327
577.9968	0.251871
578.2237	0.246617
578.4505	0.229548
578.6774	0.218998
578.9044	0.207879
579.1313	0.193489
579.3582	0.198342
579.5851	0.203321
579.8121	0.208469
580.0391	0.212478
580.2660	0.213575
580.4930	0.211487
580.7200	0.201823
580.9470	0.204840
581.1741	0.247166
581.4011	0.294725
581.6281	0.322175
581.8552	0.329412
582.0822	0.323167
582.3093	0.307342
582.5364	0.287044
582.7635	0.267358
582.9906	0.245415
583.2177	0.226383
583.4449	0.211571
583.6720	0.198764
583.8991	0.195156
584.1263	0.195556
584.3535	0.201950
584.5807	0.206992
584.8079	0.213175
585.0351	0.225054
585.2623	0.239718
585.4895	0.242777
585.7167	0.238790
585.9440	0.232038
586.1713	0.220728
586.3985	0.206718
586.6258	0.199354
586.8531	0.207351
587.0804	0.216973
587.3077	0.227712
587.5350	0.232924
587.7624	0.232628
587.9897	0.221256
588.2171	0.206486
588.4445	0.205769
588.6718	0.198975
588.8992	0.192940
589.1266	0.174731
589.3540	0.171313
589.5815	0.166544
589.8089	0.163274
590.0363	0.166966
590.2638	0.157472
590.4913	0.153716
590.7187	0.147745
590.9462	0.141499
591.1737	0.135549
591.4012	0.133545
591.6288	0.136077
591.8563	0.133017
592.0838	0.133228
592.3114	0.134410
592.5389	0.157050
592.7665	0.182686
592.9941	0.202118
593.2217	0.204735
593.4493	0.204777
593.6769	0.203194
593.9046	0.193151
594.1322	0.186315
594.3598	0.175617
594.5875	0.175638
594.8152	0.184964
595.0429	0.194269
595.2705	0.202203
595.4983	0.198088
595.7260	0.188404
595.9537	0.175069
596.1814	0.166207
596.4092	0.153526
596.6369	0.146669
596.8647	0.144179
597.0925	0.147344
597.3203	0.150108
597.5481	0.157134
597.7759	0.154454
598.0037	0.148146
598.2315	0.140676
598.4594	0.143926
598.6872	0.155045
598.9151	0.178023
599.1430	0.183340
599.3709	0.180660
599.5988	0.180681
599.8267	0.181420
600.0546	0.185408
600.2825	0.189923
600.5105	0.188425
600.7384	0.185091
600.9664	0.187243
601.1944	0.191969
601.4223	0.188762
601.6503	0.178424
601.8783	0.172832
602.1064	0.174204
602.3344	0.165384
602.5624	0.172769
602.7905	0.173043
603.0185	0.178592
603.2466	0.185956
603.4747	0.193046
603.7028	0.190725
603.9309	0.187391
604.1590	0.177200
604.3871	0.171018
604.6152	0.163295
604.8434	0.160510
605.0715	0.154665
605.2997	0.161248
605.5279	0.170807
605.7561	0.178107
605.9843	0.177495
606.2125	0.174098
606.4407	0.162852
606.6689	0.156037
606.8972	0.158463
607.1254	0.160531
607.3537	0.165700
607.5819	0.166882
607.8102	0.162156
608.0385	0.158885
608.2668	0.153188
608.4951	0.143630
608.7235	0.147238
608.9518	0.145466
609.1801	0.138524
609.4085	0.137364
609.6369	0.136541
609.8653	0.137912
610.0936	0.150973
610.3220	0.153632
610.5505	0.146837
610.7789	0.144221
611.0073	0.140613
611.2357	0.141225
611.4642	0.138503
611.6927	0.142090
611.9211	0.135866
612.1496	0.133798
612.3781	0.132215
612.6066	0.129198
612.8351	0.130295
613.0637	0.131540
613.2922	0.129515
613.5208	0.130802
613.7493	0.130253
613.9779	0.132258
614.2065	0.127278
614.4351	0.127468
614.6637	0.130295
614.8923	0.127194
615.1209	0.128924
615.3495	0.130527
615.5782	0.133059
615.8068	0.132026
616.0355	0.128987
616.2642	0.118712
616.4929	0.115737
616.7216	0.116201
616.9503	0.113289
617.1790	0.114260
617.4077	0.112065
617.6365	0.112361
617.8652	0.112192
618.0940	0.113521
618.3227	0.109871
618.5515	0.103309
618.7803	0.096599
619.0091	0.094299
619.2379	0.089447
619.4667	0.088096
619.6956	0.095333
619.9244	0.092633
620.1533	0.097696
620.3821	0.098393
620.6110	0.099406
620.8399	0.092738
621.0688	0.084024
621.2977	0.075268
621.5266	0.076934
621.7556	0.076829
621.9845	0.082188
622.2135	0.083096
622.4424	0.085543
622.6714	0.086366
622.9004	0.085079
623.1294	0.091725
623.3584	0.089257
623.5874	0.091409
623.8164	0.090755
624.0454	0.087083
624.2745	0.088835
624.5035	0.092105
624.7326	0.087801
624.9617	0.092105
625.1908	0.087020
625.4199	0.084826
625.6490	0.082083
625.8781	0.079909
626.1072	0.077230
626.3364	0.076787
626.5655	0.074951
626.7947	0.073010
627.0238	0.073980
627.2530	0.071892
627.4822	0.071955
627.7114	0.072398
627.9406	0.069761
628.1698	0.068473
628.3991	0.059443
628.6283	0.062608
628.8576	0.062080
629.0868	0.061574
629.3161	0.063030
629.5454	0.065498
629.7747	0.063895
630.0040	0.061468
630.2333	0.063009
630.4626	0.061616
630.6920	0.057860
630.9213	0.057881
631.1507	0.053936
631.3801	0.056172
631.6094	0.054717
631.8388	0.053113
632.0682	0.051425
632.2976	0.054717
632.5271	0.051615
632.7565	0.048450
632.9859	0.045158
633.2154	0.045791
633.4448	0.046235
633.6743	0.044293
633.9038	0.046192
634.1333	0.044019
634.3628	0.043681
634.5923	0.043808
634.8218	0.040960
635.0514	0.040474
635.2809	0.040517
635.5105	0.041593
635.7400	0.041972
635.9696	0.042605
636.1992	0.043766
636.4288	0.043745
636.6584	0.046192
636.8880	0.047184
637.1177	0.044610
637.3473	0.042078
637.5770	0.041128
637.8066	0.041044
638.0363	0.040728
638.2660	0.041382
638.4957	0.042753
638.7254	0.040749
638.9551	0.042437
639.1848	0.042331
639.4145	0.039820
639.6443	0.039150
639.8740	0.038535
640.1038	0.036804
640.3336	0.038786
640.5633	0.037503
640.7931	0.037613
641.0229	0.035676
641.2528	0.034811
641.4826	0.034987
641.7124	0.032075
641.9423	0.033700
642.1721	0.030915
642.4020	0.030749
642.6319	0.028836
642.8617	0.030461
643.0916	0.031150
643.3216	0.029595
643.5515	0.031149
643.7814	0.029751
644.0113	0.030504
644.2413	0.027458
644.4712	0.028208
644.7012	0.027156
644.9312	0.028403
645.1612	0.027200
645.3912	0.027808
645.6212	0.029628
645.8512	0.027677
646.0812	0.027094
646.3113	0.027076
646.5413	0.025027
646.7714	0.023906
647.0015	0.026720
647.2316	0.026074
647.4616	0.024808
647.6918	0.027389
647.9219	0.026808
648.1520	0.030535
648.3821	0.032931
648.6123	0.031337
648.8424	0.032398
649.0726	0.035102
649.3028	0.035622
649.5329	0.033760
649.7631	0.031381
649.9933	0.031967
650.2236	0.030333
650.4538	0.032766
650.6840	0.030820
650.9143	0.028932
651.1445	0.029320
651.3748	0.028826
651.6051	0.030558
651.8354	0.030402
652.0657	0.028987
652.2960	0.032736
652.5263	0.031499
652.7566	0.033054
652.9870	0.031062
653.2173	0.031939
653.4477	0.033289
653.6780	0.031982
653.9084	0.033383
654.1388	0.035244
654.3692	0.037049
654.5996	0.035821
654.8300	0.040441
655.0605	0.067004
655.2909	0.187659
655.5213	0.530209
655.7518	0.965365
655.9823	1.000000
656.2128	1.000000
656.4433	1.000000
656.6738	1.000000
656.9043	1.000000
657.1348	0.878051
657.3653	0.714504
657.5959	0.615181
657.8264	0.538843
658.0570	0.493250
658.2875	0.451351
658.5181	0.411213
658.7487	0.385805
658.9793	0.373698
659.2099	0.330225
659.4406	0.252736
659.6712	0.162920
659.9018	0.098223
660.1325	0.062015
660.3632	0.039900
660.5938	0.031446
660.8245	0.027877
661.0552	0.025784
661.2859	0.023435
661.5166	0.023372
661.7474	0.024009
661.9781	0.022670
662.2088	0.022618
662.4396	0.022595
662.6704	0.022820
662.9011	0.021888
663.1319	0.021194
663.3627	0.022204
663.5935	0.021580
663.8243	0.022397
664.0552	0.020113
664.2860	0.022788
664.5168	0.022839
664.7477	0.024534
664.9786	0.021883
665.2094	0.024722
665.4403	0.023685
665.6712	0.024105
665.9021	0.025015
666.1330	0.024353
666.3640	0.022832
666.5949	0.021482
666.8259	0.020798
667.0568	0.020695
667.2878	0.021902
667.5188	0.022181
667.7497	0.021715
667.9807	0.021751
668.2117	0.019365
668.4428	0.020472
668.6738	0.021527
668.9048	0.021717
669.1359	0.020029
669.3669	0.023679
669.5980	0.021864
669.8291	0.020472
670.0602	0.020936
670.2913	0.021696
670.5224	0.022751
670.7535	0.021907
670.9846	0.022265
671.2157	0.026021
671.4469	0.026274
671.6781	0.030663
671.9092	0.029017
672.1404	0.031697
672.3716	0.032900
672.6028	0.035157
672.8340	0.034672
673.0652	0.033533
673.2964	0.030916
673.5277	0.031380
673.7589	0.029756
673.9902	0.028279
674.2214	0.027920
674.4527	0.029566
674.6840	0.026802
674.9153	0.027582
675.1466	0.027540
675.3779	0.028237
675.6093	0.025325
675.8406	0.026696
676.0719	0.025029
676.3033	0.025810
676.5347	0.027139
676.7661	0.025283
676.9974	0.023616
677.2288	0.024017
677.4602	0.023426
677.6917	0.028300
677.9231	0.028342
678.1545	0.030726
678.3860	0.029059
678.6174	0.030431
678.8489	0.030389
679.0804	0.030579
679.3119	0.033849
679.5434	0.033364
679.7749	0.034144
680.0064	0.036571
680.2379	0.035896
680.4694	0.034714
680.7010	0.032710
680.9325	0.033976
681.1641	0.034102
681.3957	0.034946
681.6273	0.036275
681.8589	0.033786
682.0905	0.032224
682.3221	0.034250
682.5537	0.031760
682.7854	0.030431
683.0170	0.031064
683.2487	0.031212
683.4803	0.031866
683.7120	0.033722
683.9437	0.032203
684.1754	0.032351
684.4071	0.034503
684.6388	0.038322
684.8705	0.040348
685.1023	0.040327
685.3340	0.043070
685.5658	0.044673
685.7975	0.045644
686.0293	0.044420
686.2611	0.043534
686.4929	0.044525
686.7247	0.042437
686.9565	0.043112
687.1883	0.044800
687.4202	0.045517
687.6520	0.042669
687.8838	0.042141
688.1157	0.041361
688.3476	0.041086
688.5795	0.038596
688.8114	0.036866
689.0433	0.037520
689.2752	0.036529
689.5071	0.037605
689.7390	0.037288
689.9710	0.036529
690.2029	0.033617
690.4349	0.032245
690.6669	0.034777
690.8988	0.036824
691.1308	0.037436
691.3628	0.037626
691.5948	0.038027
691.8269	0.039609
692.0589	0.036887
692.2909	0.038407
692.5230	0.038027
692.7550	0.037837
692.9871	0.039862
693.2192	0.038744
693.4513	0.040685
693.6834	0.041213
693.9155	0.037584
694.1476	0.035537
694.3797	0.034693
694.6119	0.034229
694.8440	0.033891
695.0762	0.035579
695.3083	0.036297
695.5405	0.033237
695.7727	0.032625
696.0049	0.027561
696.2371	0.029144
696.4693	0.030853
696.7016	0.036887
696.9338	0.038786
697.1660	0.040875
697.3983	0.039145
697.6306	0.039736
697.8628	0.037647
698.0951	0.038217
698.3274	0.038660
698.5597	0.037774
698.7920	0.036655
699.0243	0.036634
699.2567	0.037795
699.4890	0.034482
699.7214	0.033216
699.9537	0.032267
700.1861	0.031971
700.4185	0.030958
700.6509	0.032456
700.8833	0.029587
701.1157	0.029418
701.3481	0.028574
701.5806	0.031254
701.8130	0.028511
702.0454	0.029017
702.2779	0.030579
702.5104	0.030262
702.7429	0.030811
702.9753	0.029798
703.2078	0.030853
703.4403	0.029376
703.6729	0.029144
703.9054	0.029123
704.1379	0.029608
704.3705	0.027414
704.6030	0.026802
704.8356	0.026591
705.0682	0.024924
705.3008	0.023489
705.5334	0.025578
705.7660	0.025325
705.9986	0.023299
706.2312	0.027160
706.4638	0.030452
706.6965	0.032056
706.9291	0.034166
707.1618	0.039483
707.3945	0.038428
707.6272	0.037352
707.8599	0.039145
708.0926	0.037921
708.3253	0.038491
708.5580	0.038744
708.7907	0.037035
709.0235	0.034820
709.2562	0.034208
709.4890	0.035305
709.7217	0.033111
709.9545	0.034904
710.1873	0.035031
710.4201	0.036550
710.6529	0.035178
710.8857	0.035347
711.1186	0.031380
711.3514	0.033005
711.5842	0.031233
711.8171	0.029650
712.0500	0.029503
712.2828	0.028785
712.5157	0.029418
712.7486	0.029165
712.9815	0.028279
713.2144	0.029397
713.4474	0.030916
713.6803	0.033490
713.9132	0.034229
714.1462	0.033912
714.3791	0.035242
714.6121	0.035621
714.8451	0.036149
715.0781	0.033195
715.3111	0.036001
715.5441	0.033427
715.7771	0.033005
716.0102	0.031887
716.2432	0.031676
716.4762	0.031423
716.7093	0.030790
716.9424	0.028912
717.1754	0.028384
717.4085	0.025894
717.6416	0.027160
717.8747	0.028448
718.1078	0.028827
718.3410	0.028701
718.5741	0.029545
718.8072	0.028827
719.0404	0.027730
719.2736	0.030937
719.5067	0.030579
719.7399	0.028616
719.9731	0.030937
720.2063	0.031085
720.4395	0.028321
720.6727	0.030262
720.9060	0.029102
721.1392	0.029925
721.3725	0.028722
721.6057	0.031085
721.8390	0.030157
722.0723	0.031549
722.3055	0.029671
722.5388	0.028933
722.7721	0.026886
723.0055	0.029735
723.2388	0.029671
723.4721	0.028975
723.7055	0.028089
723.9388	0.028152
724.1722	0.026781
724.4056	0.028068
724.6389	0.025894
724.8723	0.029313
725.1057	0.030515
725.3391	0.033427
725.5726	0.032309
725.8060	0.032541
726.0394	0.032562
726.2729	0.034545
726.5063	0.033068
726.7398	0.033638
726.9733	0.029946
727.2068	0.034250
727.4403	0.031845
727.6738	0.032857
727.9073	0.031676
728.1408	0.033955
728.3743	0.034271
728.6079	0.034566
728.8414	0.034651
729.0750	0.035031
729.3086	0.033891
729.5421	0.035558
729.7757	0.037752
730.0093	0.037330
730.2429	0.037689
730.4766	0.037056
730.7102	0.040052
730.9438	0.041846
731.1775	0.044926
731.4111	0.044547
731.6448	0.044251
731.8785	0.043871
732.1122	0.041150
732.3458	0.040960
732.5795	0.039757
732.8133	0.042605
733.0470	0.041571
733.2807	0.043112
733.5145	0.043344
733.7482	0.048366
733.9820	0.047205
734.2157	0.052564
734.4495	0.051910
734.6833	0.051488
734.9171	0.049589
735.1509	0.047121
735.3847	0.046024
735.6185	0.049442
735.8524	0.050497
736.0862	0.049547
736.3201	0.049526
736.5539	0.047416
736.7878	0.048028
737.0217	0.047838
737.2556	0.049336
737.4895	0.046994
737.7234	0.044779
737.9573	0.042563
738.1912	0.044272
738.4252	0.040854
738.6591	0.041150
738.8931	0.043914
739.1271	0.044272
739.3610	0.046741
739.5950	0.044673
739.8290	0.047226
740.0630	0.046108
740.2970	0.042394
740.5310	0.039567
740.7651	0.038428
740.9991	0.038786
741.2332	0.037162
741.4672	0.034334
741.7013	0.035347
741.9354	0.032773
742.1695	0.036360
742.4036	0.032857
742.6377	0.034988
742.8718	0.033406
743.1059	0.035579
743.3400	0.033955
743.5742	0.031296
743.8083	0.031697
744.0425	0.031317
744.2767	0.028912
744.5108	0.032203
744.7450	0.028215
744.9792	0.030937
745.2134	0.030705
745.4477	0.029566
745.6819	0.029038
745.9161	0.026971
746.1504	0.028300
746.3846	0.029819
746.6189	0.028110
746.8532	0.025367
747.0874	0.028237
747.3217	0.031697
747.5560	0.031971
747.7903	0.032731
748.0247	0.031001
748.2590	0.027793
748.4933	0.030579
748.7277	0.030726
748.9620	0.029397
749.1964	0.030832
749.4308	0.031423
749.6652	0.036254
749.8995	0.035896
750.1339	0.040242
750.3684	0.040390
750.6028	0.041023
750.8372	0.039926
751.0717	0.038238
751.3061	0.038681
751.5406	0.039335
751.7750	0.040770
752.0095	0.041044
752.2440	0.041550
752.4785	0.038955
752.7130	0.037647
752.9475	0.036930
753.1820	0.037119
753.4166	0.038048
753.6511	0.037647
753.8856	0.042880
754.1202	0.042226
754.3548	0.040158
754.5894	0.040263
754.8239	0.040812
755.0585	0.037963
755.2931	0.041698
755.5278	0.042500
755.7624	0.042584
755.9970	0.044547
756.2317	0.045538
756.4663	0.048091
756.7010	0.052332
756.9356	0.048703
757.1703	0.052860
757.4050	0.057249
757.6397	0.058029
757.8744	0.057776
758.1091	0.058620
758.3438	0.057607
758.5786	0.055328
758.8133	0.052860
759.0481	0.053324
759.2828	0.056953
759.5176	0.058114
759.7524	0.057924
759.9872	0.060709
760.2220	0.062798
760.4568	0.063621
760.6916	0.064021
760.9264	0.063093
761.1613	0.061785
761.3961	0.060772
761.6310	0.056637
761.8658	0.052691
762.1007	0.051045
762.3356	0.051552
762.5705	0.050201
762.8054	0.048577
763.0403	0.049399
763.2752	0.051488
763.5101	0.050370
763.7450	0.050117
763.9800	0.050011
764.2149	0.054041
764.4499	0.058514
764.6849	0.057987
764.9198	0.056489
765.1548	0.058915
765.3898	0.059358
765.6248	0.054906
765.8599	0.053071
766.0949	0.050032
766.3299	0.047015
766.5650	0.044272
766.8000	0.040559
767.0351	0.040875
767.2701	0.039440
767.5052	0.037795
767.7403	0.040221
767.9754	0.039799
768.2105	0.044357
768.4456	0.044926
768.6808	0.047754
768.9159	0.050243
769.1510	0.048133
769.3862	0.045644
769.6214	0.047880
769.8565	0.044694
770.0917	0.042795
770.3269	0.042479
770.5621	0.047648
770.7973	0.043998
771.0325	0.048830
771.2677	0.049252
771.5030	0.047416
771.7382	0.045011
771.9735	0.043998
772.2087	0.042626
772.4440	0.039989
772.6793	0.040917
772.9146	0.041825
773.1499	0.039018
773.3852	0.038470
773.6205	0.038723
773.8558	0.034988
774.0911	0.035453
774.3265	0.037837
774.5618	0.034419
774.7972	0.032900
775.0326	0.031064
775.2679	0.029207
775.5033	0.028342
775.7387	0.027815
775.9741	0.029144
776.2095	0.028215
776.4450	0.026316
776.6804	0.026949
776.9158	0.026190
777.1513	0.025451
777.3868	0.026295
777.6222	0.025536
777.8577	0.023763
778.0932	0.024607
778.3287	0.024481
778.5642	0.027793
778.7997	0.028490
779.0352	0.029861
779.2707	0.030262
779.5063	0.030874
779.7418	0.031296
779.9774	0.030157
780.2130	0.029017
780.4485	0.027730
780.6841	0.029313
780.9197	0.031655
781.1553	0.032056
781.3909	0.033343
781.6265	0.037373
781.8622	0.034313
782.0978	0.034419
782.3335	0.034144
782.5691	0.035263
782.8048	0.032752
783.0405	0.032182
783.2761	0.033279
783.5118	0.036993
783.7475	0.035854
783.9832	0.034756
784.2190	0.035432
784.4547	0.028363
784.6904	0.028215
784.9262	0.029038
785.1619	0.030093
785.3977	0.030114
785.6335	0.030769
785.8692	0.028827
786.1050	0.030347
786.3408	0.028806
786.5766	0.026992
786.8124	0.027477
787.0483	0.025937
787.2841	0.028764
787.5199	0.029925
787.7558	0.029376
787.9917	0.030663
788.2275	0.029629
788.4634	0.030790
788.6993	0.031971
788.9352	0.034967
789.1711	0.030452
789.4070	0.027646
789.6429	0.030178
789.8789	0.027203
790.1148	0.027477
790.3507	0.026992
790.5867	0.025916
790.8227	0.023932
791.0586	0.023510
791.2946	0.022793
791.5306	0.024882
791.7666	0.024987
792.0026	0.023806
792.2387	0.023236
792.4747	0.022160
792.7107	0.023257
792.9468	0.021970
793.1828	0.021738
793.4189	0.021210
793.6550	0.022223
793.8910	0.027498
794.1271	0.029967
794.3632	0.032984
794.5993	0.031676
794.8355	0.033047
795.0716	0.034777
795.3077	0.033385
795.5439	0.032456
795.7800	0.027772
796.0162	0.026633
796.2523	0.027498
796.4885	0.024185
796.7247	0.021991
796.9609	0.021632
797.1971	0.021843
797.4333	0.022983
797.6695	0.023658
797.9058	0.025198
798.1420	0.024207
798.3783	0.024122
798.6145	0.022898
798.8508	0.023341
799.0871	0.023700
799.3233	0.023658
799.5596	0.020641
799.7959	0.023004
800.0322	0.022118
800.2686	0.020915
800.5049	0.019544
800.7412	0.019987
800.9776	0.019501
801.2139	0.019354
801.4503	0.019607
801.6867	0.017265
801.9230	0.018383
802.1594	0.015324
802.3958	0.017117
802.6322	0.016463
802.8686	0.018868
803.1051	0.017455
803.3415	0.017518
803.5779	0.018742
803.8144	0.017223
804.0508	0.019122
804.2873	0.017138
804.5238	0.018826
804.7603	0.017054
804.9968	0.019079
805.2333	0.019628
805.4698	0.017982
805.7063	0.018404
805.9428	0.019628
806.1794	0.021316
806.4159	0.024544
806.6525	0.025114
806.8890	0.024882
807.1256	0.024080
807.3622	0.023341
807.5988	0.023004
807.8354	0.021042
808.0720	0.024502
808.3086	0.024333
808.5452	0.020999
808.7818	0.024692
809.0185	0.023025
809.2551	0.024755
809.4918	0.020788
809.7284	0.020303
809.9651	0.019733
810.2018	0.019269
810.4385	0.018489
810.6752	0.019966
810.9119	0.020155
811.1486	0.019860
811.3853	0.019818
811.6221	0.018573
811.8588	0.018868
812.0956	0.015788
812.3323	0.015935
812.5691	0.014965
812.8059	0.013615
813.0427	0.013193
813.2795	0.016189
813.5163	0.017033
813.7531	0.019396
813.9899	0.019333
814.2267	0.018974
814.4636	0.019248
814.7004	0.018657
814.9373	0.019396
815.1742	0.016590
815.4110	0.014437
815.6479	0.014353
815.8848	0.014712
816.1217	0.013678
816.3586	0.015218
816.5955	0.014142
816.8324	0.015324
817.0694	0.015513
817.3063	0.014606
817.5433	0.015302
817.7802	0.012560
818.0172	0.015197
818.2542	0.015513
818.4912	0.014290
818.7282	0.012792
818.9652	0.013256
819.2022	0.011863
819.4392	0.012602
819.6762	0.011251
819.9133	0.011336
820.1503	0.013551
820.3874	0.012749
820.6244	0.015724
820.8615	0.015640
821.0986	0.016041
821.3357	0.014838
821.5727	0.015577
821.8099	0.013826
822.0470	0.015788
822.2841	0.013826
822.5212	0.013446
822.7584	0.012982
822.9955	0.013910
823.2327	0.011568
823.4698	0.013446
823.7070	0.010618
823.9442	0.010492
824.1814	0.010450
824.4186	0.012053
824.6558	0.011694
824.8930	0.013361
825.1302	0.011863
825.3675	0.011884
825.6047	0.014923
825.8419	0.013593
826.0792	0.013488
826.3165	0.011019
826.5537	0.012412
826.7910	0.011589
827.0283	0.013530
827.2656	0.013129
827.5029	0.015767
827.7402	0.013277
827.9776	0.014205
828.2149	0.012349
828.4522	0.013024
828.6896	0.012264
828.9270	0.014543
829.1643	0.014670
829.4017	0.013361
829.6391	0.012771
829.8765	0.011399
830.1139	0.012433
830.3513	0.013214
830.5887	0.009247
830.8261	0.010555
831.0636	0.008297
831.3010	0.009479
831.5385	0.007897
831.7759	0.008825
832.0134	0.007348
832.2509	0.007306
832.4884	0.008129
832.7259	0.008340
832.9634	0.010217
833.2009	0.008086
833.4384	0.008804
833.6759	0.010428
833.9135	0.008234
834.1510	0.009289
834.3886	0.010893
834.6261	0.012327
834.8637	0.010196
835.1013	0.009247
835.3389	0.010428
835.5765	0.010555
835.8141	0.010133
836.0517	0.009352
836.2893	0.009331
836.5269	0.008171
836.7646	0.007390
837.0022	0.007791
837.2399	0.007010
837.4775	0.008403
837.7152	0.006251
837.9529	0.007432
838.1906	0.006377
838.4283	0.007074
838.6660	0.007179
838.9037	0.007601
839.1414	0.007179
839.3791	0.007221
839.6169	0.006757
839.8546	0.007728
840.0924	0.006567
840.3302	0.007622
840.5679	0.008129
840.8057	0.008086
841.0435	0.007601
841.2813	0.007875
841.5191	0.007242
841.7569	0.006609
841.9947	0.005597
842.2326	0.007643
842.4704	0.006103
842.7082	0.004225
842.9461	0.004774
843.1840	0.005154
843.4218	0.005175
843.6597	0.005238
843.8976	0.007116
844.1355	0.005597
844.3734	0.006293
844.6113	0.005090
844.8492	0.005934
845.0872	0.004943
845.3251	0.005090
845.5631	0.006230
845.8010	0.005027
846.0390	0.007074
846.2770	0.005660
846.5149	0.004753
846.7529	0.004858
846.9909	0.005913
847.2289	0.004415
847.4669	0.006040
847.7050	0.005365
847.9430	0.004668
848.1810	0.003677
848.4191	0.004879
848.6571	0.005090
848.8952	0.005597
849.1333	0.005470
849.3713	0.005723
849.6094	0.005787
849.8475	0.005702
850.0856	0.005196
850.3237	0.004605
850.5619	0.004626
850.8000	0.005069
851.0381	0.004267
851.2763	0.005386
851.5144	0.005470
851.7526	0.005702
851.9908	0.005428
852.2289	0.006166
852.4671	0.006652
852.7053	0.007327
852.9435	0.010070
853.1817	0.010872
853.4200	0.014290
853.6582	0.014712
853.8964	0.014163
854.1347	0.013572
854.3729	0.014543
854.6112	0.013361
854.8495	0.014416
855.0877	0.014037
855.3260	0.013636
855.5643	0.013214
855.8026	0.012391
856.0409	0.011927
856.2792	0.011758
856.5176	0.013235
856.7559	0.011927
856.9942	0.011927
857.2326	0.011547
857.4710	0.008741
857.7093	0.011251
857.9477	0.009078
858.1861	0.010597
858.4245	0.009880
858.6629	0.008340
858.9013	0.008994
859.1397	0.008973
859.3781	0.009753
859.6166	0.009753
859.8550	0.009247
860.0935	0.007960
860.3319	0.008192
860.5704	0.008846
860.8089	0.007179
861.0473	0.007306
861.2858	0.008234
861.5243	0.006989
861.7628	0.008361
862.0013	0.006609
862.2399	0.007601
862.4784	0.004710
862.7169	0.006778
862.9555	0.004795
863.1940	0.005660
863.4326	0.006947
863.6712	0.007285
863.9098	0.007559
864.1483	0.005702
864.3869	0.006778
864.6255	0.006166
864.8642	0.005512
865.1028	0.005554
865.3414	0.004879
865.5800	0.006166
865.8187	0.005533
866.0573	0.004563
866.2960	0.004267
866.5347	0.006103
866.7733	0.005512
867.0120	0.006061
867.2507	0.004436
867.4894	0.005597
867.7281	0.006567
867.9669	0.006926
868.2056	0.005322
868.4443	0.006145
868.6831	0.005871
868.9218	0.004858
869.1606	0.004710
869.3993	0.005533
869.6381	0.004099
869.8769	0.005280
870.1157	0.005871
870.3545	0.004921
870.5933	0.005343
870.8321	0.007538
871.0709	0.004499
871.3097	0.004795
871.5486	0.005533
871.7874	0.006398
872.0263	0.003993
872.2651	0.005744
872.5040	0.004331
872.7429	0.004732
872.9818	0.003487
873.2207	0.004099
873.4596	0.005322
873.6985	0.006525
873.9374	0.004605
874.1763	0.005428
874.4153	0.004921
874.6542	0.005723
874.8932	0.004415
875.1321	0.007137
875.3711	0.004225
875.6101	0.006462
875.8491	0.006673
876.0880	0.007264
876.3270	0.005217
876.5661	0.005850
876.8051	0.004732
877.0441	0.005470
877.2831	0.006356
877.5222	0.006082
877.7612	0.006420
878.0003	0.006863
878.2393	0.006778
878.4784	0.007496
878.7175	0.008994
878.9566	0.006905
879.1957	0.006905
879.4348	0.007664
879.6739	0.007242
879.9130	0.007791
880.1521	0.006462
880.3913	0.006757
880.6304	0.010049
880.8696	0.008530
881.1087	0.008340
881.3479	0.007095
881.5871	0.005998
881.8262	0.005998
882.0654	0.007074
882.3046	0.004077
882.5438	0.006905
882.7831	0.005533
883.0223	0.006377
883.2615	0.005386
883.5007	0.005576
883.7400	0.006019
883.9792	0.006314
884.2185	0.007369
884.4578	0.006441
884.6971	0.007643
884.9363	0.005322
885.1756	0.006884
885.4149	0.006209
885.6542	0.005702
885.8936	0.006947
886.1329	0.009184
886.3722	0.006251
886.6116	0.005998
886.8509	0.006061
887.0903	0.005048
887.3296	0.004141
887.5690	0.006145
887.8084	0.006272
888.0478	0.003993
888.2872	0.005639
888.5266	0.005744
888.7660	0.005175
889.0054	0.004120
889.2448	0.005892
889.4843	0.005934
889.7237	0.005787
889.9632	0.005259
890.2026	0.005048
890.4421	0.004014
890.6816	0.005702
890.9211	0.006124
891.1606	0.004035
891.4001	0.004077
891.6396	0.005407
891.8791	0.006567
892.1186	0.005871
892.3581	0.005069
892.5977	0.005976
892.8372	0.005618
893.0768	0.004415
893.3163	0.005765
893.5559	0.004162
893.7955	0.005533
894.0351	0.005343
894.2747	0.004710
894.5143	0.003508
894.7539	0.003170
894.9935	0.004900
895.2331	0.003909
895.4727	0.005892
895.7124	0.004521
895.9520	0.005027
896.1917	0.003339
896.4314	0.005955
896.6710	0.004014
896.9107	0.004668
897.1504	0.006820
897.3901	0.006314
897.6298	0.005533
897.8695	0.006019
898.1092	0.004732
898.3489	0.004879
898.5887	0.006040
898.8284	0.004795
899.0682	0.004499
899.3079	0.005090
899.5477	0.005618
899.7875	0.004014
900.0272	0.003297
900.2670	0.003613
900.5068	0.005301
900.7466	0.003845
900.9864	0.006103
901.2263	0.004647
901.4661	0.004246
901.7059	0.004858
901.9458	0.003381
902.1856	0.005154
902.4255	0.004626
902.6654	0.005723
902.9052	0.003845
903.1451	0.003930
903.3850	0.004162
903.6249	0.005787
903.8648	0.004310
904.1047	0.005702
904.3446	0.003234
904.5846	0.003888
904.8245	0.004837
905.0644	0.004795
905.3044	0.005365
905.5444	0.005702
905.7843	0.004774
906.0243	0.005470
906.2643	0.005639
906.5043	0.004225
906.7443	0.005554
906.9843	0.005955
907.2243	0.004774
907.4643	0.003993
907.7043	0.003592
907.9444	0.004626
908.1844	0.005597
908.4245	0.003951
908.6645	0.003951
908.9046	0.004964
909.1447	0.002980
909.3847	0.004099
909.6248	0.003867
909.8649	0.003023
910.1050	0.003402
910.3452	0.004035
910.5853	0.004647
910.8254	0.004985
911.0655	0.003001
911.3057	0.004288
911.5458	0.003149
911.7860	0.005006
912.0262	0.003888
912.2663	0.005386
912.5065	0.004732
912.7467	0.005365
912.9869	0.004225
913.2271	0.003888
913.4673	0.002685
913.7075	0.002727
913.9478	0.003170
914.1880	0.003423
914.4283	0.003466
914.6685	0.003339
914.9088	0.002305
915.1490	0.003993
915.3893	0.003529
915.6296	0.003255
915.8699	0.002052
916.1102	0.004183
916.3505	0.003782
916.5908	0.005217
916.8311	0.003191
917.0714	0.004774
917.3118	0.003613
917.5521	0.004394
917.7925	0.005576
918.0328	0.003001
918.2732	0.005850
918.5136	0.003466
918.7539	0.004056
918.9943	0.004457
919.2347	0.003234
919.4751	0.003740
919.7155	0.002601
919.9560	0.004288
920.1964	0.003761
920.4368	0.005280
920.6773	0.004099
920.9177	0.004267
921.1582	0.003613
921.3986	0.002938
921.6391	0.002896
921.8796	0.003508
922.1201	0.003782
922.3606	0.003719
922.6011	0.003423
922.8416	0.003888
923.0821	0.002537
923.3226	0.004056
923.5631	0.003993
923.8037	0.002347
924.0442	0.002200
924.2848	0.003212
924.5254	0.003972
924.7659	0.003930
925.0065	0.002263
925.2471	0.002221
925.4877	0.003107
925.7283	0.003339
925.9689	0.001398
926.2095	0.003170
926.4501	0.003276
926.6908	0.003191
926.9314	0.001229
927.1720	0.002157
927.4127	0.001714
927.6533	0.004056
927.8940	0.003719
928.1347	0.003339
928.3754	0.002685
928.6161	0.002558
928.8568	0.001946
929.0975	0.003423
929.3382	0.002242
929.5789	0.003191
929.8196	0.001461
930.0604	0.002326
930.3011	0.001989
930.5419	0.002601
930.7826	0.000280
931.0234	0.004521
931.2642	0.000955
931.5049	0.003698
931.7457	0.001735
931.9865	0.002537
932.2273	0.002347
932.4681	0.002432
932.7089	0.001588
932.9498	0.002537
933.1906	0.000934
933.4314	0.004183
933.6723	0.002326
933.9131	0.002157
934.1540	0.002727
934.3949	0.003909
934.6358	0.002579
934.8766	0.002221
935.1175	0.002115
935.3584	0.002073
935.5993	0.003170
935.8403	0.001883
936.0812	0.000891
936.3221	0.001651
936.5630	0.001018
936.8040	0.001356
937.0449	0.001588
937.2859	0.000723
937.5269	0.000744
937.7678	0.002347
938.0088	0.002010
938.2498	0.000111
938.4908	0.001968
938.7318	0.001313
938.9728	0.001229
939.2138	0.001778
939.4549	0.002136
939.6959	0.000491
939.9369	0.002516
940.1780	0.001356
940.4190	0.001461
940.6601	0.002516
940.9012	0.001820
941.1422	0.001735
941.3833	0.000596
941.6244	0.002685
941.8655	0.002579
942.1066	0.002242
942.3477	0.002558
942.5889	0.001398
942.8300	0.002073
943.0711	0.002622
943.3123	0.002200
943.5534	0.000744
943.7946	0.002157
944.0357	0.001714
944.2769	0.000723
944.5181	0.002136
944.7593	0.002200
945.0005	0.003170
945.2417	0.000385
945.4829	0.000554
945.7241	0.002326
945.9653	0.001672
946.2066	0.002432
946.4478	0.001714
946.6891	0.000786
946.9303	0.000195
947.1716	0.002347
947.4128	0.000385
947.6541	-0.000121
947.8954	0.000976
948.1367	0.001356
948.3780	0.001208
948.6193	0.002242
948.8606	0.001968
949.1019	0.000913
949.3433	0.000807
949.5846	0.001335
949.8259	0.001461
950.0673	0.000512
950.3086	0.001398
950.5500	0.001440
950.7914	0.000406
951.0327	0.002390
951.2741	0.001081
951.5155	0.001862
951.7569	0.001145
951.9983	0.001883
952.2398	0.003445
952.4812	0.001989
952.7226	0.000765
952.9640	0.001820
953.2055	0.002727
953.4469	0.001799
953.6884	-0.000628
953.9299	0.003107
954.1713	0.000617
954.4128	0.001989
954.6543	0.001524
954.8958	0.001524
955.1373	-0.000037
955.3788	0.002179
955.6203	-0.000375
955.8618	0.001271
956.1034	0.000997
956.3449	0.003487
956.5865	-0.000121
956.8280	0.001440
957.0696	0.000301
957.3111	0.000596
957.5527	0.001250
957.7943	0.000448
958.0359	-0.000142
958.2775	0.001250
958.5191	0.001292
958.7607	0.001567
959.0023	0.001630
959.2439	0.001398
959.4856	0.000111
959.7272	0.001946
959.9688	0.001145
960.2105	0.001672
960.4522	0.001609
960.6938	-0.000016
960.9355	0.000406
961.1772	0.001208
961.4189	0.001567
961.6606	0.000469
961.9023	0.001989
962.1440	0.001145
962.3857	-0.001071
962.6274	0.000364
962.8692	0.001250
963.1109	0.001313
963.3527	0.000807
963.5944	0.000448
963.8362	0.001081
964.0779	0.001841
964.3197	0.000659
964.5615	0.002052
964.8033	0.000913
965.0451	0.000997
965.2869	-0.000607
965.5287	0.001039
965.7705	0.001187
966.0123	0.000195
966.2542	0.001546
966.4960	0.002157
966.7379	0.001440
966.9797	0.002727
967.2216	0.001440
967.4634	0.001630
967.7053	-0.000100
967.9472	0.000533
968.1891	0.000913
968.4310	0.002052
968.6729	0.001440
968.9148	0.000744
969.1567	0.000596
969.3987	0.001714
969.6406	0.002495
969.8825	0.001229
970.1245	0.001461
970.3664	0.001968
970.6084	0.000343
970.8504	0.000237
971.0923	0.001081
971.3343	0.000807
971.5763	0.000870
971.8183	0.000575
972.0603	0.001419
972.3023	0.001672
972.5443	0.000976
972.7864	0.000153
973.0284	0.001081
973.2704	0.000406
973.5125	0.000913
973.7545	0.001524
973.9966	0.001313
974.2387	0.000195
974.4807	-0.000543
974.7228	0.000934
974.9649	0.000005
975.2070	0.000427
975.4491	0.000891
975.6912	-0.000417
975.9333	0.000364
976.1755	0.001313
976.4176	0.000427
976.6597	0.000702
976.9019	-0.000353
977.1440	0.000997
977.3862	-0.000332
977.6283	0.002136
977.8705	0.000765
978.1127	0.001292
978.3549	0.000596
978.5971	0.000533
978.8393	0.001946
979.0815	0.001883
979.3237	0.000617
979.5659	0.001968
979.8082	0.001419
980.0504	0.001356
980.2926	-0.000100
980.5349	0.000765
980.7771	0.000111
981.0194	-0.000902
981.2617	0.001989
981.5040	0.000617
981.7462	-0.000649
981.9885	0.000997
982.2308	0.000533
982.4731	-0.000142
982.7155	0.001925
982.9578	0.000216
983.2001	-0.000607
983.4424	0.001778
983.6848	-0.000164
983.9271	0.000744
984.1695	0.000343
984.4118	0.000491
984.6542	-0.000206
984.8966	0.000680
985.1390	0.001081
985.3814	0.000406
985.6238	0.001313
985.8662	0.001440
986.1086	0.000533
986.3510	0.001651
986.5934	0.000280
986.8358	-0.000016
987.0783	0.000828
987.3207	-0.000860
987.5632	0.000406
987.8056	0.001588
988.0481	0.000448
988.2906	0.001778
988.5331	0.000934
988.7756	0.000111
989.0180	0.000448
989.2605	0.000322
989.5031	-0.000206
989.7456	-0.000058
989.9881	0.000659
990.2306	0.000765
990.4732	-0.000396
990.7157	0.000913
990.9582	-0.000775
991.2008	0.001271
991.4434	-0.000353
991.6859	0.000132
991.9285	0.000976
992.1711	0.000448
992.4137	-0.001155
992.6563	0.002179
992.8989	0.001081
993.1415	0.000723
993.3841	-0.000607
993.6267	-0.000100
993.8694	0.000132
994.1120	0.000069
994.3547	0.001187
994.5973	0.001757
994.8400	0.000153
995.0826	0.002305
995.3253	0.000322
995.5680	0.001503
995.8107	-0.000923
996.0534	0.000617
996.2961	0.001208
996.5388	0.000533
996.7815	0.001039
997.0242	0.000723
997.2670	0.000280
997.5097	0.000047
997.7524	0.001208
997.9952	0.000385
998.2379	0.001313
998.4807	0.000469
998.7235	0.002052
998.9662	-0.000881
999.2090	0.000702
999.4518	-0.000100
999.6946	0.000132
999.9374	0.000723
1000.1802	0.000280
1000.4230	0.000385
1000.6659	0.000976
1000.9087	0.000322
1001.1515	-0.000290
1001.3944	-0.000564
1001.6372	-0.000058
1001.8801	-0.000142
1002.1230	0.000870
1002.3658	0.000849
1002.6087	0.001377
1002.8516	-0.000396
1003.0945	0.001503
1003.3374	-0.000290
1003.5803	0.000448
1003.8232	-0.001050
1004.0661	0.000976
1004.3091	-0.000227
1004.5520	0.000153
1004.7949	-0.000353
1005.0379	0.002094
1005.2808	0.000512
1005.5238	0.001187
1005.7667	0.000301
1006.0097	0.000744
1006.2527	-0.000290
1006.4957	0.000913
1006.7387	-0.000353
1006.9817	0.000069
1007.2247	0.000111
1007.4677	0.000469
1007.7107	0.000427
1007.9538	-0.000227
1008.1968	0.000807
1008.4398	0.001546
1008.6829	0.001208
1008.9259	0.001588
1009.1690	0.000997
1009.4121	0.000491
1009.6551	0.000870
1009.8982	0.000765
1010.1413	-0.000290
1010.3844	0.001799
1010.6275	0.000554
1010.8706	0.000976
1011.1137	0.000575
1011.3568	0.001039
1011.6000	0.000744
1011.8431	0.000533
1012.0863	-0.000375
1012.3294	-0.001008
1012.5726	-0.000797
1012.8157	-0.000311
1013.0589	0.001102
1013.3021	0.000891
1013.5452	0.000575
1013.7884	0.000976
1014.0316	-0.000586
1014.2748	0.001968
1014.5180	0.001356
1014.7613	0.001208
1015.0045	0.001482
1015.2477	0.000153
1015.4909	0.001124
1015.7342	0.001503
1015.9774	-0.000332
1016.2207	0.000026
1016.4640	0.001124
1016.7072	0.000955
1016.9505	0.000322
1017.1938	0.000237
1017.4371	0.000659
1017.6804	0.002136
1017.9237	-0.000670
1018.1670	0.000786
1018.4103	0.000090
1018.6536	0.001271
1018.8969	0.001166
1019.1403	-0.000037
1019.3836	-0.000248
1019.6270	0.001166
1019.8703	0.000364
1020.1137	0.001081
1020.3571	-0.000438
1020.6004	0.000976
1020.8438	0.001102
1021.0872	0.000427
1021.3306	0.000385
1021.5740	-0.000016
1021.8174	-0.000185
1022.0608	-0.000353
1022.3042	0.000005
1022.5477	-0.000712
1022.7911	-0.000206
1023.0345	0.000870
