# Wavelength (nm)	Intensity (a.u.)
197.7802	0.000243
197.9842	-0.000455
198.1882	-0.000560
198.3922	-0.000074
198.5963	0.000899
198.8003	-0.000518
199.0044	0.000053
199.2085	0.001977
199.4126	0.001004
199.6168	-0.000053
199.8209	0.000856
200.0251	-0.000772
200.2292	0.000539
200.4334	0.000328
200.6376	0.001026
200.8418	0.000962
201.0461	0.000983
201.2503	-0.000370
201.4546	0.000899
201.6589	0.000391
201.8631	0.001850
202.0674	0.000793
202.2718	0.000708
202.4761	0.000222
202.6805	0.001216
202.8848	-0.000032
203.0892	0.000560
203.2936	0.000560
203.4980	0.000264
203.7024	-0.000243
203.9069	0.001300
204.1113	0.000264
204.3158	-0.000624
204.5203	0.001533
204.7248	0.000476
204.9293	0.000370
205.1338	0.000539
205.3384	-0.000349
205.5430	0.001300
205.7475	0.001152
205.9521	0.002125
206.1567	0.001681
206.3614	0.000539
206.5660	0.001216
206.7706	0.000920
206.9753	0.000899
207.1800	-0.001808
207.3847	0.001512
207.5894	0.001935
207.7941	0.001258
207.9989	0.000032
208.2036	0.000624
208.4084	0.000687
208.6132	-0.001110
208.8180	0.001068
209.0228	-0.001216
209.2276	0.001089
209.4325	-0.000962
209.6373	-0.000032
209.8422	0.000751
210.0471	0.000687
210.2520	0.000137
210.4569	0.001216
210.6618	0.000180
210.8668	0.000011
211.0718	0.000074
211.2767	0.001343
211.4817	0.001491
211.6867	0.001956
211.8918	-0.000645
212.0968	0.000116
212.3018	0.001871
212.5069	0.000455
212.7120	0.001343
212.9171	0.001512
213.1222	-0.001279
213.3273	0.001723
213.5325	0.002231
213.7376	0.000751
213.9428	0.001702
214.1480	0.000095
214.3532	0.000835
214.5584	0.001427
214.7636	0.001491
214.9689	-0.000645
215.1741	-0.001554
215.3794	-0.000433
215.5847	0.000053
215.7900	0.001004
215.9953	0.000730
216.2007	0.001956
216.4060	-0.001131
216.6114	0.000476
216.8168	0.000011
217.0222	0.000793
217.2276	0.000180
217.4330	0.000349
217.6384	0.001195
217.8439	0.003352
218.0494	0.000159
218.2548	0.002210
218.4603	0.000730
218.6659	0.001871
218.8714	0.001216
219.0769	0.000243
219.2825	-0.000201
219.4881	-0.000624
219.6936	-0.001406
219.8992	0.001808
220.1049	-0.001893
220.3105	-0.000074
220.5161	-0.001089
220.7218	0.001237
220.9275	0.001385
221.1332	0.000687
221.3389	0.000899
221.5446	0.000539
221.7503	0.000433
221.9561	0.001300
222.1618	-0.000497
222.3676	-0.000032
222.5734	0.000243
222.7792	0.000624
222.9850	0.000011
223.1909	-0.000328
223.3967	0.001279
223.6026	0.001618
223.8085	-0.000581
224.0144	0.000856
224.2203	0.002337
224.4262	0.001026
224.6322	0.000095
224.8381	-0.000180
225.0441	-0.001702
225.2501	0.000285
225.4561	0.000581
225.6621	0.000983
225.8681	0.000856
226.0742	-0.000180
226.2802	-0.001195
226.4863	-0.000095
226.6924	0.000476
226.8985	-0.000180
227.1046	-0.002231
227.3107	0.000666
227.5169	-0.000539
227.7230	0.001279
227.9292	0.001935
228.1354	0.001639
228.3416	0.000814
228.5478	0.001596
228.7541	-0.000285
228.9603	0.000476
229.1666	-0.000666
229.3729	-0.000349
229.5791	-0.001554
229.7855	0.000497
229.9918	-0.000497
230.1981	0.000011
230.4045	0.000222
230.6108	-0.000137
230.8172	0.001491
231.0236	0.000476
231.2300	0.000137
231.4364	-0.000497
231.6429	0.000095
231.8493	0.001871
232.0558	-0.000222
232.2623	0.000264
232.4688	0.000899
232.6753	-0.000793
232.8818	0.000645
233.0884	0.002337
233.2949	0.000391
233.5015	0.000835
233.7081	0.001364
233.9147	0.000412
234.1213	0.001533
234.3279	0.000751
234.5346	-0.000285
234.7413	0.001744
234.9479	-0.001893
235.1546	-0.000349
235.3613	0.001406
235.5680	0.000433
235.7748	0.000053
235.9815	0.000730
236.1883	0.001470
236.3951	0.001216
236.6018	0.001808
236.8087	0.001470
237.0155	0.000983
237.2223	0.000412
237.4292	0.001216
237.6360	0.001470
237.8429	-0.000349
238.0498	0.000180
238.2567	-0.000370
238.4636	0.002844
238.6706	-0.000116
238.8775	-0.000116
239.0845	0.002527
239.2915	0.001808
239.4985	-0.000581
239.7055	0.001279
239.9125	0.000687
240.1195	0.001068
240.3266	0.000433
240.5337	-0.000666
240.7407	0.000962
240.9478	0.000856
241.1549	-0.000137
241.3621	0.001427
241.5692	0.001596
241.7764	0.001364
241.9835	0.001808
242.1907	0.000180
242.3979	-0.001174
242.6051	0.002252
242.8124	0.001491
243.0196	0.001491
243.2269	-0.000391
243.4341	0.001364
243.6414	-0.000433
243.8487	0.002041
244.0560	0.000180
244.2634	0.001068
244.4707	-0.000730
244.6781	0.000116
244.8854	0.000603
245.0928	-0.000032
245.3002	0.001491
245.5076	0.000560
245.7151	0.000370
245.9225	0.001047
246.1300	0.000708
246.3375	0.000581
246.5449	0.000159
246.7524	-0.000180
246.9600	0.001258
247.1675	0.001871
247.3750	0.000645
247.5826	0.000899
247.7902	-0.000370
247.9978	0.001935
248.2054	-0.000835
248.4130	0.000159
248.6206	0.001448
248.8283	0.000116
249.0359	0.002146
249.2436	0.000476
249.4513	0.000581
249.6590	0.000666
249.8667	0.001152
250.0745	0.000391
250.2822	-0.000687
250.4900	-0.000835
250.6978	-0.000285
250.9056	0.000751
251.1134	0.000222
251.3212	0.003204
251.5290	-0.000412
251.7369	-0.002146
251.9447	0.000053
252.1526	-0.000878
252.3605	-0.000116
252.5684	0.000137
252.7763	0.000666
252.9843	0.001343
253.1922	0.000920
253.4002	-0.000222
253.6082	0.000159
253.8162	0.000053
254.0242	0.001406
254.2322	0.000899
254.4402	-0.000560
254.6483	0.001279
254.8564	-0.000032
255.0644	0.001195
255.2725	-0.000349
255.4806	0.001491
255.6888	-0.001026
255.8969	0.001448
256.1051	0.001004
256.3132	0.001089
256.5214	0.000878
256.7296	-0.000222
256.9378	-0.000074
257.1460	0.001575
257.3543	-0.000878
257.5625	-0.000032
257.7708	0.000053
257.9791	0.000074
258.1874	0.000814
258.3957	0.000941
258.6040	-0.000159
258.8124	0.000899
259.0207	0.001068
259.2291	-0.000730
259.4375	0.000264
259.6459	0.000730
259.8543	-0.000328
260.0627	0.001110
260.2711	0.000624
260.4796	0.000518
260.6881	0.002062
260.8965	0.000391
261.1050	0.001850
261.3135	0.001004
261.5221	-0.000328
261.7306	0.000666
261.9392	0.000962
262.1477	0.002189
262.3563	0.001660
262.5649	0.000476
262.7735	-0.000328
262.9822	0.000856
263.1908	0.000159
263.3995	0.000878
263.6081	-0.000730
263.8168	0.000032
264.0255	-0.000264
264.2342	-0.000032
264.4429	-0.000412
264.6517	-0.000011
264.8604	0.002315
265.0692	0.000497
265.2780	-0.002337
265.4868	0.000412
265.6956	-0.001364
265.9044	0.002146
266.1133	-0.000370
266.3221	0.002907
266.5310	0.000983
266.7399	0.000814
266.9488	0.001914
267.1577	0.000645
267.3666	0.001026
267.5755	0.002421
267.7845	-0.000581
267.9935	0.001322
268.2024	0.001068
268.4114	0.002569
268.6205	0.000264
268.8295	0.000391
269.0385	-0.000391
269.2476	0.002781
269.4566	0.000560
269.6657	0.000560
269.8748	0.000328
270.0839	0.001977
270.2931	0.000539
270.5022	-0.000137
270.7114	0.000116
270.9205	0.000835
271.1297	-0.001195
271.3389	0.001195
271.5481	-0.000920
271.7573	0.000645
271.9666	0.000243
272.1758	0.000708
272.3851	0.000032
272.5944	0.001258
272.8037	-0.000983
273.0130	0.000560
273.2223	-0.000666
273.4316	-0.000264
273.6410	-0.000159
273.8504	0.001448
274.0597	-0.000920
274.2691	0.000285
274.4785	0.000391
274.6880	0.000835
274.8974	-0.000011
275.1069	0.000159
275.3163	-0.000835
275.5258	0.000518
275.7353	-0.001195
275.9448	-0.000476
276.1543	0.001998
276.3639	-0.000687
276.5734	0.000455
276.7830	0.001660
276.9926	0.000433
277.2022	0.001216
277.4118	0.000011
277.6214	-0.000264
277.8310	0.000095
278.0407	-0.000708
278.2503	0.001216
278.4600	0.001787
278.6697	0.001110
278.8794	0.001744
279.0891	0.000243
279.2989	0.001195
279.5086	0.000011
279.7184	0.001406
279.9281	-0.000243
280.1379	0.003056
280.3477	0.001744
280.5576	-0.000116
280.7674	0.000962
280.9772	0.000856
281.1871	0.000793
281.3970	0.000455
281.6069	0.002950
281.8168	0.001596
282.0267	0.000962
282.2366	-0.000032
282.4466	-0.000011
282.6565	0.000772
282.8665	0.000349
283.0765	0.001174
283.2865	0.001152
283.4965	0.000370
283.7065	0.000476
283.9166	-0.000011
284.1266	-0.000476
284.3367	-0.000137
284.5468	0.001279
284.7569	0.000835
284.9670	-0.000201
285.1771	-0.000285
285.3873	0.001343
285.5974	0.001279
285.8076	0.001554
286.0178	0.000983
286.2280	0.000011
286.4382	0.001681
286.6484	0.000751
286.8587	0.001956
287.0689	-0.000222
287.2792	0.002823
287.4895	0.002886
287.6998	0.000666
287.9101	0.000476
288.1204	0.001533
288.3308	-0.001152
288.5411	-0.000095
288.7515	-0.000349
288.9619	0.000011
289.1723	0.000412
289.3827	-0.000581
289.5931	0.000328
289.8035	0.001956
290.0140	-0.000222
290.2245	0.000455
290.4349	0.001406
290.6454	0.000645
290.8559	-0.000222
291.0665	0.000412
291.2770	0.000222
291.4875	-0.000264
291.6981	-0.000285
291.9087	0.001829
292.1193	-0.000053
292.3299	0.001152
292.5405	0.000349
292.7511	0.000095
292.9618	0.000095
293.1724	0.000772
293.3831	0.002189
293.5938	0.000159
293.8045	-0.000116
294.0152	0.002379
294.2260	0.000666
294.4367	0.001470
294.6475	-0.000920
294.8582	0.000391
295.0690	0.000116
295.2798	0.000391
295.4906	-0.000095
295.7015	-0.001300
295.9123	0.000285
296.1232	-0.000116
296.3340	0.001935
296.5449	0.000645
296.7558	0.000137
296.9667	0.001787
297.1777	-0.000603
297.3886	-0.001998
297.5995	0.002950
297.8105	0.002083
298.0215	-0.000730
298.2325	-0.000941
298.4435	0.000053
298.6545	0.000222
298.8656	-0.000116
299.0766	0.001322
299.2877	-0.000264
299.4988	0.000856
299.7099	0.000539
299.9210	0.001110
300.1321	0.000920
300.3432	0.001596
300.5544	0.000835
300.7655	0.001808
300.9767	0.000603
301.1879	0.000730
301.3991	-0.001026
301.6103	0.001512
301.8215	-0.000137
302.0328	0.001702
302.2441	-0.000328
302.4553	0.001279
302.6666	0.001004
302.8779	-0.001004
303.0892	0.000560
303.3006	0.000856
303.5119	0.000264
303.7233	0.001300
303.9346	0.001660
304.1460	0.001195
304.3574	0.000095
304.5688	0.000814
304.7803	-0.000730
304.9917	0.001110
305.2031	-0.001470
305.4146	0.002041
305.6261	0.000137
305.8376	-0.000730
306.0491	0.001279
306.2606	0.000518
306.4722	-0.000603
306.6837	0.000243
306.8953	0.000137
307.1069	0.000391
307.3184	-0.000899
307.5301	0.001174
307.7417	-0.000201
307.9533	0.000159
308.1650	-0.000391
308.3766	0.000962
308.5883	-0.000095
308.8000	0.002062
309.0117	0.000920
309.2234	0.000011
309.4351	-0.001047
309.6469	0.001174
309.8586	0.000772
310.0704	0.001300
310.2822	0.000814
310.4940	0.001406
310.7058	-0.000370
310.9176	0.000095
311.1295	0.000560
311.3413	0.002485
311.5532	-0.000201
311.7651	0.001660
311.9770	-0.000243
312.1889	0.001470
312.4008	-0.000285
312.6127	-0.000328
312.8247	-0.001618
313.0366	0.000539
313.2486	-0.000730
313.4606	0.000835
313.6726	0.001026
313.8846	0.001343
314.0967	0.000497
314.3087	-0.000603
314.5208	0.000518
314.7328	0.000455
314.9449	0.000983
315.1570	0.000645
315.3692	0.001660
315.5813	0.000032
315.7934	-0.000624
316.0056	-0.000137
316.2177	0.001047
316.4299	0.000772
316.6421	-0.000581
316.8543	0.000391
317.0666	-0.000624
317.2788	0.000201
317.4911	-0.000666
317.7033	0.000180
317.9156	0.000518
318.1279	-0.000159
318.3402	-0.000603
318.5525	-0.001850
318.7649	-0.001110
318.9772	-0.000518
319.1896	0.000539
319.4019	-0.000328
319.6143	0.001110
319.8267	0.001343
320.0392	-0.001300
320.2516	-0.000159
320.4640	0.000878
320.6765	-0.000814
320.8890	-0.001787
321.1014	0.000201
321.3139	-0.001174
321.5265	0.002041
321.7390	0.002125
321.9515	-0.000433
322.1641	0.000285
322.3766	0.000687
322.5892	-0.000603
322.8018	0.000814
323.0144	0.000708
323.2270	0.001216
323.4397	-0.000518
323.6523	-0.001004
323.8650	0.001406
324.0777	-0.000180
324.2904	0.000751
324.5031	0.000814
324.7158	0.000137
324.9285	-0.000349
325.1412	0.001766
325.3540	0.000476
325.5668	-0.001596
325.7796	0.000730
325.9924	-0.000328
326.2052	0.000983
326.4180	-0.000856
326.6308	0.001322
326.8437	-0.000180
327.0566	0.000137
327.2694	0.001300
327.4823	0.001427
327.6952	0.000518
327.9082	0.002146
328.1211	-0.000645
328.3340	-0.000032
328.5470	0.000095
328.7600	-0.000793
328.9730	-0.000751
329.1860	0.000856
329.3990	-0.000328
329.6120	0.000708
329.8251	-0.000307
330.0381	0.000011
330.2512	0.000328
330.4643	0.001829
330.6774	0.000581
330.8905	0.001406
331.1036	-0.000074
331.3167	0.000412
331.5299	-0.000285
331.7431	0.000285
331.9562	-0.000159
332.1694	-0.000455
332.3826	0.000095
332.5959	-0.000032
332.8091	0.000412
333.0223	0.000539
333.2356	0.000730
333.4489	0.000581
333.6622	0.000581
333.8755	0.001533
334.0888	-0.001322
334.3021	0.000856
334.5154	0.002527
334.7288	0.002527
334.9422	0.001787
335.1555	0.000222
335.3689	0.000539
335.5823	0.002062
335.7958	0.000814
336.0092	0.002252
336.2227	0.000222
336.4361	-0.000856
336.6496	0.000687
336.8631	0.001343
337.0766	0.000476
337.2901	-0.000137
337.5036	0.001279
337.7172	-0.000328
337.9307	-0.000497
338.1443	0.000391
338.3579	-0.000941
338.5715	0.000433
338.7851	-0.000497
338.9987	0.000624
339.2124	-0.000603
339.4260	0.001596
339.6397	-0.000222
339.8533	0.001047
340.0670	0.002062
340.2807	0.000560
340.4945	0.000835
340.7082	-0.000074
340.9219	-0.001174
341.1357	-0.000180
341.3495	-0.000772
341.5633	0.000497
341.7771	-0.000095
341.9909	0.001427
342.2047	0.000137
342.4185	0.001237
342.6324	-0.000201
342.8463	-0.000962
343.0601	0.001787
343.2740	0.001174
343.4879	0.002231
343.7019	0.001174
343.9158	-0.000222
344.1297	0.000751
344.3437	-0.000032
344.5577	0.000983
344.7717	0.000708
344.9857	0.001322
345.1997	0.001110
345.4137	0.002019
345.6277	0.000941
345.8418	-0.000539
346.0559	0.001575
346.2699	0.000222
346.4840	0.000962
346.6981	-0.000391
346.9123	0.001131
347.1264	0.000687
347.3406	0.000285
347.5547	0.002019
347.7689	0.000137
347.9831	0.000159
348.1973	0.001554
348.4115	0.001512
348.6257	-0.000455
348.8400	0.000560
349.0542	0.000137
349.2685	0.000053
349.4828	0.000751
349.6971	0.000391
349.9114	-0.000920
350.1257	0.002146
350.3400	0.001681
350.5544	0.000391
350.7687	0.002506
350.9831	-0.000730
351.1975	0.001808
351.4119	-0.000222
351.6263	0.000835
351.8407	0.000560
352.0552	0.000370
352.2696	0.000243
352.4841	0.001512
352.6986	0.000603
352.9131	0.002611
353.1276	0.000983
353.3421	0.000328
353.5566	0.000687
353.7712	0.000201
353.9858	0.001596
354.2003	0.001174
354.4149	-0.000518
354.6295	0.000264
354.8441	0.001279
355.0588	0.002062
355.2734	0.000624
355.4881	0.000603
355.7027	0.001258
355.9174	0.000687
356.1321	-0.001702
356.3468	-0.000053
356.5615	0.001364
356.7763	-0.000328
356.9910	0.000011
357.2058	0.000687
357.4206	-0.000497
357.6353	-0.000856
357.8501	0.000433
358.0650	0.000391
358.2798	0.000349
358.4946	0.000666
358.7095	0.001491
358.9243	0.000645
359.1392	0.000835
359.3541	-0.001385
359.5690	0.001047
359.7839	0.000730
359.9989	0.000983
360.2138	0.000708
360.4288	-0.000708
360.6438	0.001723
360.8587	0.000751
361.0737	0.000518
361.2888	-0.001977
361.5038	0.000814
361.7188	0.001533
361.9339	0.000285
362.1489	0.001174
362.3640	0.000307
362.5791	0.001744
362.7942	0.000856
363.0093	0.002675
363.2245	0.000370
363.4396	0.001279
363.6548	-0.000433
363.8699	0.001322
364.0851	0.002189
364.3003	0.002527
364.5155	0.000391
364.7308	0.001216
364.9460	0.000137
365.1612	0.000116
365.3765	0.001047
365.5918	-0.000687
365.8071	-0.001068
366.0224	0.001131
366.2377	0.000708
366.4530	-0.000011
366.6684	-0.000687
366.8837	0.000032
367.0991	0.001448
367.3145	0.000328
367.5299	-0.000285
367.7453	-0.000497
367.9607	-0.000497
368.1761	0.001596
368.3916	-0.000941
368.6070	0.001174
368.8225	-0.001152
369.0380	-0.001406
369.2535	0.001322
369.4690	0.000878
369.6845	-0.000476
369.9001	0.002611
370.1156	0.000983
370.3312	0.001026
370.5468	-0.000328
370.7624	-0.000370
370.9780	0.000433
371.1936	0.000899
371.4092	0.001279
371.6249	0.002823
371.8405	0.001596
372.0562	0.000011
372.2719	-0.000666
372.4876	0.000920
372.7033	-0.001131
372.9190	0.000159
373.1348	0.000328
373.3505	-0.000793
373.5663	0.000793
373.7820	0.001787
373.9978	-0.000455
374.2136	-0.000053
374.4294	-0.000793
374.6453	-0.000074
374.8611	0.000222
375.0770	-0.000349
375.2928	0.000708
375.5087	-0.000264
375.7246	-0.000328
375.9405	-0.000878
376.1564	0.001850
376.3724	0.002929
376.5883	0.001026
376.8043	-0.000370
377.0203	0.000772
377.2362	0.002104
377.4522	0.000603
377.6682	-0.000433
377.8843	0.001322
378.1003	0.001322
378.3164	0.000285
378.5324	0.000391
378.7485	0.002442
378.9646	0.001850
379.1807	-0.000878
379.3968	0.001512
379.6129	0.000983
379.8291	0.000349
380.0452	-0.001364
380.2614	-0.000983
380.4776	-0.000814
380.6938	0.000835
380.9100	0.001512
381.1262	-0.000285
381.3424	0.001047
381.5587	0.000687
381.7749	0.000455
381.9912	0.001279
382.2075	0.000053
382.4238	0.000899
382.6401	0.000560
382.8564	-0.000180
383.0728	0.000180
383.2891	-0.000708
383.5055	0.001089
383.7219	0.000518
383.9382	-0.000666
384.1546	0.001723
384.3711	-0.000159
384.5875	0.000307
384.8039	-0.000264
385.0204	-0.001110
385.2368	0.001004
385.4533	0.001406
385.6698	0.002738
385.8863	-0.000624
386.1028	-0.000180
386.3194	0.000581
386.5359	-0.000137
386.7525	-0.000433
386.9690	0.000116
387.1856	-0.000624
387.4022	-0.000243
387.6188	0.000687
387.8355	-0.000962
388.0521	0.000560
388.2687	-0.000180
388.4854	0.000285
388.7021	0.000581
388.9188	0.000370
389.1355	0.000624
389.3522	0.000159
389.5689	0.001406
389.7856	-0.000433
390.0024	-0.000116
390.2192	0.000645
390.4359	-0.001174
390.6527	-0.000307
390.8695	0.000814
391.0863	0.000222
391.3032	0.001174
391.5200	-0.000137
391.7369	0.000835
391.9537	-0.000328
392.1706	-0.000328
392.3875	-0.000349
392.6044	0.000581
392.8213	0.002146
393.0383	-0.000645
393.2552	-0.000370
393.4722	0.001639
393.6891	-0.000645
393.9061	0.000137
394.1231	0.000560
394.3401	-0.001322
394.5572	-0.001152
394.7742	0.002167
394.9912	0.001174
395.2083	-0.000687
395.4254	0.000793
395.6425	0.001385
395.8596	0.000878
396.0767	-0.000518
396.2938	-0.000180
396.5109	-0.000349
396.7281	0.000201
396.9453	-0.000285
397.1624	0.002294
397.3796	-0.001744
397.5968	0.001195
397.8140	-0.001300
398.0313	-0.000497
398.2485	-0.000624
398.4658	0.001660
398.6830	-0.000581
398.9003	-0.000391
399.1176	0.000476
399.3349	0.000878
399.5522	0.000581
399.7696	0.000581
399.9869	0.000285
400.2043	0.000899
400.4216	-0.000687
400.6390	0.000285
400.8564	-0.000137
401.0738	-0.000455
401.2912	0.000497
401.5087	0.001026
401.7261	0.000476
401.9436	0.001152
402.1610	-0.000856
402.3785	0.000222
402.5960	0.001068
402.8135	-0.000074
403.0310	-0.000772
403.2486	-0.000772
403.4661	0.000159
403.6837	-0.000370
403.9013	0.001343
404.1189	0.000983
404.3365	-0.000116
404.5541	0.001787
404.7717	-0.000455
404.9893	0.001322
405.2070	0.000433
405.4246	0.000243
405.6423	0.000349
405.8600	0.001364
406.0777	-0.000666
406.2954	0.000243
406.5131	0.001470
406.7309	0.000243
406.9486	0.000264
407.1664	-0.000476
407.3842	0.000222
407.6020	0.000201
407.8198	0.000497
408.0376	0.001026
408.2554	0.001512
408.4733	-0.000391
408.6911	0.000116
408.9090	0.000349
409.1269	0.001258
409.3448	-0.000011
409.5627	0.000307
409.7806	-0.000243
409.9985	-0.000370
410.2165	0.000370
410.4344	0.000391
410.6524	-0.000180
410.8704	0.001004
411.0884	0.000983
411.3064	0.001808
411.5244	-0.000074
411.7424	0.000899
411.9605	-0.000581
412.1785	0.000011
412.3966	0.001935
412.6147	0.001470
412.8328	0.001660
413.0509	0.000962
413.2690	-0.000011
413.4871	0.000708
413.7053	-0.001470
413.9234	0.001660
414.1416	-0.000433
414.3598	0.000581
414.5780	-0.000243
414.7962	0.000687
415.0144	0.000793
415.2326	0.001491
415.4509	-0.000983
415.6692	-0.000349
415.8874	0.000835
416.1057	-0.000011
416.3240	-0.001322
416.5423	0.000476
416.7606	0.001279
416.9790	0.000307
417.1973	0.000053
417.4157	-0.000391
417.6341	0.001512
417.8524	0.000433
418.0708	-0.000476
418.2893	0.001068
418.5077	0.000370
418.7261	0.001744
418.9446	0.000264
419.1630	-0.000899
419.3815	0.000772
419.6000	-0.000159
419.8185	-0.001152
420.0370	0.001385
420.2555	0.001152
420.4741	0.001470
420.6926	-0.000983
420.9112	0.000645
421.1298	-0.000412
421.3483	0.000835
421.5669	-0.000349
421.7856	0.000476
422.0042	-0.000624
422.2228	0.000856
422.4415	0.000243
422.6601	-0.000581
422.8788	-0.000116
423.0975	0.000285
423.3162	0.000222
423.5349	-0.000159
423.7536	-0.000159
423.9724	-0.001406
424.1911	0.000285
424.4099	0.002590
424.6287	0.000243
424.8475	0.001174
425.0663	-0.000878
425.2851	-0.000624
425.5039	0.008574
425.7228	0.001744
425.9416	-0.000222
426.1605	-0.000391
426.3793	-0.000116
426.5982	0.001893
426.8171	0.000180
427.0361	0.000793
427.2550	-0.001026
427.4739	0.001068
427.6929	0.000983
427.9118	0.000708
428.1308	0.001300
428.3498	-0.001279
428.5688	-0.000730
428.7878	0.000455
429.0068	0.000687
429.2259	0.001766
429.4449	-0.000201
429.6640	0.000391
429.8831	-0.000941
430.1022	0.000560
430.3213	0.001089
430.5404	0.000878
430.7595	0.000391
430.9787	0.000560
431.1978	0.001047
431.4170	0.001470
431.6362	0.000581
431.8553	-0.000391
432.0745	0.000560
432.2938	0.000370
432.5130	0.000539
432.7322	0.000328
432.9515	0.000645
433.1707	0.000370
433.3900	0.000476
433.6093	-0.000053
433.8286	-0.000349
434.0479	0.001491
434.2673	0.002146
434.4866	0.000159
434.7059	-0.000391
434.9253	-0.000011
435.1447	-0.000412
435.3641	0.001026
435.5835	0.000687
435.8029	0.001089
436.0223	-0.000751
436.2418	0.000835
436.4612	-0.002442
436.6807	0.001766
436.9001	0.000201
437.1196	0.000137
437.3391	0.001131
437.5586	0.000730
437.7782	-0.000222
437.9977	0.000878
438.2173	0.000962
438.4368	0.000476
438.6564	0.000983
438.8760	0.000603
439.0956	0.001174
439.3152	0.001977
439.5348	-0.000180
439.7545	0.000518
439.9741	0.001216
440.1938	0.001237
440.4135	0.000687
440.6331	0.001512
440.8528	-0.000074
441.0725	-0.000497
441.2923	0.000053
441.5120	0.001787
441.7318	0.000370
441.9515	-0.000032
442.1713	-0.000032
442.3911	0.000222
442.6109	-0.000137
442.8307	0.000708
443.0505	-0.000878
443.2703	0.002611
443.4902	-0.000455
443.7101	0.000116
443.9299	-0.000539
444.1498	0.000053
444.3697	-0.000053
444.5896	0.001110
444.8095	0.000772
445.0295	0.001491
445.2494	-0.001131
445.4694	0.000539
445.6894	0.001047
445.9093	0.000814
446.1293	0.002675
446.3493	0.004726
446.5694	-0.000264
446.7894	-0.000476
447.0094	-0.000497
447.2295	0.001322
447.4496	-0.000074
447.6696	0.000243
447.8897	0.000518
448.1098	-0.000328
448.3300	0.000433
448.5501	0.001893
448.7702	0.000730
448.9904	-0.001174
449.2106	-0.000941
449.4307	-0.000370
449.6509	0.000814
449.8711	-0.000011
450.0914	-0.001279
450.3116	0.000476
450.5318	0.000433
450.7521	-0.000962
450.9724	0.000053
451.1926	-0.000074
451.4129	-0.001702
451.6332	0.001681
451.8535	-0.000159
452.0739	0.001343
452.2942	0.000349
452.5146	-0.000349
452.7349	-0.001639
452.9553	0.000433
453.1757	-0.000307
453.3961	0.000180
453.6165	0.000941
453.8369	0.001871
454.0574	0.001596
454.2778	-0.000222
454.4983	-0.000137
454.7188	-0.000391
454.9393	-0.001026
455.1597	0.000370
455.3803	0.000053
455.6008	0.000856
455.8213	-0.001448
456.0419	-0.000370
456.2624	0.000730
456.4830	0.003500
456.7036	0.000497
456.9242	0.000264
457.1448	-0.000032
457.3654	0.002019
457.5860	-0.000687
457.8067	0.000941
458.0274	-0.001385
458.2480	-0.001004
458.4687	0.000053
458.6894	0.000370
458.9101	0.000645
459.1308	0.001702
459.3516	-0.001216
459.5723	-0.000053
459.7931	0.000370
460.0138	0.000032
460.2346	0.000899
460.4554	0.000391
460.6762	0.000391
460.8970	0.000941
461.1178	0.000159
461.3387	0.000412
461.5595	0.000391
461.7804	0.000455
462.0013	0.001004
462.2222	0.000518
462.4431	0.000264
462.6640	-0.000011
462.8849	0.002590
463.1059	0.000666
463.3268	0.000772
463.5478	-0.001470
463.7687	0.001491
463.9897	0.001512
464.2107	0.000116
464.4317	0.000264
464.6528	0.000835
464.8738	0.000899
465.0948	0.001343
465.3159	0.000095
465.5370	0.000751
465.7581	0.000011
465.9792	0.000581
466.2003	-0.000455
466.4214	0.000751
466.6425	0.000476
466.8637	-0.000243
467.0848	0.000983
467.3060	0.001152
467.5272	-0.001004
467.7484	-0.000497
467.9696	-0.000243
468.1908	-0.000116
468.4120	0.001068
468.6333	0.000899
468.8545	-0.000624
469.0758	-0.000433
469.2970	0.000307
469.5183	0.000180
469.7396	-0.000941
469.9610	-0.000941
470.1823	-0.001427
470.4036	0.000476
470.6250	0.000243
470.8463	0.000835
471.0677	-0.000962
471.2891	0.000222
471.5105	0.001174
471.7319	0.000032
471.9533	-0.000476
472.1748	0.000433
472.3962	0.001174
472.6177	-0.000518
472.8391	-0.000624
473.0606	0.002062
473.2821	-0.000645
473.5036	0.000328
473.7251	0.000264
473.9467	0.000793
474.1682	-0.000497
474.3898	0.001512
474.6113	0.000920
474.8329	0.000222
475.0545	0.000751
475.2761	-0.000032
475.4977	0.000560
475.7193	0.000264
475.9410	-0.001681
476.1626	0.000899
476.3843	0.001216
476.6060	-0.000645
476.8277	-0.000878
477.0494	-0.000032
477.2711	0.008046
477.4928	-0.001026
477.7145	0.000730
477.9363	-0.001237
478.1580	-0.000476
478.3798	0.001026
478.6016	-0.001300
478.8234	0.001766
479.0452	0.000412
479.2670	-0.001618
479.4888	0.000222
479.7107	0.001195
479.9325	0.000687
480.1544	0.000222
480.3763	-0.000285
480.5982	-0.000180
480.8201	0.002548
481.0420	0.000856
481.2639	-0.000581
481.4859	0.001744
481.7078	-0.000032
481.9298	-0.000137
482.1517	0.000116
482.3737	0.000856
482.5957	0.000835
482.8177	0.000793
483.0398	-0.000328
483.2618	-0.000074
483.4838	-0.000772
483.7059	0.001110
483.9280	0.000941
484.1501	0.000011
484.3721	-0.000941
484.5943	0.000053
484.8164	-0.000011
485.0385	0.000497
485.2606	0.001533
485.4828	0.003267
485.7050	0.000032
485.9271	-0.000011
486.1493	0.000455
486.3715	0.000560
486.5937	-0.000518
486.8160	0.000476
487.0382	0.000391
487.2605	0.000687
487.4827	0.000032
487.7050	0.001766
487.9273	-0.000180
488.1496	-0.000011
488.3719	-0.001364
488.5942	-0.000497
488.8165	-0.000116
489.0389	-0.000243
489.2612	-0.000201
489.4836	0.000264
489.7060	-0.000159
489.9284	-0.000011
490.1508	-0.000180
490.3732	0.000307
490.5956	0.001089
490.8180	-0.000159
491.0405	-0.000180
491.2630	-0.000962
491.4854	0.000433
491.7079	-0.000751
491.9304	-0.001639
492.1529	0.000539
492.3755	0.000772
492.5980	0.002717
492.8205	0.000666
493.0431	0.001343
493.2657	-0.001004
493.4882	-0.000032
493.7108	0.000116
493.9334	-0.000962
494.1561	0.000095
494.3787	0.001089
494.6013	0.000349
494.8240	0.001089
495.0466	-0.000222
495.2693	-0.000116
495.4920	0.000264
495.7147	0.001279
495.9374	-0.000941
496.1601	0.000137
496.3829	-0.000053
496.6056	0.001300
496.8284	0.000349
497.0511	-0.000518
497.2739	0.001026
497.4967	-0.000962
497.7195	0.000243
497.9423	0.001279
498.1652	0.000243
498.3880	0.001914
498.6109	0.000476
498.8337	0.000560
499.0566	0.001279
499.2795	0.000730
499.5024	0.001195
499.7253	0.000349
499.9482	0.000941
500.1712	0.002696
500.3941	-0.001364
500.6171	0.001406
500.8400	0.000560
501.0630	-0.000074
501.2860	0.000053
501.5090	0.000497
501.7320	0.000328
501.9551	0.000899
502.1781	0.000032
502.4012	0.001026
502.6242	0.001491
502.8473	-0.000878
503.0704	-0.000349
503.2935	0.001448
503.5166	-0.000772
503.7397	0.000539
503.9628	-0.001110
504.1860	0.001047
504.4092	-0.000433
504.6323	0.001723
504.8555	0.001448
505.0787	0.000835
505.3019	0.000518
505.5251	0.000560
505.7483	0.001977
505.9716	-0.000159
506.1948	-0.000116
506.4181	-0.000328
506.6414	0.002189
506.8647	0.000603
507.0880	0.003563
507.3113	0.000497
507.5346	-0.001258
507.7579	0.001110
507.9813	-0.000920
508.2046	0.000624
508.4280	0.000243
508.6514	-0.000835
508.8748	-0.001723
509.0982	0.001893
509.3216	0.000307
509.5450	0.000624
509.7685	-0.001322
509.9919	0.002337
510.2154	0.000243
510.4388	0.000222
510.6623	-0.000603
510.8858	0.002379
511.1093	0.001470
511.3329	0.001047
511.5564	-0.000222
511.7799	-0.001152
512.0035	0.000603
512.2270	0.000137
512.4506	-0.000518
512.6742	-0.000751
512.8978	-0.001068
513.1214	0.000180
513.3451	-0.000159
513.5687	0.000983
513.7923	0.001110
514.0160	0.001575
514.2397	0.000518
514.4634	0.000497
514.6871	-0.000476
514.9108	0.000412
515.1345	-0.001152
515.3582	0.002337
515.5819	0.001470
515.8057	0.000116
516.0295	0.000011
516.2532	0.000307
516.4770	-0.001787
516.7008	0.001026
516.9246	-0.001258
517.1485	0.000603
517.3723	0.001914
517.5961	0.001406
517.8200	0.000476
518.0439	0.001871
518.2677	-0.001026
518.4916	-0.000370
518.7155	0.000899
518.9395	0.002485
519.1634	-0.000518
519.3873	0.000751
519.6113	0.001047
519.8352	0.000983
520.0592	-0.000730
520.2832	0.000433
520.5072	0.001829
520.7312	-0.000011
520.9552	0.000180
521.1792	0.000983
521.4033	0.000687
521.6273	0.000814
521.8514	0.000391
522.0755	0.001258
522.2996	0.001026
522.5237	-0.000116
522.7478	0.000983
522.9719	-0.001089
523.1960	0.000560
523.4202	-0.001343
523.6443	-0.000243
523.8685	0.001512
524.0927	0.000708
524.3169	-0.001977
524.5411	-0.001110
524.7653	-0.000455
524.9895	0.000518
525.2138	0.001322
525.4380	0.001068
525.6623	-0.001258
525.8865	0.001152
526.1108	0.000011
526.3351	0.000328
526.5594	0.002104
526.7837	-0.000412
527.0081	0.002125
527.2324	0.000983
527.4568	0.000920
527.6811	-0.000391
527.9055	0.001258
528.1299	0.000159
528.3543	0.000560
528.5787	0.000560
528.8031	-0.001787
529.0276	0.001618
529.2520	-0.000645
529.4765	-0.000011
529.7009	0.000074
529.9254	0.001406
530.1499	0.001258
530.3744	-0.000180
530.5989	0.001152
530.8234	0.000687
531.0480	0.000518
531.2725	0.002506
531.4971	0.000264
531.7217	0.000391
531.9462	-0.001047
532.1708	0.000624
532.3954	-0.000011
532.6200	0.000074
532.8447	0.000793
533.0693	0.000603
533.2940	-0.000666
533.5186	-0.000370
533.7433	0.000328
533.9680	0.000856
534.1927	0.001195
534.4174	0.000222
534.6421	-0.001470
534.8668	-0.000497
535.0916	0.000814
535.3163	0.000391
535.5411	0.000285
535.7659	-0.000095
535.9907	-0.000201
536.2155	-0.000370
536.4403	-0.001110
536.6651	0.001575
536.8899	-0.000518
537.1148	0.001914
537.3396	0.000074
537.5645	0.001237
537.7894	-0.000349
538.0143	-0.000666
538.2392	0.000391
538.4641	0.000624
538.6890	0.000603
538.9139	0.001533
539.1389	-0.000708
539.3638	-0.000053
539.5888	0.000412
539.8138	0.001935
540.0388	0.001131
540.2638	-0.001300
540.4888	-0.001089
540.7138	0.001300
540.9389	-0.001279
541.1639	0.000497
541.3890	-0.000159
541.6140	0.000370
541.8391	0.001702
542.0642	0.000539
542.2893	0.001089
542.5144	0.000011
542.7396	0.001174
542.9647	0.002294
543.1899	0.001448
543.4150	-0.000412
543.6402	0.000391
543.8654	0.000751
544.0906	-0.000730
544.3158	0.000941
544.5410	-0.001300
544.7662	-0.000539
544.9915	0.000201
545.2167	0.002125
545.4420	0.000328
545.6673	0.001322
545.8926	0.001300
546.1179	0.000433
546.3432	-0.000730
546.5685	0.002167
546.7938	0.000793
547.0192	-0.000032
547.2445	-0.000856
547.4699	-0.000032
547.6953	0.001047
547.9206	0.000476
548.1460	-0.000497
548.3715	0.000011
548.5969	0.000687
548.8223	0.000708
549.0478	-0.001618
549.2732	-0.000222
549.4987	0.001766
549.7242	-0.000687
549.9496	-0.000687
550.1751	0.000899
550.4007	-0.000497
550.6262	0.001364
550.8517	0.000180
551.0773	0.000687
551.3028	0.000011
551.5284	0.003373
551.7540	-0.001554
551.9796	-0.000687
552.2052	0.000243
552.4308	-0.000666
552.6564	0.000159
552.8820	0.001575
553.1077	-0.001575
553.3333	0.000856
553.5590	0.000518
553.7847	-0.000032
554.0104	0.000814
554.2361	-0.000687
554.4618	-0.000920
554.6875	0.000518
554.9132	-0.000264
555.1390	-0.000962
555.3648	-0.001871
555.5905	0.001322
555.8163	0.001829
556.0421	0.000730
556.2679	-0.002379
556.4937	0.000687
556.7195	0.000095
556.9454	0.002421
557.1712	-0.003500
557.3971	0.000983
557.6230	0.001470
557.8488	0.001808
558.0747	0.000772
558.3006	-0.001131
558.5266	0.000772
558.7525	0.001491
558.9784	-0.000962
559.2044	0.001258
559.4303	-0.000349
559.6563	0.000412
559.8823	-0.000011
560.1083	0.002717
560.3343	-0.000751
560.5603	0.001237
560.7863	0.001110
561.0124	0.000433
561.2384	-0.000370
561.4645	-0.000687
561.6905	0.000011
561.9166	0.000328
562.1427	-0.000349
562.3688	0.000539
562.5949	0.000751
562.8211	-0.000243
563.0472	0.000159
563.2733	0.000095
563.4995	0.000116
563.7257	-0.000116
563.9519	0.000222
564.1781	0.001639
564.4043	0.000180
564.6305	0.000645
564.8567	-0.000349
565.0829	0.000814
565.3092	0.000581
565.5355	0.000476
565.7617	0.000095
565.9880	0.000201
566.2143	0.002717
566.4406	0.001174
566.6669	-0.000878
566.8932	0.001787
567.1196	-0.000095
567.3459	-0.000011
567.5723	-0.001470
567.7987	0.001554
568.0250	0.000856
568.2514	0.000560
568.4778	-0.001131
568.7043	0.000603
568.9307	0.000328
569.1571	0.002083
569.3836	0.001089
569.6100	0.001237
569.8365	0.001110
570.0630	0.001681
570.2895	-0.001047
570.5160	-0.000201
570.7425	-0.001935
570.9690	0.000370
571.1956	0.001068
571.4221	0.001914
571.6487	-0.000137
571.8752	-0.000391
572.1018	0.000455
572.3284	0.000307
572.5550	0.000328
572.7816	0.001829
573.0082	-0.000095
573.2349	0.000095
573.4615	-0.000560
573.6882	0.001131
573.9149	-0.000941
574.1415	0.001110
574.3682	0.000285
574.5949	0.001448
574.8216	-0.000708
575.0484	0.000222
575.2751	0.001152
575.5018	0.000539
575.7286	0.000328
575.9554	0.000666
576.1821	0.000708
576.4089	0.000899
576.6357	0.000074
576.8626	-0.001300
577.0894	-0.000433
577.3162	-0.000180
577.5431	-0.000772
577.7699	0.001406
577.9968	0.000201
578.2237	-0.000116
578.4505	0.002294
578.6774	-0.000222
578.9044	0.000772
579.1313	-0.000116
579.3582	0.000433
579.5851	0.001089
579.8121	0.000518
580.0391	0.000074
580.2660	-0.000285
580.4930	0.000645
580.7200	0.001195
580.9470	0.000497
581.1741	0.002781
581.4011	-0.001364
581.6281	-0.000539
581.8552	0.000772
582.0822	-0.000455
582.3093	-0.000772
582.5364	-0.000307
582.7635	-0.000730
582.9906	0.000243
583.2177	0.001385
583.4449	0.000095
583.6720	-0.001322
583.8991	0.000581
584.1263	0.000793
584.3535	0.000560
584.5807	0.000264
584.8079	0.001343
585.0351	-0.000856
585.2623	0.000285
585.4895	-0.000095
585.7167	0.001026
585.9440	-0.001575
586.1713	0.001047
586.3985	-0.000116
586.6258	0.000074
586.8531	-0.000074
587.0804	-0.001258
587.3077	0.000581
587.5350	-0.000307
587.7624	0.000180
587.9897	-0.000899
588.2171	0.000159
588.4445	0.000772
588.6718	-0.000666
588.8992	0.000645
589.1266	0.000328
589.3540	-0.002019
589.5815	0.000983
589.8089	0.000476
590.0363	0.001195
590.2638	0.001596
590.4913	0.001554
590.7187	0.000645
590.9462	0.000328
591.1737	0.001068
591.4012	-0.000264
591.6288	0.000518
591.8563	0.000074
592.0838	0.000222
592.3114	-0.000793
592.5389	0.000560
592.7665	-0.001639
592.9941	-0.001004
593.2217	-0.000264
593.4493	0.000899
593.6769	-0.000835
593.9046	0.002315
594.1322	-0.000264
594.3598	0.000285
594.5875	-0.000687
594.8152	0.000645
595.0429	0.001026
595.2705	0.001808
595.4983	-0.000581
595.7260	0.001216
595.9537	0.000687
596.1814	0.002041
596.4092	-0.001723
596.6369	-0.000095
596.8647	0.000751
597.0925	0.000835
597.3203	-0.001068
597.5481	-0.001004
597.7759	0.000983
598.0037	0.000708
598.2315	0.000349
598.4594	-0.000497
598.6872	-0.001110
598.9151	-0.000137
599.1430	0.000814
599.3709	-0.000032
599.5988	-0.000856
599.8267	-0.000814
600.0546	0.000518
600.2825	-0.000011
600.5105	0.001216
600.7384	-0.001533
600.9664	0.000074
601.1944	0.001131
601.4223	0.001026
601.6503	-0.000201
601.8783	0.000032
602.1064	0.000159
602.3344	0.000878
602.5624	-0.000687
602.7905	0.000730
603.0185	0.001068
603.2466	-0.000624
603.4747	0.000201
603.7028	0.000053
603.9309	0.000878
604.1590	0.000074
604.3871	0.000307
604.6152	-0.001744
604.8434	-0.000053
605.0715	-0.000201
605.2997	0.000772
605.5279	0.000751
605.7561	-0.000539
605.9843	-0.000730
606.2125	0.000137
606.4407	0.001871
606.6689	0.000730
606.8972	0.000962
607.1254	0.001448
607.3537	0.000983
607.5819	0.001300
607.8102	-0.000624
608.0385	-0.000666
608.2668	0.000328
608.4951	0.001385
608.7235	0.000814
608.9518	0.000201
609.1801	-0.001702
609.4085	-0.000095
609.6369	0.000307
609.8653	0.000920
610.0936	0.001258
610.3220	0.001047
610.5505	0.000856
610.7789	0.001744
611.0073	-0.001322
611.2357	0.000560
611.4642	0.000793
611.6927	-0.000328
611.9211	0.001470
612.1496	0.000899
612.3781	0.000328
612.6066	0.000433
612.8351	0.000666
613.0637	0.002823
613.2922	0.000412
613.5208	0.001195
613.7493	-0.000793
613.9779	0.000983
614.2065	0.001004
614.4351	0.000666
614.6637	0.000328
614.8923	0.001998
615.1209	-0.000581
615.3495	0.001152
615.5782	-0.000878
615.8068	0.000518
616.0355	-0.000730
616.2642	-0.001216
616.4929	0.000708
616.7216	-0.000116
616.9503	0.000116
617.1790	0.001026
617.4077	-0.000285
617.6365	0.000433
617.8652	0.000053
618.0940	0.001322
618.3227	0.003626
618.5515	0.000116
618.7803	-0.000581
619.0091	0.001047
619.2379	0.000730
619.4667	-0.001237
619.6956	-0.001385
619.9244	0.000222
620.1533	0.001618
620.3821	0.000581
620.6110	-0.000032
620.8399	0.002421
621.0688	-0.000539
621.2977	0.000899
621.5266	-0.000645
621.7556	0.003034
621.9845	0.001491
622.2135	0.003140
622.4424	0.001089
622.6714	0.000666
622.9004	0.000391
623.1294	0.002527
623.3584	0.000433
623.5874	-0.001131
623.8164	0.001618
624.0454	0.000666
624.2745	-0.000878
624.5035	0.000687
624.7326	0.001216
624.9617	-0.000370
625.1908	-0.000835
625.4199	-0.000455
625.6490	-0.000032
625.8781	0.000391
626.1072	-0.000159
626.3364	-0.000497
626.5655	0.000476
626.7947	-0.000180
627.0238	0.000053
627.2530	0.000349
627.4822	0.000518
627.7114	0.000708
627.9406	0.000137
628.1698	-0.000285
628.3991	0.001554
628.6283	-0.000116
628.8576	0.000222
629.0868	0.002210
629.3161	0.000772
629.5454	-0.000518
629.7747	0.000307
630.0040	0.000539
630.2333	0.001808
630.4626	-0.000180
630.6920	-0.001470
630.9213	0.000941
631.1507	0.000983
631.3801	0.001385
631.6094	0.000349
631.8388	0.001871
632.0682	-0.000518
632.2976	0.001808
632.5271	0.000222
632.7565	0.001131
632.9859	0.000074
633.2154	-0.000581
633.4448	-0.000095
633.6743	0.001829
633.9038	-0.000074
634.1333	0.000835
634.3628	-0.000285
634.5923	0.002358
634.8218	-0.001364
635.0514	-0.000645
635.2809	0.000772
635.5105	0.001723
635.7400	0.000518
635.9696	0.000180
636.1992	0.002252
636.4288	-0.000285
636.6584	0.000962
636.8880	-0.000011
637.1177	0.000180
637.3473	0.000285
637.5770	-0.000539
637.8066	-0.001618
638.0363	0.000011
638.2660	0.000307
638.4957	0.000581
638.7254	0.001258
638.9551	0.001575
639.1848	0.000095
639.4145	0.000581
639.6443	-0.000011
639.8740	0.001353
640.1038	-0.000201
640.3336	0.001021
640.5633	0.000202
640.7931	0.000480
641.0229	0.000116
641.2528	0.000688
641.4826	0.000244
641.7124	-0.000117
641.9423	0.000202
642.1721	0.002313
642.4020	-0.000585
642.6319	-0.000412
642.8617	0.001658
643.0916	0.001108
643.3216	0.001698
643.5515	0.000968
643.7814	-0.000973
644.0113	0.000525
644.2413	-0.000719
644.4712	0.000324
644.7012	-0.000995
644.9312	0.003181
645.1612	0.001404
645.3912	0.000617
645.6212	0.000412
645.8512	0.000574
646.0812	0.000793
646.3113	0.001664
646.5413	0.000566
646.7714	0.001926
647.0015	-0.000724
647.2316	0.000676
647.4616	0.001478
647.6918	0.000123
647.9219	-0.000255
648.1520	0.002013
648.3821	-0.000230
648.6123	0.001068
648.8424	0.001015
649.0726	0.000227
649.3028	0.000488
649.5329	0.000933
649.7631	0.000203
649.9933	0.000436
650.2236	0.001423
650.4538	0.001485
650.6840	0.000477
650.9143	0.000607
651.1445	0.000736
651.3748	-0.000267
651.6051	-0.000923
651.8354	0.001138
652.0657	0.000117
652.2960	0.001281
652.5263	-0.001017
652.7566	-0.000203
652.9870	-0.000480
653.2173	-0.000559
653.4477	-0.000841
653.6780	-0.000097
653.9084	0.001010
654.1388	0.000011
654.3692	0.000753
654.5996	0.000824
654.8300	-0.000075
655.0605	-0.000139
655.2909	0.000054
655.5213	0.000808
655.7518	-0.001239
655.9823	0.000932
656.2128	-0.000096
656.4433	0.001586
656.6738	0.000649
656.9043	0.000739
657.1348	-0.000032
657.3653	0.000564
657.5959	0.000798
657.8264	0.001659
658.0570	-0.000875
658.2875	0.001684
658.5181	0.001423
658.7487	-0.000664
658.9793	0.000794
659.2099	0.001011
659.4406	-0.001183
659.6712	0.000740
659.9018	-0.000561
660.1325	-0.000776
660.3632	-0.000931
660.5938	0.000454
660.8245	0.001369
661.0552	0.001575
661.2859	0.002193
661.5166	0.000812
661.7474	-0.000011
661.9781	0.001219
662.2088	-0.000413
662.4396	0.001726
662.6704	-0.000968
662.9011	0.002813
663.1319	-0.000200
663.3627	0.000729
663.5935	-0.000262
663.8243	0.000241
664.0552	-0.000138
664.2860	0.000613
664.5168	0.000792
664.7477	0.002450
664.9786	0.000053
665.2094	0.000011
665.4403	0.002559
665.6712	-0.000136
665.9021	-0.000365
666.1330	-0.000158
666.3640	-0.001634
666.5949	0.000920
666.8259	0.000728
667.0568	-0.000647
667.2878	-0.000179
667.5188	0.000856
667.7497	0.000454
667.9807	-0.000632
668.2117	0.000304
668.4428	-0.000370
668.6738	0.000455
668.9048	0.001258
669.1359	0.002062
669.3669	0.001089
669.5980	0.000011
669.8291	0.001448
670.0602	0.000983
670.2913	0.000095
670.5224	0.001026
670.7535	0.001427
670.9846	-0.001068
671.2157	-0.000687
671.4469	-0.000011
671.6781	0.000983
671.9092	0.000201
672.1404	0.000328
672.3716	-0.001279
672.6028	0.001026
672.8340	-0.002125
673.0652	0.000349
673.2964	0.001237
673.5277	0.000983
673.7589	-0.001575
673.9902	-0.000878
674.2214	0.001004
674.4527	0.000772
674.6840	-0.000539
674.9153	0.000983
675.1466	0.001258
675.3779	0.002210
675.6093	0.001364
675.8406	0.000603
676.0719	-0.000666
676.3033	-0.000074
676.5347	0.001174
676.7661	0.000180
676.9974	0.001004
677.2288	-0.000835
677.4602	0.000687
677.6917	-0.000201
677.9231	0.001575
678.1545	0.001639
678.3860	0.001448
678.6174	-0.000201
678.8489	-0.001195
679.0804	0.001026
679.3119	0.000095
679.5434	-0.000222
679.7749	-0.001026
680.0064	0.000751
680.2379	-0.000455
680.4694	-0.000730
680.7010	0.000581
680.9325	0.000285
681.1641	0.001237
681.3957	-0.000116
681.6273	-0.000920
681.8589	0.000560
682.0905	-0.000243
682.3221	0.000264
682.5537	0.001470
682.7854	0.000581
683.0170	0.000011
683.2487	0.000835
683.4803	0.001427
683.7120	0.000624
683.9437	0.000412
684.1754	0.001893
684.4071	0.000476
684.6388	0.000645
684.8705	-0.000011
685.1023	-0.001004
685.3340	0.000095
685.5658	0.001575
685.7975	-0.001258
686.0293	-0.000624
686.2611	0.000920
686.4929	0.000137
686.7247	-0.001406
686.9565	-0.000730
687.1883	0.000095
687.4202	0.001406
687.6520	0.001766
687.8838	-0.000095
688.1157	0.000201
688.3476	0.000011
688.5795	-0.000687
688.8114	0.001406
689.0433	-0.000581
689.2752	0.000159
689.5071	0.001089
689.7390	-0.000095
689.9710	0.000032
690.2029	0.000624
690.4349	0.000095
690.6669	0.000624
690.8988	0.001364
691.1308	0.001152
691.3628	-0.000264
691.5948	0.001279
691.8269	-0.000180
692.0589	0.001596
692.2909	0.001131
692.5230	0.000920
692.7550	-0.000180
692.9871	0.000391
693.2192	-0.000074
693.4513	-0.002125
693.6834	0.000285
693.9155	0.000941
694.1476	0.000941
694.3797	0.001343
694.6119	0.000476
694.8440	0.000518
695.0762	-0.000285
695.3083	-0.000032
695.5405	-0.000349
695.7727	0.000624
696.0049	0.001047
696.2371	0.001026
696.4693	0.000370
696.7016	-0.000201
696.9338	0.001026
697.1660	-0.001216
697.3983	-0.000095
697.6306	0.000180
697.8628	0.000116
698.0951	0.001131
698.3274	0.000116
698.5597	-0.001068
698.7920	0.006143
699.0243	0.003605
699.2567	0.000243
699.4890	0.000560
699.7214	-0.000222
699.9537	0.001533
700.1861	0.001131
700.4185	-0.000307
700.6509	0.001533
700.8833	-0.000180
701.1157	-0.000053
701.3481	-0.000455
701.5806	0.001766
701.8130	0.001427
702.0454	-0.001131
702.2779	-0.000264
702.5104	0.001195
702.7429	0.000011
702.9753	0.000243
703.2078	-0.000539
703.4403	0.002125
703.6729	0.000793
703.9054	-0.000730
704.1379	-0.000095
704.3705	0.001026
704.6030	0.000391
704.8356	0.000476
705.0682	-0.001258
705.3008	-0.000180
705.5334	0.000920
705.7660	0.001004
705.9986	0.000751
706.2312	0.000349
706.4638	0.001152
706.6965	-0.000032
706.9291	0.000285
707.1618	0.001047
707.3945	-0.000137
707.6272	-0.000285
707.8599	-0.000730
708.0926	0.000011
708.3253	-0.000011
708.5580	0.000518
708.7907	-0.000687
709.0235	0.000455
709.2562	0.000941
709.4890	0.000581
709.7217	-0.001766
709.9545	-0.000285
710.1873	0.001068
710.4201	0.000095
710.6529	-0.000264
710.8857	0.000645
711.1186	-0.000032
711.3514	0.000222
711.5842	-0.000095
711.8171	0.001110
712.0500	0.000391
712.2828	0.001448
712.5157	-0.000032
712.7486	0.001279
712.9815	-0.000497
713.2144	-0.000137
713.4474	0.000793
713.6803	0.000962
713.9132	0.000603
714.1462	0.001195
714.3791	-0.000074
714.6121	0.001195
714.8451	0.000285
715.0781	0.000772
715.3111	0.000899
715.5441	0.001364
715.7771	0.000349
716.0102	0.001977
716.2432	-0.000116
716.4762	0.001322
716.7093	-0.000433
716.9424	0.000011
717.1754	-0.000328
717.4085	-0.000095
717.6416	0.000391
717.8747	-0.001131
718.1078	-0.001702
718.3410	-0.001956
718.5741	0.000793
718.8072	-0.000455
719.0404	0.001195
719.2736	0.001681
719.5067	0.001279
719.7399	0.000201
719.9731	-0.000032
720.2063	-0.000920
720.4395	0.000730
720.6727	0.000095
720.9060	-0.002167
721.1392	0.000814
721.3725	0.001723
721.6057	0.000878
721.8390	0.001914
722.0723	-0.000539
722.3055	0.001258
722.5388	0.001554
722.7721	-0.001089
723.0055	-0.000730
723.2388	-0.000222
723.4721	0.001744
723.7055	0.000116
723.9388	-0.000011
724.1722	-0.000983
724.4056	0.001491
724.6389	0.001152
724.8723	-0.000560
725.1057	0.000391
725.3391	0.000751
725.5726	-0.000285
725.8060	0.000856
726.0394	0.000645
726.2729	-0.000476
726.5063	0.000856
726.7398	0.000730
726.9733	-0.001322
727.2068	0.000814
727.4403	0.001004
727.6738	-0.000159
727.9073	0.000328
728.1408	0.001026
728.3743	-0.000962
728.6079	0.001702
728.8414	0.001300
729.0750	0.000391
729.3086	0.001089
729.5421	0.001300
729.7757	0.001089
730.0093	-0.000730
730.2429	-0.001448
730.4766	0.001026
730.7102	-0.000730
730.9438	0.001427
731.1775	0.001660
731.4111	0.000751
731.6448	0.001174
731.8785	0.000180
732.1122	0.002125
732.3458	0.000074
732.5795	0.001470
732.8133	0.000560
733.0470	0.000433
733.2807	0.000983
733.5145	0.000497
733.7482	0.000751
733.9820	0.000137
734.2157	-0.000074
734.4495	0.000814
734.6833	0.000328
734.9171	0.001575
735.1509	0.001766
735.3847	0.000285
735.6185	0.000751
735.8524	-0.000433
736.0862	0.000095
736.3201	-0.001047
736.5539	0.000095
736.7878	0.000116
737.0217	-0.000307
737.2556	0.002252
737.4895	0.000708
737.7234	0.000180
737.9573	0.000349
738.1912	-0.001364
738.4252	0.000180
738.6591	-0.000011
738.8931	-0.000011
739.1271	-0.000856
739.3610	0.000412
739.5950	-0.001512
739.8290	-0.000497
740.0630	0.000814
740.2970	0.000201
740.5310	-0.000730
740.7651	0.001596
740.9991	0.000497
741.2332	0.001766
741.4672	0.000349
741.7013	0.001533
741.9354	-0.001089
742.1695	-0.000159
742.4036	-0.000793
742.6377	-0.000285
742.8718	0.001660
743.1059	0.001237
743.3400	0.000180
743.5742	0.001110
743.8083	0.000793
744.0425	0.000603
744.2767	-0.000560
744.5108	0.000560
744.7450	0.001131
744.9792	0.000011
745.2134	-0.000962
745.4477	0.000285
745.6819	0.000391
745.9161	-0.000137
746.1504	0.001026
746.3846	0.000624
746.6189	0.000307
746.8532	0.001089
747.0874	0.000645
747.3217	0.001448
747.5560	-0.000264
747.7903	0.001195
748.0247	0.000730
748.2590	-0.000835
748.4933	0.000307
748.7277	-0.000349
748.9620	-0.000074
749.1964	0.001279
749.4308	-0.000285
749.6652	0.000476
749.8995	-0.000222
750.1339	0.001110
750.3684	-0.000285
750.6028	0.002062
750.8372	0.000455
751.0717	-0.000941
751.3061	0.000074
751.5406	-0.000751
751.7750	0.000539
752.0095	0.003690
752.2440	0.000581
752.4785	0.000666
752.7130	0.001850
752.9475	0.001956
753.1820	-0.000032
753.4166	-0.001216
753.6511	-0.000433
753.8856	0.001026
754.1202	-0.000053
754.3548	0.001131
754.5894	0.000751
754.8239	0.000074
755.0585	-0.001300
755.2931	-0.000285
755.5278	0.001237
755.7624	-0.000011
755.9970	0.000624
756.2317	0.000222
756.4663	-0.000539
756.7010	-0.000011
756.9356	0.001470
757.1703	0.000370
757.4050	0.001152
757.6397	0.000476
757.8744	0.000730
758.1091	0.000455
758.3438	-0.000581
758.5786	-0.000899
758.8133	0.001152
759.0481	0.000941
759.2828	0.001026
759.5176	-0.000581
759.7524	0.000856
759.9872	-0.000159
760.2220	0.000095
760.4568	0.000455
760.6916	0.001766
760.9264	0.000412
761.1613	0.001343
761.3961	0.001004
761.6310	0.000264
761.8658	0.000053
762.1007	0.000285
762.3356	0.001406
762.5705	0.000624
762.8054	0.000285
763.0403	-0.000835
763.2752	-0.000053
763.5101	-0.001237
763.7450	0.001131
763.9800	0.000581
764.2149	0.000856
764.4499	0.001512
764.6849	-0.001850
764.9198	0.001575
765.1548	0.000412
765.3898	0.000074
765.6248	-0.000983
765.8599	-0.000814
766.0949	-0.000137
766.3299	0.000391
766.5650	0.000349
766.8000	-0.001152
767.0351	0.000476
767.2701	0.000264
767.5052	0.001300
767.7403	0.002527
767.9754	-0.000433
768.2105	0.002210
768.4456	0.000751
768.6808	0.001575
768.9159	-0.000285
769.1510	0.002104
769.3862	0.000962
769.6214	0.001195
769.8565	-0.000201
770.0917	-0.000624
770.3269	-0.000455
770.5621	0.000497
770.7973	0.001279
771.0325	0.000666
771.2677	0.000793
771.5030	0.000328
771.7382	-0.000539
771.9735	-0.000603
772.2087	0.000708
772.4440	0.001533
772.6793	-0.001237
772.9146	-0.000433
773.1499	0.000412
773.3852	0.000370
773.6205	0.000032
773.8558	0.001575
774.0911	0.000349
774.3265	0.000751
774.5618	0.000899
774.7972	-0.000201
775.0326	0.001068
775.2679	0.000941
775.5033	-0.000730
775.7387	-0.000137
775.9741	-0.000264
776.2095	0.000560
776.4450	0.000856
776.6804	0.000412
776.9158	-0.001723
777.1513	-0.000391
777.3868	0.000518
777.6222	-0.000285
777.8577	-0.002210
778.0932	0.000539
778.3287	0.000074
778.5642	0.000433
778.7997	-0.001216
779.0352	-0.001026
779.2707	0.000095
779.5063	0.001152
779.7418	-0.000011
779.9774	0.001364
780.2130	0.000603
780.4485	0.000518
780.6841	-0.000201
780.9197	-0.000307
781.1553	-0.000920
781.3909	0.001385
781.6265	0.000581
781.8622	0.000011
782.0978	-0.000772
782.3335	-0.000116
782.5691	0.000899
782.8048	-0.000159
783.0405	-0.001427
783.2761	0.001089
783.5118	-0.000539
783.7475	0.000518
783.9832	0.000201
784.2190	0.000730
784.4547	-0.000708
784.6904	0.000116
784.9262	-0.001470
785.1619	0.000307
785.3977	-0.000433
785.6335	-0.000497
785.8692	-0.001491
786.1050	0.002485
786.3408	-0.000856
786.5766	0.002654
786.8124	-0.001110
787.0483	-0.001343
787.2841	-0.000708
787.5199	0.000920
787.7558	0.002294
787.9917	0.000053
788.2275	-0.000391
788.4634	-0.000920
788.6993	-0.002104
788.9352	0.001152
789.1711	-0.000708
789.4070	0.001533
789.6429	0.000391
789.8789	0.001491
790.1148	0.000814
790.3507	0.000095
790.5867	-0.000666
790.8227	0.000560
791.0586	-0.001427
791.2946	0.000053
791.5306	-0.000349
791.7666	0.000476
792.0026	0.001639
792.2387	0.001554
792.4747	0.000159
792.7107	0.002696
792.9468	0.001089
793.1828	0.001427
793.4189	0.000730
793.6550	0.001702
793.8910	0.000730
794.1271	-0.000666
794.3632	0.000539
794.5993	-0.000095
794.8355	-0.000581
795.0716	0.000116
795.3077	0.000708
795.5439	-0.000180
795.7800	-0.000095
796.0162	0.000074
796.2523	-0.000074
796.4885	-0.000645
796.7247	0.002104
796.9609	0.000920
797.1971	-0.000116
797.4333	0.002019
797.6695	-0.000941
797.9058	0.000032
798.1420	0.001575
798.3783	0.000962
798.6145	0.000243
798.8508	-0.000476
799.0871	0.000307
799.3233	-0.000285
799.5596	-0.000053
799.7959	0.001195
800.0322	-0.000708
800.2686	0.001998
800.5049	-0.000264
800.7412	0.000095
800.9776	0.000814
801.2139	0.001596
801.4503	-0.000307
801.6867	-0.000581
801.9230	0.000412
802.1594	0.000053
802.3958	0.000772
802.6322	-0.000793
802.8686	0.001110
803.1051	0.000370
803.3415	-0.000751
803.5779	-0.001089
803.8144	0.000772
804.0508	0.000032
804.2873	0.001406
804.5238	-0.001554
804.7603	-0.000814
804.9968	0.000433
805.2333	0.000201
805.4698	-0.000433
805.7063	0.001300
805.9428	0.000581
806.1794	-0.000222
806.4159	-0.000011
806.6525	0.000391
806.8890	0.001766
807.1256	0.002146
807.3622	0.000814
807.5988	-0.000708
807.8354	-0.001343
808.0720	-0.000412
808.3086	0.000011
808.5452	0.000412
808.7818	0.000328
809.0185	0.000095
809.2551	0.002104
809.4918	0.000878
809.7284	0.000899
809.9651	-0.000053
810.2018	0.002125
810.4385	-0.000391
810.6752	0.000835
810.9119	-0.000201
811.1486	0.002485
811.3853	-0.000645
811.6221	-0.000349
811.8588	0.000032
812.0956	0.001702
812.3323	-0.000899
812.5691	-0.000518
812.8059	-0.000878
813.0427	0.000856
813.2795	-0.001004
813.5163	-0.000011
813.7531	0.000264
813.9899	0.000412
814.2267	0.000518
814.4636	0.001322
814.7004	-0.000856
814.9373	-0.000539
815.1742	0.000116
815.4110	0.000307
815.6479	0.000835
815.8848	0.000603
816.1217	0.000032
816.3586	-0.000011
816.5955	0.000793
816.8324	-0.000920
817.0694	0.001491
817.3063	-0.001470
817.5433	0.001152
817.7802	-0.000243
818.0172	0.000116
818.2542	0.000983
818.4912	-0.000856
818.7282	0.000053
818.9652	0.001068
819.2022	-0.000180
819.4392	0.001491
819.6762	0.000476
819.9133	-0.001068
820.1503	0.000455
820.3874	0.000497
820.6244	-0.000455
820.8615	-0.000645
821.0986	-0.002189
821.3357	0.000814
821.5727	0.001174
821.8099	0.000222
822.0470	-0.001470
822.2841	0.000159
822.5212	0.001047
822.7584	0.000074
822.9955	0.002231
823.2327	0.000137
823.4698	0.001026
823.7070	-0.000730
823.9442	0.001131
824.1814	-0.000476
824.4186	0.000391
824.6558	-0.000687
824.8930	0.000370
825.1302	0.000730
825.3675	0.000751
825.6047	-0.000011
825.8419	0.000645
826.0792	-0.000941
826.3165	-0.000412
826.5537	0.001427
826.7910	0.001026
827.0283	0.001110
827.2656	-0.002738
827.5029	-0.000370
827.7402	0.001322
827.9776	0.000476
828.2149	-0.000412
828.4522	0.002019
828.6896	0.000772
828.9270	0.001512
829.1643	0.000899
829.4017	0.000391
829.6391	0.000560
829.8765	0.001766
830.1139	0.000518
830.3513	0.000433
830.5887	0.000095
830.8261	0.001723
831.0636	-0.000433
831.3010	-0.000941
831.5385	0.000074
831.7759	0.001723
832.0134	0.001110
832.2509	0.000983
832.4884	0.000370
832.7259	-0.001279
832.9634	0.000581
833.2009	0.001406
833.4384	0.001448
833.6759	0.002252
833.9135	0.000328
834.1510	0.000201
834.3886	-0.000814
834.6261	-0.000032
834.8637	-0.000983
835.1013	-0.000116
835.3389	-0.000053
835.5765	-0.000455
835.8141	-0.002104
836.0517	0.002231
836.2893	0.000878
836.5269	0.000941
836.7646	0.000899
837.0022	0.002379
837.2399	0.001343
837.4775	-0.001068
837.7152	0.000941
837.9529	0.001364
838.1906	-0.000518
838.4283	0.001258
838.6660	0.000137
838.9037	0.001491
839.1414	0.000624
839.3791	0.000751
839.6169	0.000581
839.8546	0.000159
840.0924	-0.000899
840.3302	0.001131
840.5679	-0.000581
840.8057	-0.000074
841.0435	0.000835
841.2813	0.000137
841.5191	-0.002379
841.7569	0.000222
841.9947	-0.001237
842.2326	-0.000349
842.4704	-0.000264
842.7082	0.001237
842.9461	-0.000180
843.1840	0.001787
843.4218	0.001004
843.6597	-0.001174
843.8976	-0.000603
844.1355	-0.001660
844.3734	0.002019
844.6113	0.001068
844.8492	0.001322
845.0872	0.000201
845.3251	0.000159
845.5631	0.000053
845.8010	-0.000201
846.0390	-0.001216
846.2770	-0.000391
846.5149	0.001068
846.7529	-0.000687
846.9909	0.001914
847.2289	-0.000032
847.4669	0.001914
847.7050	0.000243
847.9430	0.000856
848.1810	-0.000180
848.4191	0.001406
848.6571	0.000032
848.8952	0.000053
849.1333	0.000687
849.3713	0.003077
849.6094	0.001512
849.8475	0.001026
850.0856	0.000708
850.3237	0.000878
850.5619	0.000624
850.8000	0.001364
851.0381	0.000053
851.2763	-0.000307
851.5144	-0.000835
851.7526	0.000560
851.9908	-0.000793
852.2289	-0.000264
852.4671	0.000412
852.7053	0.001470
852.9435	-0.000772
853.1817	0.001575
853.4200	0.000730
853.6582	0.000962
853.8964	-0.000518
854.1347	0.000687
854.3729	0.000116
854.6112	-0.000370
854.8495	0.000687
855.0877	0.001575
855.3260	0.000053
855.5643	0.001554
855.8026	-0.000349
856.0409	-0.001364
856.2792	0.001533
856.5176	0.001702
856.7559	0.000687
856.9942	0.002294
857.2326	-0.000476
857.4710	0.002167
857.7093	0.001152
857.9477	0.000518
858.1861	-0.000878
858.4245	0.001744
858.6629	0.000180
858.9013	0.000560
859.1397	-0.000962
859.3781	0.000137
859.6166	0.000645
859.8550	0.000645
860.0935	0.001089
860.3319	0.001681
860.5704	-0.001131
860.8089	0.001089
861.0473	0.000011
861.2858	-0.000328
861.5243	0.000476
861.7628	0.000814
862.0013	0.001279
862.2399	0.000497
862.4784	-0.000730
862.7169	0.001533
862.9555	0.001364
863.1940	0.000074
863.4326	-0.000053
863.6712	0.002083
863.9098	-0.000666
864.1483	0.001575
864.3869	0.002506
864.6255	0.001787
864.8642	-0.000772
865.1028	0.001575
865.3414	0.000581
865.5800	0.000708
865.8187	0.000307
866.0573	0.000285
866.2960	0.001237
866.5347	0.001554
866.7733	0.000137
867.0120	0.001174
867.2507	0.000878
867.4894	0.000243
867.7281	0.000201
867.9669	-0.001152
868.2056	-0.001893
868.4443	-0.000307
868.6831	-0.001744
868.9218	0.001026
869.1606	0.001089
869.3993	0.000518
869.6381	0.000433
869.8769	0.001681
870.1157	0.000899
870.3545	0.001385
870.5933	0.000159
870.8321	0.000624
871.0709	0.000222
871.3097	0.002083
871.5486	-0.001406
871.7874	-0.000391
872.0263	0.000730
872.2651	0.000391
872.5040	0.000539
872.7429	-0.000222
872.9818	0.000645
873.2207	0.001448
873.4596	-0.000560
873.6985	0.000137
873.9374	0.000011
874.1763	0.002548
874.4153	0.000920
874.6542	0.000074
874.8932	-0.000011
875.1321	0.000391
875.3711	-0.001068
875.6101	0.000370
875.8491	0.000116
876.0880	0.001343
876.3270	0.000539
876.5661	0.001406
876.8051	-0.000497
877.0441	-0.000856
877.2831	0.000159
877.5222	0.000011
877.7612	0.001681
878.0003	0.000856
878.2393	0.000370
878.4784	-0.000666
878.7175	0.001195
878.9566	-0.000370
879.1957	0.001723
879.4348	-0.000201
879.6739	0.000159
879.9130	-0.000032
880.1521	0.000159
880.3913	-0.001047
880.6304	0.000751
880.8696	-0.000497
881.1087	0.001871
881.3479	0.000349
881.5871	0.000222
881.8262	-0.000835
882.0654	0.000814
882.3046	-0.000370
882.5438	0.000751
882.7831	-0.000687
883.0223	0.000349
883.2615	0.000349
883.5007	-0.000349
883.7400	0.001533
883.9792	0.000497
884.2185	-0.000159
884.4578	-0.000243
884.6971	-0.000412
884.9363	0.001533
885.1756	0.000920
885.4149	0.000983
885.6542	-0.000370
885.8936	-0.000032
886.1329	0.001216
886.3722	0.000433
886.6116	0.000835
886.8509	-0.000074
887.0903	0.000116
887.3296	0.000476
887.5690	-0.001174
887.8084	0.001068
888.0478	0.000011
888.2872	0.000835
888.5266	-0.001195
888.7660	0.001237
889.0054	0.000603
889.2448	0.000328
889.4843	0.000497
889.7237	0.001068
889.9632	0.001385
890.2026	0.000687
890.4421	-0.001110
890.6816	-0.000962
890.9211	0.000751
891.1606	0.001406
891.4001	0.003415
891.6396	0.001533
891.8791	0.000264
892.1186	0.001216
892.3581	0.000222
892.5977	-0.000116
892.8372	0.000518
893.0768	0.001300
893.3163	0.001026
893.5559	0.001195
893.7955	-0.000941
894.0351	0.002358
894.2747	0.001596
894.5143	-0.000349
894.7539	0.001766
894.9935	0.000307
895.2331	-0.000878
895.4727	0.001871
895.7124	0.000899
895.9520	0.000920
896.1917	-0.000962
896.4314	-0.000180
896.6710	0.001596
896.9107	0.000666
897.1504	0.000032
897.3901	0.000666
897.6298	-0.001110
897.8695	0.001047
898.1092	-0.000370
898.3489	0.000581
898.5887	-0.000328
898.8284	0.001047
899.0682	0.000095
899.3079	0.000539
899.5477	0.000666
899.7875	-0.000053
900.0272	-0.000053
900.2670	0.002273
900.5068	-0.000793
900.7466	0.001047
900.9864	0.000328
901.2263	0.001491
901.4661	0.001808
901.7059	0.000095
901.9458	0.000899
902.1856	0.000920
902.4255	-0.000370
902.6654	0.000455
902.9052	0.001089
903.1451	-0.001554
903.3850	0.000074
903.6249	-0.000349
903.8648	-0.000581
904.1047	0.001279
904.3446	0.000328
904.5846	0.001448
904.8245	0.000412
905.0644	0.001026
905.3044	0.000518
905.5444	0.000328
905.7843	-0.000730
906.0243	0.000116
906.2643	0.000243
906.5043	-0.000666
906.7443	-0.000285
906.9843	-0.000624
907.2243	-0.000730
907.4643	0.000899
907.7043	-0.000011
907.9444	-0.000095
908.1844	-0.000835
908.4245	0.000180
908.6645	-0.000201
908.9046	-0.000201
909.1447	-0.002442
909.3847	0.002400
909.6248	0.000518
909.8649	-0.000095
910.1050	0.001110
910.3452	0.001089
910.5853	0.000793
910.8254	0.000222
911.0655	-0.000349
911.3057	0.001512
911.5458	0.000476
911.7860	0.000645
912.0262	0.000518
912.2663	0.002019
912.5065	-0.002337
912.7467	0.002041
912.9869	0.000603
913.2271	0.001596
913.4673	0.000307
913.7075	0.001068
913.9478	0.000264
914.1880	0.000856
914.4283	-0.001131
914.6685	-0.000497
914.9088	0.000095
915.1490	0.001596
915.3893	0.000941
915.6296	0.000201
915.8699	0.000814
916.1102	0.001808
916.3505	0.000856
916.5908	0.001364
916.8311	0.001406
917.0714	0.000941
917.3118	-0.000581
917.5521	-0.000856
917.7925	0.000137
918.0328	0.001554
918.2732	-0.000518
918.5136	0.000307
918.7539	0.000687
918.9943	0.000878
919.2347	0.001279
919.4751	0.000349
919.7155	-0.001152
919.9560	0.000645
920.1964	0.000053
920.4368	0.000560
920.6773	-0.000560
920.9177	-0.000518
921.1582	-0.000032
921.3986	0.002506
921.6391	-0.000053
921.8796	0.000285
922.1201	-0.001850
922.3606	-0.000032
922.6011	0.001343
922.8416	0.000666
923.0821	-0.000180
923.3226	-0.000159
923.5631	0.000708
923.8037	0.000730
924.0442	-0.000666
924.2848	-0.000011
924.5254	0.002273
924.7659	0.001702
925.0065	0.000222
925.2471	0.000603
925.4877	0.001216
925.7283	0.001575
925.9689	0.000412
926.2095	0.000455
926.4501	0.001195
926.6908	0.001343
926.9314	0.001470
927.1720	0.001237
927.4127	-0.001322
927.6533	0.000518
927.8940	0.002273
928.1347	-0.000032
928.3754	-0.000518
928.6161	0.000518
928.8568	-0.001174
929.0975	0.001554
929.3382	-0.000328
929.5789	0.000730
929.8196	0.001110
930.0604	0.000180
930.3011	0.000137
930.5419	0.001131
930.7826	0.000983
931.0234	0.001766
931.2642	0.000476
931.5049	0.001935
931.7457	0.000328
931.9865	0.000201
932.2273	0.001216
932.4681	0.000349
932.7089	0.000539
932.9498	0.000730
933.1906	0.001004
933.4314	0.000772
933.6723	-0.000201
933.9131	0.000581
934.1540	0.000835
934.3949	-0.000518
934.6358	0.001089
934.8766	0.000391
935.1175	0.001068
935.3584	-0.001174
935.5993	0.001258
935.8403	0.001702
936.0812	0.000645
936.3221	0.000581
936.5630	-0.000708
936.8040	0.001258
937.0449	-0.000539
937.2859	0.001766
937.5269	-0.001512
937.7678	0.002950
938.0088	0.000201
938.2498	0.000708
938.4908	0.000011
938.7318	-0.000074
938.9728	-0.001089
939.2138	-0.001026
939.4549	0.002083
939.6959	-0.000603
939.9369	0.000137
940.1780	0.000497
940.4190	-0.000878
940.6601	-0.001871
940.9012	-0.000074
941.1422	0.000772
941.3833	0.001914
941.6244	0.000243
941.8655	0.001427
942.1066	-0.001047
942.3477	0.000856
942.5889	-0.001152
942.8300	0.001004
943.0711	0.000730
943.3123	0.000180
943.5534	0.000941
943.7946	-0.000645
944.0357	-0.000074
944.2769	-0.000391
944.5181	0.000751
944.7593	0.000222
945.0005	0.000856
945.2417	-0.000011
945.4829	0.000666
945.7241	0.001258
945.9653	0.000328
946.2066	0.000560
946.4478	0.001596
946.6891	-0.000328
946.9303	0.000243
947.1716	0.001343
947.4128	-0.000307
947.6541	-0.001068
947.8954	0.000920
948.1367	0.000032
948.3780	0.001448
948.6193	-0.000201
948.8606	0.000814
949.1019	0.001639
949.3433	0.000159
949.5846	0.001575
949.8259	0.000201
950.0673	0.000370
950.3086	-0.001956
950.5500	-0.000180
950.7914	0.001766
951.0327	-0.001110
951.2741	0.001829
951.5155	0.001512
951.7569	0.000116
951.9983	0.002611
952.2398	-0.001766
952.4812	-0.000011
952.7226	-0.000581
952.9640	0.001322
953.2055	0.001195
953.4469	0.001258
953.6884	0.000243
953.9299	0.001893
954.1713	-0.000497
954.4128	0.000053
954.6543	-0.000222
954.8958	-0.000539
955.1373	0.001131
955.3788	0.000201
955.6203	-0.000730
955.8618	0.001512
956.1034	0.001110
956.3449	0.002696
956.5865	0.000645
956.8280	0.000539
957.0696	0.000011
957.3111	0.001322
957.5527	-0.000645
957.7943	-0.000328
958.0359	-0.000032
958.2775	0.002083
958.5191	0.000539
958.7607	-0.000814
959.0023	0.000159
959.2439	0.001195
959.4856	-0.000455
959.7272	0.000518
959.9688	-0.000899
960.2105	-0.000243
960.4522	0.000560
960.6938	0.000222
960.9355	0.000814
961.1772	-0.000370
961.4189	-0.000264
961.6606	-0.000497
961.9023	0.000645
962.1440	0.000074
962.3857	-0.000581
962.6274	-0.000159
962.8692	0.001237
963.1109	-0.000687
963.3527	-0.000455
963.5944	-0.000687
963.8362	-0.000455
964.0779	0.000307
964.3197	-0.001808
964.5615	0.001322
964.8033	-0.001554
965.0451	0.000835
965.2869	0.000243
965.5287	-0.000116
965.7705	-0.000581
966.0123	0.000983
966.2542	-0.000264
966.4960	0.001258
966.7379	-0.000285
966.9797	0.000983
967.2216	0.000814
967.4634	-0.000264
967.7053	-0.000243
967.9472	-0.000835
968.1891	0.000920
968.4310	0.001131
968.6729	-0.000941
968.9148	0.002083
969.1567	0.001216
969.3987	0.000856
969.6406	-0.000032
969.8825	-0.000349
970.1245	-0.001026
970.3664	-0.000116
970.6084	-0.001554
970.8504	0.000856
971.0923	-0.000687
971.3343	0.001787
971.5763	-0.000201
971.8183	0.000159
972.0603	-0.001300
972.3023	0.001681
972.5443	-0.000878
972.7864	0.000476
973.0284	0.000476
973.2704	0.002062
973.5125	-0.001131
973.7545	0.000560
973.9966	0.002104
974.2387	0.001195
974.4807	-0.001152
974.7228	-0.000518
974.9649	-0.000687
975.2070	0.001258
975.4491	-0.000137
975.6912	0.001089
975.9333	0.000518
976.1755	0.000180
976.4176	-0.000666
976.6597	0.000603
976.9019	-0.001554
977.1440	0.000011
977.3862	-0.000349
977.6283	0.002189
977.8705	0.001448
978.1127	-0.000581
978.3549	-0.000920
978.5971	0.000581
978.8393	-0.000074
979.0815	0.001026
979.3237	-0.001385
979.5659	0.002294
979.8082	-0.000095
980.0504	-0.000962
980.2926	0.000793
980.5349	0.000497
980.7771	0.000666
981.0194	-0.000730
981.2617	0.000941
981.5040	0.000391
981.7462	0.000793
981.9885	0.000983
982.2308	-0.001110
982.4731	0.001174
982.7155	0.000899
982.9578	0.000560
983.2001	0.000962
983.4424	0.000899
983.6848	0.000624
983.9271	0.000497
984.1695	0.001068
984.4118	0.000011
984.6542	0.000476
984.8966	0.001343
985.1390	0.000328
985.3814	-0.001300
985.6238	0.000095
985.8662	0.002019
986.1086	0.001533
986.3510	0.000433
986.5934	-0.000645
986.8358	0.000180
987.0783	0.000264
987.3207	-0.000581
987.5632	0.000687
987.8056	0.000539
988.0481	-0.000285
988.2906	0.001935
988.5331	-0.001554
988.7756	-0.000011
989.0180	-0.000011
989.2605	0.000835
989.5031	0.001596
989.7456	-0.000920
989.9881	-0.000497
990.2306	0.001702
990.4732	-0.000053
990.7157	0.001406
990.9582	0.001744
991.2008	0.000666
991.4434	0.000983
991.6859	-0.000370
991.9285	0.000560
992.1711	-0.001131
992.4137	-0.001004
992.6563	0.001026
992.8989	-0.000264
993.1415	0.001554
993.3841	0.000201
993.6267	0.001026
993.8694	-0.000180
994.1120	0.001089
994.3547	0.001491
994.5973	-0.000285
994.8400	0.000433
995.0826	0.001427
995.3253	0.001068
995.5680	0.001406
995.8107	0.000391
996.0534	-0.000560
996.2961	0.000032
996.5388	-0.000201
996.7815	0.000455
997.0242	0.000730
997.2670	0.001026
997.5097	0.000581
997.7524	0.000878
997.9952	0.001596
998.2379	0.000391
998.4807	0.001744
998.7235	0.000856
998.9662	0.000814
999.2090	0.000645
999.4518	-0.000349
999.6946	-0.000349
999.9374	-0.000264
1000.1802	-0.000645
1000.4230	-0.000032
1000.6659	0.000412
1000.9087	-0.000624
1001.1515	0.002019
1001.3944	-0.000264
1001.6372	0.000856
1001.8801	-0.000180
1002.1230	0.001343
1002.3658	-0.000159
1002.6087	0.001448
1002.8516	0.000455
1003.0945	0.000856
1003.3374	0.000920
1003.5803	-0.002146
1003.8232	-0.000899
1004.0661	0.001343
1004.3091	0.000391
1004.5520	-0.000433
1004.7949	0.000159
1005.0379	0.000116
1005.2808	-0.000391
1005.5238	-0.001152
1005.7667	0.000772
1006.0097	0.003013
1006.2527	0.000053
1006.4957	0.001385
1006.7387	-0.000455
1006.9817	-0.000603
1007.2247	-0.000349
1007.4677	0.000159
1007.7107	-0.000370
1007.9538	0.002294
1008.1968	0.000835
1008.4398	-0.000307
1008.6829	-0.000814
1008.9259	0.001956
1009.1690	0.000307
1009.4121	0.000201
1009.6551	0.002379
1009.8982	0.000264
1010.1413	0.000307
1010.3844	0.001554
1010.6275	0.001406
1010.8706	0.000137
1011.1137	-0.000370
1011.3568	0.002506
1011.6000	0.001406
1011.8431	0.000687
1012.0863	-0.000518
1012.3294	0.000835
1012.5726	0.001322
1012.8157	0.000053
1013.0589	-0.000116
1013.3021	0.001237
1013.5452	0.000751
1013.7884	0.003309
1014.0316	0.000032
1014.2748	-0.000116
1014.5180	0.000201
1014.7613	0.001448
1015.0045	-0.001174
1015.2477	-0.000730
1015.4909	0.001152
1015.7342	0.000518
1015.9774	-0.001427
1016.2207	0.002590
1016.4640	-0.000455
1016.7072	0.001512
1016.9505	-0.001300
1017.1938	0.001744
1017.4371	0.002337
1017.6804	0.000433
1017.9237	0.001068
1018.1670	0.000518
1018.4103	0.001047
1018.6536	0.000708
1018.8969	0.001406
1019.1403	0.000835
1019.3836	-0.000687
1019.6270	0.000222
1019.8703	0.000666
1020.1137	0.001195
1020.3571	0.000328
1020.6004	0.000518
1020.8438	0.000899
1021.0872	0.002252
1021.3306	0.001533
1021.5740	0.000899
1021.8174	-0.002633
1022.0608	-0.002802
1022.3042	-0.001406
1022.5477	-0.002104
1022.7911	-0.003330
1023.0345	-0.001787
