# Wavelength (nm)	Intensity (a.u.)
197.7802	0.001003
197.9842	-0.000203
198.1882	0.000643
198.3922	-0.000774
198.5963	-0.000562
198.8003	-0.000922
199.0044	0.001235
199.2085	0.000876
199.4126	0.000241
199.6168	-0.002021
199.8209	0.001066
200.0251	-0.000901
200.2292	0.000220
200.4334	0.000495
200.6376	0.001193
200.8418	-0.000118
201.0461	0.000030
201.2503	0.000305
201.4546	0.001320
201.6589	-0.001535
201.8631	0.001933
202.0674	0.000559
202.2718	0.000432
202.4761	-0.000287
202.6805	-0.001239
202.8848	0.000918
203.0892	-0.000922
203.2936	0.001722
203.4980	-0.000330
203.7024	0.000432
203.9069	0.001193
204.1113	0.000389
204.3158	-0.000795
204.5203	0.001235
204.7248	-0.000266
204.9293	-0.001894
205.1338	0.000051
205.3384	-0.000372
205.5430	-0.000266
205.7475	0.000559
205.9521	0.001172
206.1567	0.000009
206.3614	-0.000710
206.5660	0.001151
206.7706	0.001722
206.9753	-0.001006
207.1800	-0.000372
207.3847	0.001849
207.5894	-0.002317
207.7941	0.000770
207.9989	0.000834
208.2036	-0.001598
208.4084	0.002018
208.6132	0.000474
208.8180	0.000051
209.0228	0.000157
209.2276	0.000812
209.4325	0.001130
209.6373	-0.000076
209.8422	-0.000055
210.0471	-0.000583
210.2520	-0.000012
210.4569	0.000115
210.6618	0.000411
210.8668	-0.000287
211.0718	0.000284
211.2767	0.001045
211.4817	-0.000520
211.6867	-0.000372
211.8918	-0.001281
212.0968	-0.000499
212.3018	0.001108
212.5069	0.001172
212.7120	0.001151
212.9171	0.000305
213.1222	0.002314
213.3273	0.000093
213.5325	-0.000076
213.7376	-0.001387
213.9428	-0.000837
214.1480	-0.000118
214.3532	0.000453
214.5584	0.001701
214.7636	0.000305
214.9689	-0.001175
215.1741	0.000474
215.3794	-0.000203
215.5847	0.000686
215.7900	-0.000351
215.9953	0.000030
216.2007	0.001806
216.4060	-0.000858
216.6114	0.001764
216.8168	-0.001197
217.0222	0.000432
217.2276	-0.000245
217.4330	0.000157
217.6384	0.000643
217.8439	0.001024
218.0494	0.000178
218.2548	0.000220
218.4603	-0.000414
218.6659	0.000982
218.8714	0.002864
219.0769	0.000664
219.2825	-0.000562
219.4881	0.000580
219.6936	0.000686
219.8992	0.000707
220.1049	-0.002064
220.3105	-0.000076
220.5161	0.000157
220.7218	-0.000435
220.9275	-0.000118
221.1332	0.000580
221.3389	-0.000541
221.5446	0.000220
221.7503	0.000389
221.9561	0.000305
222.1618	0.000305
222.3676	-0.000541
222.5734	-0.000266
222.7792	0.000051
222.9850	0.000960
223.1909	-0.001408
223.3967	0.000982
223.6026	0.000389
223.8085	0.000389
224.0144	0.000220
224.2203	0.000157
224.4262	0.000093
224.6322	-0.000752
224.8381	-0.000033
225.0441	-0.000604
225.2501	0.000537
225.4561	-0.001768
225.6621	0.002314
225.8681	0.000051
226.0742	0.000284
226.2802	-0.001556
226.4863	0.000093
226.6924	0.000834
226.8985	0.000643
227.1046	-0.001239
227.3107	0.000072
227.5169	-0.000372
227.7230	0.000770
227.9292	0.000601
228.1354	0.001997
228.3416	0.000136
228.5478	0.001257
228.7541	0.001383
228.9603	0.001003
229.1666	-0.000520
229.3729	-0.000372
229.5791	0.000009
229.7855	-0.000837
229.9918	0.000305
230.1981	-0.001429
230.4045	0.000580
230.6108	0.000178
230.8172	-0.000287
231.0236	-0.000752
231.2300	-0.000076
231.4364	-0.001535
231.6429	0.000643
231.8493	0.001045
232.0558	-0.002339
232.2623	-0.000414
232.4688	0.000051
232.6753	0.000664
232.8818	0.000178
233.0884	0.001214
233.2949	0.000516
233.5015	0.001764
233.7081	0.000241
233.9147	-0.000393
234.1213	0.000389
234.3279	0.000263
234.5346	0.000030
234.7413	0.000347
234.9479	-0.000351
235.1546	0.000136
235.3613	0.000643
235.5680	0.000284
235.7748	0.001066
235.9815	0.000263
236.1883	0.000728
236.3951	0.002821
236.6018	0.000284
236.8087	0.001806
237.0155	0.000495
237.2223	-0.001937
237.4292	-0.001979
237.6360	-0.000541
237.8429	0.000051
238.0498	0.000622
238.2567	0.000305
238.4636	0.002102
238.6706	0.000220
238.8775	0.002018
239.0845	0.000157
239.2915	0.001701
239.4985	-0.001408
239.7055	0.000051
239.9125	0.000411
240.1195	0.000939
240.3266	0.000093
240.5337	0.000051
240.7407	0.001383
240.9478	0.000770
241.1549	-0.002275
241.3621	0.002969
241.5692	0.000812
241.7764	-0.000330
241.9835	0.000072
242.1907	-0.000287
242.3979	-0.001873
242.6051	0.000474
242.8124	-0.000224
243.0196	0.000707
243.2269	-0.000435
243.4341	0.000855
243.6414	-0.000456
243.8487	0.001510
244.0560	-0.000816
244.2634	0.000516
244.4707	-0.000139
244.6781	-0.000308
244.8854	0.000220
245.0928	-0.001662
245.3002	-0.001577
245.5076	0.000601
245.7151	0.000178
245.9225	0.000749
246.1300	0.000516
246.3375	0.000051
246.5449	-0.001366
246.7524	0.001405
246.9600	0.000939
247.1675	-0.000985
247.3750	0.000601
247.5826	0.001637
247.7902	-0.001387
247.9978	-0.000139
248.2054	-0.001535
248.4130	0.000580
248.6206	-0.001112
248.8283	-0.000689
249.0359	0.001383
249.2436	0.000305
249.4513	-0.000372
249.6590	0.000855
249.8667	-0.000160
250.0745	0.001510
250.2822	-0.000139
250.4900	-0.001641
250.6978	-0.000414
250.9056	-0.000689
251.1134	0.000284
251.3212	0.001489
251.5290	-0.000308
251.7369	0.000157
251.9447	0.000897
252.1526	0.000432
252.3605	-0.000160
252.5684	0.000093
252.7763	-0.000224
252.9843	0.000939
253.1922	-0.000351
253.4002	0.001003
253.6082	-0.001810
253.8162	0.000728
254.0242	0.000051
254.2322	0.000178
254.4402	-0.000583
254.6483	0.000960
254.8564	-0.001197
255.0644	0.000601
255.2725	0.000009
255.4806	-0.000795
255.6888	-0.001450
255.8969	0.001087
256.1051	-0.000330
256.3132	0.000305
256.5214	0.000749
256.7296	-0.000583
256.9378	0.000305
257.1460	0.002060
257.3543	0.000030
257.5625	0.000305
257.7708	-0.000837
257.9791	-0.001027
258.1874	0.000707
258.3957	-0.000541
258.6040	-0.000689
258.8124	0.001510
259.0207	0.000263
259.2291	-0.000478
259.4375	-0.000456
259.6459	-0.002064
259.8543	0.000834
260.0627	0.000389
260.2711	-0.000372
260.4796	-0.000203
260.6881	0.000791
260.8965	-0.000731
261.1050	0.000072
261.3135	-0.000478
261.5221	0.000791
261.7306	0.001489
261.9392	0.000580
262.1477	0.000876
262.3563	0.000622
262.5649	-0.001323
262.7735	-0.000224
262.9822	0.001087
263.1908	-0.000604
263.3995	0.001257
263.6081	-0.001133
263.8168	-0.000668
264.0255	0.000305
264.2342	0.002187
264.4429	-0.000604
264.6517	0.000495
264.8604	0.001108
265.0692	-0.000118
265.2780	-0.001006
265.4868	0.000093
265.6956	-0.000837
265.9044	0.002546
266.1133	-0.000795
266.3221	-0.000055
266.5310	0.000178
266.7399	0.000474
266.9488	0.001087
267.1577	-0.000012
267.3666	0.000474
267.5755	-0.000668
267.7845	-0.000478
267.9935	0.001045
268.2024	-0.000901
268.4114	0.000263
268.6205	-0.002233
268.8295	-0.000160
269.0385	-0.001514
269.2476	0.001637
269.4566	0.000389
269.6657	0.001870
269.8748	0.000093
270.0839	0.000241
270.2931	0.000284
270.5022	-0.000837
270.7114	0.000939
270.9205	0.000559
271.1297	-0.000520
271.3389	0.000622
271.5481	-0.001070
271.7573	-0.000478
271.9666	-0.001133
272.1758	-0.000266
272.3851	-0.001450
272.5944	-0.001471
272.8037	-0.001006
273.0130	-0.001704
273.2223	0.000791
273.4316	-0.001831
273.6410	-0.001006
273.8504	0.000495
274.0597	0.000220
274.2691	0.000093
274.4785	-0.000266
274.6880	-0.000689
274.8974	-0.001175
275.1069	0.000389
275.3163	-0.001810
275.5258	-0.000160
275.7353	-0.000795
275.9448	0.000263
276.1543	-0.000795
276.3639	0.000157
276.5734	-0.000266
276.7830	-0.001366
276.9926	0.000305
277.2022	0.001320
277.4118	-0.001345
277.6214	-0.000055
277.8310	-0.001070
278.0407	0.000749
278.2503	-0.001281
278.4600	0.000537
278.6697	0.000707
278.8794	0.002293
279.0891	-0.000604
279.2989	0.001405
279.5086	-0.000668
279.7184	-0.000668
279.9281	-0.001704
280.1379	0.000580
280.3477	-0.000879
280.5576	-0.000435
280.7674	0.000537
280.9772	0.001299
281.1871	-0.001070
281.3970	-0.000245
281.6069	0.001785
281.8168	0.000432
282.0267	-0.002698
282.2366	-0.000499
282.4466	0.000897
282.6565	0.001870
282.8665	-0.000456
283.0765	0.000601
283.2865	0.000495
283.4965	0.000537
283.7065	0.000643
283.9166	-0.000626
284.1266	-0.001218
284.3367	-0.000626
284.5468	-0.000731
284.7569	0.000347
284.9670	-0.000922
285.1771	0.001679
285.3873	0.002356
285.5974	-0.000668
285.8076	0.000220
286.0178	0.000749
286.2280	-0.000668
286.4382	0.001426
286.6484	-0.000922
286.8587	0.002293
287.0689	0.000389
287.2792	0.002631
287.4895	0.000009
287.6998	0.000199
287.9101	-0.000520
288.1204	-0.000012
288.3308	-0.000774
288.5411	0.000389
288.7515	-0.001239
288.9619	0.000199
289.1723	-0.000118
289.3827	0.001320
289.5931	0.001320
289.8035	-0.000203
290.0140	0.000009
290.2245	-0.000668
290.4349	-0.001218
290.6454	0.000559
290.8559	-0.000837
291.0665	0.000559
291.2770	-0.001260
291.4875	0.001087
291.6981	-0.001006
291.9087	0.001003
292.1193	-0.000414
292.3299	0.000580
292.5405	0.000770
292.7511	0.000664
292.9618	0.000728
293.1724	0.000580
293.3831	0.000432
293.5938	0.000009
293.8045	0.000178
294.0152	0.001383
294.2260	0.000474
294.4367	0.000368
294.6475	-0.000901
294.8582	0.000622
295.0690	-0.001704
295.2798	0.000389
295.4906	-0.000033
295.7015	-0.002635
295.9123	-0.000647
296.1232	-0.000456
296.3340	-0.000774
296.5449	-0.000626
296.7558	-0.001366
296.9667	0.000855
297.1777	0.000157
297.3886	0.000030
297.5995	0.000897
297.8105	0.001257
298.0215	0.001489
298.2325	-0.000266
298.4435	-0.000203
298.6545	-0.000499
298.8656	-0.000012
299.0766	0.000368
299.2877	-0.000858
299.4988	0.000453
299.7099	0.000389
299.9210	0.001574
300.1321	0.002229
300.3432	-0.001408
300.5544	0.001722
300.7655	-0.000076
300.9767	0.000855
301.1879	-0.000076
301.3991	-0.001387
301.6103	0.000537
301.8215	0.000601
302.0328	0.002546
302.2441	-0.000731
302.4553	-0.000520
302.6666	0.000897
302.8779	-0.001345
303.0892	-0.001112
303.3006	0.000030
303.5119	-0.001006
303.7233	0.000939
303.9346	-0.000414
304.1460	-0.000182
304.3574	-0.000499
304.5688	-0.000393
304.7803	-0.000583
304.9917	0.001743
305.2031	0.000664
305.4146	0.001489
305.6261	0.000093
305.8376	-0.000033
306.0491	0.000876
306.2606	-0.001831
306.4722	-0.001239
306.6837	0.000770
306.8953	-0.001958
307.1069	-0.000224
307.3184	-0.000012
307.5301	0.000178
307.7417	-0.000901
307.9533	-0.000076
308.1650	-0.001239
308.3766	0.000982
308.5883	-0.000182
308.8000	0.000495
309.0117	0.001024
309.2234	0.000812
309.4351	-0.000266
309.6469	0.001489
309.8586	-0.000478
310.0704	0.001257
310.2822	-0.000816
310.4940	0.000537
310.7058	0.000284
310.9176	-0.001260
311.1295	0.001405
311.3413	-0.000033
311.5532	-0.000245
311.7651	0.000199
311.9770	0.000770
312.1889	0.000664
312.4008	-0.001133
312.6127	0.000516
312.8247	-0.000837
313.0366	-0.000922
313.2486	-0.000160
313.4606	-0.000816
313.6726	0.000453
313.8846	0.000982
314.0967	-0.000710
314.3087	-0.000308
314.5208	0.000474
314.7328	0.000051
314.9449	-0.001197
315.1570	-0.000626
315.3692	0.000897
315.5813	0.000664
315.7934	-0.000182
316.0056	-0.000330
316.2177	-0.001514
316.4299	0.001405
316.6421	-0.000245
316.8543	0.001870
317.0666	-0.000308
317.2788	0.000812
317.4911	-0.002127
317.7033	0.000093
317.9156	0.000876
318.1279	0.000411
318.3402	-0.000795
318.5525	-0.001408
318.7649	-0.001471
318.9772	-0.000520
319.1896	0.000347
319.4019	0.000686
319.6143	0.001870
319.8267	0.000791
320.0392	-0.001768
320.2516	-0.000562
320.4640	-0.000562
320.6765	-0.000456
320.8890	0.000093
321.1014	-0.000118
321.3139	-0.000879
321.5265	0.002631
321.7390	0.000389
321.9515	0.002335
322.1641	0.000495
322.3766	-0.000435
322.5892	-0.000287
322.8018	0.001299
323.0144	0.001003
323.2270	-0.000414
323.4397	-0.000266
323.6523	-0.000520
323.8650	0.000939
324.0777	-0.001197
324.2904	-0.000964
324.5031	0.000136
324.7158	0.000305
324.9285	0.000474
325.1412	-0.000033
325.3540	-0.000478
325.5668	-0.002592
325.7796	0.001341
325.9924	-0.000499
326.2052	-0.000816
326.4180	-0.001789
326.6308	0.000516
326.8437	-0.002106
327.0566	-0.000752
327.2694	0.001278
327.4823	0.000241
327.6952	0.001510
327.9082	-0.000541
328.1211	0.000115
328.3340	0.000686
328.5470	-0.000562
328.7600	0.000812
328.9730	-0.000689
329.1860	0.000939
329.3990	-0.000203
329.6120	-0.001197
329.8251	-0.000668
330.0381	-0.000160
330.2512	-0.000203
330.4643	0.001045
330.6774	0.000939
330.8905	-0.000816
331.1036	0.000115
331.3167	0.000326
331.5299	-0.001471
331.7431	0.000030
331.9562	-0.000033
332.1694	-0.000985
332.3826	0.000432
332.5959	0.000093
332.8091	0.001003
333.0223	0.000347
333.2356	-0.000287
333.4489	-0.001027
333.6622	0.000453
333.8755	-0.000456
334.0888	-0.000541
334.3021	0.000389
334.5154	-0.000837
334.7288	0.000960
334.9422	0.000347
335.1555	-0.000583
335.3689	0.000707
335.5823	-0.000985
335.7958	-0.000076
336.0092	0.000030
336.2227	-0.000795
336.4361	-0.000752
336.6496	-0.001218
336.8631	0.001299
337.0766	-0.000901
337.2901	-0.000266
337.5036	-0.000901
337.7172	0.000812
337.9307	-0.000033
338.1443	-0.001112
338.3579	-0.000097
338.5715	0.001362
338.7851	-0.000795
338.9987	-0.000541
339.2124	-0.001789
339.4260	-0.000118
339.6397	0.000263
339.8533	0.000453
340.0670	0.000580
340.2807	-0.000456
340.4945	-0.000626
340.7082	0.000263
340.9219	-0.001620
341.1357	0.000982
341.3495	-0.001768
341.5633	-0.000626
341.7771	-0.000139
341.9909	0.001870
342.2047	-0.000922
342.4185	-0.000033
342.6324	-0.000414
342.8463	-0.000182
343.0601	0.000516
343.2740	0.001954
343.4879	0.002039
343.7019	-0.000752
343.9158	0.000009
344.1297	0.000453
344.3437	-0.000287
344.5577	0.000791
344.7717	-0.000943
344.9857	0.002208
345.1997	-0.000139
345.4137	0.000432
345.6277	-0.000626
345.8418	-0.000372
346.0559	0.000643
346.2699	-0.000774
346.4840	0.000347
346.6981	-0.001091
346.9123	-0.000879
347.1264	-0.000012
347.3406	-0.000393
347.5547	0.001574
347.7689	-0.000435
347.9831	0.000876
348.1973	0.001172
348.4115	0.000918
348.6257	-0.001281
348.8400	0.000115
349.0542	-0.000795
349.2685	-0.001471
349.4828	0.000009
349.6971	0.000918
349.9114	-0.001514
350.1257	0.001024
350.3400	0.001764
350.5544	0.001891
350.7687	-0.000626
350.9831	-0.000245
351.1975	0.000453
351.4119	-0.000266
351.6263	-0.000076
351.8407	-0.000478
352.0552	0.000072
352.2696	-0.000774
352.4841	-0.000456
352.6986	-0.000055
352.9131	0.001574
353.1276	0.001066
353.3421	0.000009
353.5566	0.000030
353.7712	-0.000626
353.9858	0.002039
354.2003	0.001658
354.4149	-0.000837
354.6295	0.000939
354.8441	0.000982
355.0588	0.000474
355.2734	-0.000182
355.4881	0.000136
355.7027	0.001764
355.9174	0.000622
356.1321	-0.000478
356.3468	-0.000266
356.5615	0.001362
356.7763	0.000284
356.9910	0.000284
357.2058	0.000093
357.4206	-0.000097
357.6353	-0.001302
357.8501	0.001024
358.0650	0.000389
358.2798	0.000220
358.4946	-0.000203
358.7095	-0.000351
358.9243	-0.000118
359.1392	0.000199
359.3541	-0.000985
359.5690	-0.001006
359.7839	-0.000055
359.9989	0.000495
360.2138	0.000072
360.4288	-0.000795
360.6438	-0.001006
360.8587	0.000749
361.0737	-0.000456
361.2888	0.001151
361.5038	0.001849
361.7188	0.001447
361.9339	0.000749
362.1489	0.000664
362.3640	-0.000456
362.5791	0.001172
362.7942	-0.000224
363.0093	0.001066
363.2245	-0.000118
363.4396	0.000537
363.6548	0.000072
363.8699	0.001257
364.0851	0.000770
364.3003	0.001003
364.5155	0.000284
364.7308	0.001045
364.9460	0.000093
365.1612	-0.000795
365.3765	0.001405
365.5918	-0.000816
365.8071	-0.000372
366.0224	0.001447
366.2377	-0.001260
366.4530	0.000009
366.6684	-0.000097
366.8837	-0.000689
367.0991	0.000791
367.3145	0.000834
367.5299	-0.000033
367.7453	-0.001429
367.9607	-0.001049
368.1761	0.000812
368.3916	0.000009
368.6070	0.001595
368.8225	0.000093
369.0380	-0.000499
369.2535	0.000051
369.4690	-0.000456
369.6845	-0.000901
369.9001	0.001933
370.1156	-0.000583
370.3312	-0.000245
370.5468	-0.000478
370.7624	-0.001175
370.9780	0.000622
371.1936	0.001130
371.4092	-0.001302
371.6249	0.000622
371.8405	0.000749
372.0562	-0.001493
372.2719	-0.001175
372.4876	-0.000182
372.7033	-0.000626
372.9190	0.000939
373.1348	0.000622
373.3505	0.001235
373.5663	-0.000330
373.7820	-0.000055
373.9978	-0.001598
374.2136	-0.000351
374.4294	-0.001514
374.6453	0.000220
374.8611	-0.002127
375.0770	0.000960
375.2928	-0.000985
375.5087	0.000009
375.7246	0.000284
375.9405	-0.002508
376.1564	0.001489
376.3724	0.000432
376.5883	-0.000287
376.8043	-0.000943
377.0203	-0.000795
377.2362	0.000453
377.4522	0.000749
377.6682	0.000072
377.8843	0.001108
378.1003	-0.000668
378.3164	-0.000647
378.5324	-0.000118
378.7485	0.000897
378.9646	0.000432
379.1807	-0.000837
379.3968	-0.001450
379.6129	0.000241
379.8291	-0.000393
380.0452	-0.000837
380.2614	0.000115
380.4776	-0.002042
380.6938	0.000982
380.9100	0.001637
381.1262	-0.000731
381.3424	0.001151
381.5587	0.001405
381.7749	0.001003
381.9912	0.000728
382.2075	0.001130
382.4238	0.000982
382.6401	-0.000182
382.8564	0.000537
383.0728	0.000199
383.2891	0.000834
383.5055	-0.000689
383.7219	0.001320
383.9382	-0.000752
384.1546	0.000897
384.3711	-0.000689
384.5875	0.000453
384.8039	-0.000033
385.0204	0.001108
385.2368	-0.000224
385.4533	-0.000139
385.6698	-0.000795
385.8863	0.000241
386.1028	-0.001641
386.3194	0.001870
386.5359	0.000918
386.7525	-0.000816
386.9690	-0.000182
387.1856	0.000495
387.4022	-0.000160
387.6188	0.002229
387.8355	-0.000562
388.0521	-0.000626
388.2687	-0.000752
388.4854	0.000516
388.7021	-0.000182
388.9188	-0.000203
389.1355	0.001785
389.3522	-0.000287
389.5689	-0.001302
389.7856	-0.000203
390.0024	-0.000626
390.2192	-0.001091
390.4359	-0.001218
390.6527	-0.000076
390.8695	-0.000118
391.0863	-0.001091
391.3032	-0.000287
391.5200	-0.000710
391.7369	-0.000541
391.9537	0.000453
392.1706	-0.000774
392.3875	0.000030
392.6044	-0.000330
392.8213	0.001045
393.0383	0.000326
393.2552	0.001278
393.4722	-0.000012
393.6891	0.000791
393.9061	-0.000901
394.1231	-0.001133
394.3401	-0.000308
394.5572	-0.000033
394.7742	0.000368
394.9912	0.000368
395.2083	-0.001683
395.4254	-0.000456
395.6425	-0.000604
395.8596	-0.000266
396.0767	-0.000922
396.2938	0.000834
396.5109	0.000897
396.7281	-0.001514
396.9453	-0.000182
397.1624	0.000284
397.3796	-0.002296
397.5968	0.000664
397.8140	0.000263
398.0313	0.000389
398.2485	-0.001387
398.4658	0.000389
398.6830	0.000537
398.9003	-0.000858
399.1176	-0.000351
399.3349	0.001066
399.5522	-0.001175
399.7696	-0.000372
399.9869	0.000432
400.2043	0.000707
400.4216	-0.000541
400.6390	0.001933
400.8564	0.000220
401.0738	-0.000456
401.2912	-0.000372
401.5087	0.002081
401.7261	0.001003
401.9436	0.001193
402.1610	-0.001345
402.3785	-0.000414
402.5960	0.000411
402.8135	-0.001387
403.0310	-0.000478
403.2486	-0.001197
403.4661	-0.001641
403.6837	-0.001175
403.9013	0.000009
404.1189	0.001257
404.3365	-0.000033
404.5541	-0.000160
404.7717	-0.001218
404.9893	-0.000626
405.2070	-0.001239
405.4246	0.000516
405.6423	-0.000562
405.8600	-0.001197
406.0777	0.000326
406.2954	0.000178
406.5131	-0.001471
406.7309	0.000136
406.9486	-0.001091
407.1664	0.000897
407.3842	-0.000541
407.6020	0.000432
407.8198	-0.001197
408.0376	-0.000012
408.2554	-0.000816
408.4733	-0.001006
408.6911	0.000622
408.9090	0.001574
409.1269	0.000115
409.3448	0.000707
409.5627	-0.001514
409.7806	0.000432
409.9985	-0.001239
410.2165	0.000136
410.4344	-0.000055
410.6524	-0.000393
410.8704	-0.000943
411.0884	0.001510
411.3064	-0.000372
411.5244	-0.000435
411.7424	-0.000456
411.9605	0.000178
412.1785	-0.001873
412.3966	-0.001260
412.6147	0.000072
412.8328	0.001658
413.0509	0.000812
413.2690	0.000368
413.4871	-0.000752
413.7053	-0.001154
413.9234	0.000326
414.1416	0.000263
414.3598	-0.000456
414.5780	0.000474
414.7962	0.000093
415.0144	-0.000139
415.2326	0.000284
415.4509	0.001362
415.6692	-0.000626
415.8874	-0.001577
416.1057	-0.000076
416.3240	0.000051
416.5423	0.000432
416.7606	-0.000985
416.9790	-0.000372
417.1973	0.000157
417.4157	0.001024
417.6341	-0.000435
417.8524	0.000072
418.0708	0.000643
418.2893	0.001108
418.5077	-0.000012
418.7261	0.000812
418.9446	0.000601
419.1630	-0.002296
419.3815	-0.000520
419.6000	-0.001006
419.8185	-0.000435
420.0370	-0.001450
420.2555	-0.000266
420.4741	-0.000499
420.6926	0.000326
420.9112	0.000897
421.1298	0.000516
421.3483	-0.001323
421.5669	0.002124
421.7856	-0.000689
422.0042	-0.000964
422.2228	-0.002021
422.4415	-0.000393
422.6601	0.001341
422.8788	0.000537
423.0975	-0.000266
423.3162	-0.000456
423.5349	-0.001197
423.7536	-0.000287
423.9724	-0.000710
424.1911	-0.001197
424.4099	-0.001366
424.6287	0.001108
424.8475	-0.001091
425.0663	-0.000668
425.2851	-0.000182
425.5039	0.001151
425.7228	0.007262
425.9416	0.001743
426.1605	0.001235
426.3793	0.000136
426.5982	0.000051
426.8171	0.000601
427.0361	-0.001091
427.2550	-0.000097
427.4739	-0.002021
427.6929	0.000093
427.9118	-0.000372
428.1308	0.000347
428.3498	0.001426
428.5688	-0.002529
428.7878	0.000643
429.0068	0.001531
429.2259	0.000051
429.4449	0.001257
429.6640	0.000474
429.8831	-0.000372
430.1022	-0.001112
430.3213	0.000051
430.5404	-0.001218
430.7595	0.000326
430.9787	-0.000287
431.1978	0.000389
431.4170	0.001278
431.6362	0.000855
431.8553	-0.001514
432.0745	-0.000456
432.2938	0.000749
432.5130	-0.001302
432.7322	-0.000964
432.9515	-0.001789
433.1707	0.000516
433.3900	-0.000520
433.6093	0.000368
433.8286	-0.000435
434.0479	0.000432
434.2673	0.000009
434.4866	-0.000372
434.7059	-0.000562
434.9253	-0.000160
435.1447	-0.001239
435.3641	-0.001218
435.5835	0.000072
435.8029	-0.001641
436.0223	0.002229
436.2418	-0.000203
436.4612	0.000115
436.6807	-0.000710
436.9001	-0.000731
437.1196	-0.001281
437.3391	-0.000076
437.5586	0.000157
437.7782	0.001003
437.9977	0.000876
438.2173	0.000876
438.4368	0.000368
438.6564	0.000136
438.8760	-0.000541
439.0956	0.000643
439.3152	-0.000055
439.5348	-0.000287
439.7545	-0.000414
439.9741	0.001193
440.1938	0.000072
440.4135	0.000411
440.6331	-0.000182
440.8528	0.002250
441.0725	0.001489
441.2923	0.001827
441.5120	0.000918
441.7318	-0.000604
441.9515	0.001172
442.1713	-0.000076
442.3911	-0.001133
442.6109	-0.000287
442.8307	-0.000203
443.0505	-0.000668
443.2703	0.000389
443.4902	0.001151
443.7101	-0.000393
443.9299	-0.001514
444.1498	-0.000647
444.3697	-0.000351
444.5896	-0.000478
444.8095	0.001320
445.0295	0.001827
445.2494	-0.000012
445.4694	-0.000351
445.6894	0.000897
445.9093	0.000178
446.1293	0.000009
446.3493	-0.000012
446.5694	0.004281
446.7894	0.000516
447.0094	-0.000139
447.2295	-0.001704
447.4496	0.001489
447.6696	0.000305
447.8897	0.001426
448.1098	-0.001175
448.3300	0.001954
448.5501	-0.000182
448.7702	0.001679
448.9904	0.000728
449.2106	-0.000287
449.4307	-0.001620
449.6509	-0.001535
449.8711	-0.000393
450.0914	-0.000985
450.3116	-0.000393
450.5318	0.001108
450.7521	0.000220
450.9724	-0.001958
451.1926	-0.000076
451.4129	0.000411
451.6332	0.001489
451.8535	0.000474
452.0739	-0.001366
452.2942	-0.000774
452.5146	-0.000287
452.7349	-0.000118
452.9553	-0.001049
453.1757	0.000030
453.3961	0.000516
453.6165	-0.000710
453.8369	0.000009
454.0574	0.000009
454.2778	-0.000478
454.4983	0.001108
454.7188	-0.000287
454.9393	-0.000203
455.1597	-0.000879
455.3803	0.001912
455.6008	-0.000330
455.8213	-0.000330
456.0419	0.000305
456.2624	-0.000055
456.4830	0.000368
456.7036	0.001257
456.9242	-0.001471
457.1448	-0.000583
457.3654	0.000537
457.5860	0.001912
457.8067	0.001172
458.0274	-0.000330
458.2480	0.000960
458.4687	0.000432
458.6894	-0.000245
458.9101	0.000791
459.1308	-0.001768
459.3516	0.001299
459.5723	-0.000583
459.7931	-0.000858
460.0138	-0.000097
460.2346	-0.000795
460.4554	0.000897
460.6762	0.001531
460.8970	-0.000478
461.1178	0.000622
461.3387	0.000643
461.5595	-0.000097
461.7804	-0.000774
462.0013	0.001172
462.2222	0.000812
462.4431	-0.000118
462.6640	0.000982
462.8849	0.000601
463.1059	0.000791
463.3268	-0.000203
463.5478	0.000347
463.7687	-0.001366
463.9897	-0.000351
464.2107	-0.001746
464.4317	-0.001027
464.6528	-0.001810
464.8738	-0.000224
465.0948	0.000411
465.3159	0.000220
465.5370	-0.000139
465.7581	0.001045
465.9792	-0.000372
466.2003	-0.001006
466.4214	-0.000964
466.6425	0.002568
466.8637	-0.001450
467.0848	-0.000330
467.3060	-0.000752
467.5272	-0.000160
467.7484	-0.001049
467.9696	-0.000795
468.1908	-0.001535
468.4120	-0.000583
468.6333	0.001151
468.8545	0.000918
469.0758	-0.000203
469.2970	-0.001493
469.5183	0.000305
469.7396	0.001637
469.9610	0.000411
470.1823	-0.000393
470.4036	-0.000118
470.6250	0.000770
470.8463	-0.002021
471.0677	0.001658
471.2891	0.000812
471.5105	-0.000499
471.7319	0.001235
471.9533	0.000622
472.1748	0.000664
472.3962	0.000389
472.6177	-0.001725
472.8391	-0.000668
473.0606	-0.002423
473.2821	-0.000435
473.5036	0.000664
473.7251	-0.000752
473.9467	0.000368
474.1682	0.000876
474.3898	-0.001471
474.6113	-0.000139
474.8329	0.000897
475.0545	-0.000182
475.2761	0.001468
475.4977	-0.000224
475.7193	-0.000012
475.9410	-0.001704
476.1626	-0.001049
476.3843	-0.000731
476.6060	0.002673
476.8277	-0.000287
477.0494	-0.000308
477.2711	-0.001006
477.4928	0.006882
477.7145	-0.000795
477.9363	-0.001873
478.1580	-0.001091
478.3798	-0.001535
478.6016	-0.000689
478.8234	-0.001133
479.0452	-0.000435
479.2670	-0.000139
479.4888	-0.000499
479.7107	0.000136
479.9325	-0.000287
480.1544	-0.000647
480.3763	0.000178
480.5982	0.000495
480.8201	0.001108
481.0420	0.002525
481.2639	-0.000520
481.4859	-0.000330
481.7078	0.000284
481.9298	-0.000731
482.1517	-0.000604
482.3737	-0.001197
482.5957	-0.000414
482.8177	-0.000689
483.0398	-0.000245
483.2618	0.000707
483.4838	-0.001493
483.7059	0.000389
483.9280	0.000432
484.1501	0.000559
484.3721	-0.000287
484.5943	-0.000393
484.8164	0.000537
485.0385	0.000855
485.2606	0.000389
485.4828	-0.000435
485.7050	-0.000435
485.9271	0.000072
486.1493	-0.000478
486.3715	0.000897
486.5937	0.000749
486.8160	-0.000097
487.0382	-0.000858
487.2605	-0.000203
487.4827	0.002081
487.7050	0.002758
487.9273	0.000622
488.1496	-0.001789
488.3719	-0.000330
488.5942	0.001426
488.8165	0.000622
489.0389	-0.000562
489.2612	-0.000139
489.4836	-0.002064
489.7060	0.001679
489.9284	-0.000879
490.1508	-0.000943
490.3732	-0.000203
490.5956	0.001362
490.8180	-0.001112
491.0405	0.000453
491.2630	0.000791
491.4854	-0.000541
491.7079	-0.000541
491.9304	-0.001577
492.1529	-0.001535
492.3755	0.000072
492.5980	0.000072
492.8205	0.001341
493.0431	-0.000203
493.2657	0.000559
493.4882	0.000009
493.7108	-0.001049
493.9334	-0.001620
494.1561	-0.000499
494.3787	-0.000879
494.6013	0.000643
494.8240	0.000326
495.0466	-0.000266
495.2693	-0.000118
495.4920	-0.001260
495.7147	-0.000245
495.9374	0.000136
496.1601	-0.001958
496.3829	-0.001133
496.6056	-0.001894
496.8284	0.001045
497.0511	-0.000541
497.2739	-0.001366
497.4967	0.000580
497.7195	0.000368
497.9423	0.000432
498.1652	-0.000372
498.3880	0.000241
498.6109	0.000115
498.8337	0.000686
499.0566	0.001637
499.2795	-0.001535
499.5024	-0.000012
499.7253	-0.000520
499.9482	-0.000287
500.1712	0.000834
500.3941	0.000453
500.6171	-0.000182
500.8400	0.001933
501.0630	-0.000816
501.2860	-0.000076
501.5090	0.000093
501.7320	-0.000012
501.9551	0.000770
502.1781	0.001658
502.4012	-0.000710
502.6242	0.000939
502.8473	-0.000330
503.0704	-0.001620
503.2935	-0.001916
503.5166	0.000686
503.7397	-0.001514
503.9628	-0.000308
504.1860	0.000389
504.4092	0.001257
504.6323	-0.000816
504.8555	0.000812
505.0787	-0.000033
505.3019	-0.001577
505.5251	-0.000456
505.7483	0.000157
505.9716	0.000834
506.1948	-0.000816
506.4181	-0.000858
506.6414	-0.000541
506.8647	-0.000097
507.0880	-0.001366
507.3113	0.000622
507.5346	0.000326
507.7579	-0.002042
507.9813	-0.000964
508.2046	-0.000287
508.4280	0.001108
508.6514	-0.000118
508.8748	-0.001154
509.0982	0.000664
509.3216	0.000157
509.5450	0.000559
509.7685	0.000664
509.9919	-0.001175
510.2154	-0.000922
510.4388	0.000770
510.6623	-0.001197
510.8858	0.000601
511.1093	0.000178
511.3329	0.000918
511.5564	-0.000414
511.7799	-0.000499
512.0035	-0.001323
512.2270	0.000093
512.4506	0.000876
512.6742	-0.000901
512.8978	0.000368
513.1214	0.000474
513.3451	-0.000604
513.5687	-0.000668
513.7923	0.000622
514.0160	-0.000076
514.2397	0.000516
514.4634	-0.000499
514.6871	0.000812
514.9108	-0.000139
515.1345	0.000389
515.3582	0.000918
515.5819	0.000474
515.8057	0.002398
516.0295	-0.000012
516.2532	0.002293
516.4770	-0.000118
516.7008	-0.000499
516.9246	0.000389
517.1485	-0.000964
517.3723	0.001087
517.5961	-0.000393
517.8200	-0.000033
518.0439	-0.000858
518.2677	0.000009
518.4916	-0.000351
518.7155	-0.000182
518.9395	0.000009
519.1634	0.001658
519.3873	-0.000456
519.6113	-0.000118
519.8352	-0.000710
520.0592	0.002293
520.2832	0.001235
520.5072	-0.001197
520.7312	0.000368
520.9552	-0.000562
521.1792	-0.000372
521.4033	0.000982
521.6273	0.000474
521.8514	0.000918
522.0755	-0.000478
522.2996	-0.000097
522.5237	0.000305
522.7478	-0.001683
522.9719	-0.000351
523.1960	-0.002317
523.4202	0.001912
523.6443	-0.000943
523.8685	0.000241
524.0927	-0.000055
524.3169	-0.000943
524.5411	-0.000372
524.7653	-0.000245
524.9895	-0.001345
525.2138	-0.001345
525.4380	-0.000668
525.6623	0.000093
525.8865	0.000284
526.1108	-0.000372
526.3351	-0.002846
526.5594	-0.000139
526.7837	-0.001260
527.0081	0.000664
527.2324	0.001489
527.4568	-0.000118
527.6811	-0.000858
527.9055	-0.000879
528.1299	0.000241
528.3543	-0.000160
528.5787	-0.000097
528.8031	0.001066
529.0276	-0.000922
529.2520	-0.000033
529.4765	-0.000795
529.7009	0.000432
529.9254	-0.000943
530.1499	-0.000414
530.3744	-0.000795
530.5989	-0.000668
530.8234	-0.001514
531.0480	-0.001133
531.2725	0.000601
531.4971	0.001151
531.7217	-0.001197
531.9462	-0.000203
532.1708	-0.000647
532.3954	-0.000287
532.6200	0.000389
532.8447	-0.001366
533.0693	0.000389
533.2940	-0.000626
533.5186	-0.000541
533.7433	0.000030
533.9680	-0.000118
534.1927	0.000305
534.4174	0.000960
534.6421	0.000559
534.8668	-0.001302
535.0916	-0.000245
535.3163	-0.000435
535.5411	0.000834
535.7659	-0.001112
535.9907	0.001003
536.2155	-0.000033
536.4403	-0.001281
536.6651	-0.001408
536.8899	0.000812
537.1148	0.000411
537.3396	0.001362
537.5645	0.000136
537.7894	0.001658
538.0143	-0.001323
538.2392	-0.001768
538.4641	-0.001175
538.6890	-0.000456
538.9139	0.000199
539.1389	0.000178
539.3638	0.000093
539.5888	0.001024
539.8138	0.001574
540.0388	0.000686
540.2638	-0.000583
540.4888	-0.000160
540.7138	-0.000964
540.9389	0.001785
541.1639	-0.001387
541.3890	0.000939
541.6140	-0.000118
541.8391	-0.000456
542.0642	0.000263
542.2893	0.000199
542.5144	0.000305
542.7396	0.001553
542.9647	0.000199
543.1899	-0.001345
543.4150	0.000178
543.6402	0.000622
543.8654	0.001066
544.0906	0.000009
544.3158	0.000537
544.5410	-0.001154
544.7662	-0.001979
544.9915	-0.002042
545.2167	0.003646
545.4420	0.001827
545.6673	0.000876
545.8926	0.002145
546.1179	0.001489
546.3432	-0.000414
546.5685	-0.000752
546.7938	0.000115
547.0192	0.000305
547.2445	-0.000118
547.4699	0.001320
547.6953	0.001172
547.9206	0.000939
548.1460	-0.000858
548.3715	0.000157
548.5969	0.001045
548.8223	0.000474
549.0478	0.000305
549.2732	-0.000541
549.4987	-0.001387
549.7242	-0.000562
549.9496	-0.000245
550.1751	-0.000943
550.4007	-0.001852
550.6262	-0.001429
550.8517	0.000876
551.0773	-0.000351
551.3028	-0.000837
551.5284	0.000664
551.7540	0.004111
551.9796	-0.001471
552.2052	-0.000160
552.4308	-0.000541
552.6564	-0.001429
552.8820	-0.000901
553.1077	0.001003
553.3333	-0.000901
553.5590	0.000770
553.7847	0.000347
554.0104	0.001510
554.2361	0.001510
554.4618	-0.002106
554.6875	-0.000224
554.9132	0.000707
555.1390	-0.000478
555.3648	-0.000626
555.5905	-0.000330
555.8163	0.001320
556.0421	0.000495
556.2679	0.002293
556.4937	-0.000901
556.7195	0.001087
556.9454	-0.000203
557.1712	0.000580
557.3971	-0.001831
557.6230	-0.000245
557.8488	0.001701
558.0747	-0.000076
558.3006	0.000030
558.5266	-0.000076
558.7525	0.000093
558.9784	-0.000203
559.2044	-0.000203
559.4303	-0.000435
559.6563	0.002377
559.8823	0.000326
560.1083	-0.001725
560.3343	-0.000139
560.5603	0.000305
560.7863	0.000115
561.0124	-0.001493
561.2384	0.000389
561.4645	-0.000456
561.6905	-0.000858
561.9166	-0.000837
562.1427	0.001024
562.3688	-0.000351
562.5949	-0.000435
562.8211	-0.000266
563.0472	0.000664
563.2733	0.000897
563.4995	0.001024
563.7257	-0.001006
563.9519	0.000495
564.1781	-0.001091
564.4043	0.001193
564.6305	-0.001810
564.8567	0.000305
565.0829	-0.002296
565.3092	-0.000414
565.5355	-0.001070
565.7617	0.000982
565.9880	-0.001683
566.2143	0.000453
566.4406	0.001489
566.6669	0.000072
566.8932	-0.000160
567.1196	0.001278
567.3459	-0.001471
567.5723	0.001658
567.7987	0.000411
568.0250	-0.000097
568.2514	0.001045
568.4778	0.000178
568.7043	-0.000901
568.9307	0.001933
569.1571	-0.000012
569.3836	0.000136
569.6100	-0.000160
569.8365	0.001087
570.0630	0.001172
570.2895	0.001151
570.5160	0.001066
570.7425	-0.000118
570.9690	-0.000689
571.1956	0.000664
571.4221	-0.000943
571.6487	-0.000076
571.8752	0.000030
572.1018	-0.000372
572.3284	-0.001345
572.5550	-0.000203
572.7816	0.000051
573.0082	-0.000203
573.2349	0.000559
573.4615	0.002039
573.6882	-0.000351
573.9149	0.000474
574.1415	-0.000562
574.3682	-0.001049
574.5949	0.000051
574.8216	-0.000203
575.0484	0.000707
575.2751	-0.000668
575.5018	0.000918
575.7286	-0.000203
575.9554	-0.000774
576.1821	-0.000583
576.4089	0.000770
576.6357	-0.000541
576.8626	0.000284
577.0894	-0.000583
577.3162	0.001405
577.5431	-0.000922
577.7699	-0.000985
577.9968	-0.000816
578.2237	-0.000055
578.4505	0.000834
578.6774	0.000939
578.9044	0.000009
579.1313	-0.000160
579.3582	-0.000499
579.5851	-0.000372
579.8121	-0.001133
580.0391	0.000157
580.2660	-0.001408
580.4930	-0.000182
580.7200	-0.000837
580.9470	0.001151
581.1741	-0.000858
581.4011	-0.000245
581.6281	0.000834
581.8552	0.000263
582.0822	0.000136
582.3093	-0.000266
582.5364	-0.000604
582.7635	0.000559
582.9906	-0.001070
583.2177	-0.000203
583.4449	0.002229
583.6720	-0.000224
583.8991	0.000009
584.1263	-0.000858
584.3535	0.000263
584.5807	0.002229
584.8079	-0.001979
585.0351	-0.001366
585.2623	-0.001979
585.4895	-0.000308
585.7167	0.000516
585.9440	0.000389
586.1713	-0.000160
586.3985	-0.000689
586.6258	-0.000351
586.8531	0.001214
587.0804	0.000876
587.3077	0.002272
587.5350	-0.001746
587.7624	0.001151
587.9897	0.000707
588.2171	0.000220
588.4445	-0.001408
588.6718	-0.001175
588.8992	-0.000562
589.1266	-0.001514
589.3540	0.000178
589.5815	0.000030
589.8089	0.000559
590.0363	0.000347
590.2638	-0.000626
590.4913	0.000770
590.7187	0.001045
590.9462	0.001954
591.1737	-0.000012
591.4012	0.000474
591.6288	-0.001979
591.8563	0.000072
592.0838	-0.002212
592.3114	0.000939
592.5389	-0.000943
592.7665	-0.000224
592.9941	-0.000097
593.2217	0.000601
593.4493	-0.000901
593.6769	0.000051
593.9046	0.000178
594.1322	-0.000372
594.3598	0.000009
594.5875	-0.001027
594.8152	-0.000604
595.0429	0.000495
595.2705	-0.000858
595.4983	-0.000626
595.7260	-0.000118
595.9537	-0.000837
596.1814	-0.000520
596.4092	0.001362
596.6369	-0.001302
596.8647	-0.000097
597.0925	0.000263
597.3203	-0.000879
597.5481	-0.001958
597.7759	0.000516
598.0037	-0.000097
598.2315	-0.000033
598.4594	0.000136
598.6872	0.000220
598.9151	-0.001239
599.1430	-0.000203
599.3709	0.000136
599.5988	0.001024
599.8267	0.000051
600.0546	-0.001598
600.2825	-0.000689
600.5105	0.001362
600.7384	-0.001598
600.9664	-0.000879
601.1944	-0.000097
601.4223	-0.000033
601.6503	0.000686
601.8783	-0.001387
602.1064	0.000368
602.3344	0.000157
602.5624	-0.000435
602.7905	-0.001218
603.0185	-0.001091
603.2466	-0.000287
603.4747	-0.001302
603.7028	0.001024
603.9309	0.001299
604.1590	-0.000393
604.3871	-0.000879
604.6152	-0.000668
604.8434	-0.000752
605.0715	-0.000456
605.2997	-0.001873
605.5279	0.000241
605.7561	0.000728
605.9843	-0.000414
606.2125	-0.000541
606.4407	0.000453
606.6689	-0.000372
606.8972	0.001024
607.1254	0.000495
607.3537	0.001024
607.5819	0.000812
607.8102	-0.001154
608.0385	-0.002952
608.2668	-0.002064
608.4951	-0.000118
608.7235	0.000263
608.9518	-0.000647
609.1801	-0.000604
609.4085	0.000093
609.6369	-0.001049
609.8653	-0.001408
610.0936	-0.000964
610.3220	0.000284
610.5505	-0.000182
610.7789	-0.001197
611.0073	-0.001556
611.2357	-0.001154
611.4642	-0.000308
611.6927	0.000030
611.9211	0.000220
612.1496	0.000136
612.3781	0.001468
612.6066	-0.000752
612.8351	0.000897
613.0637	-0.000689
613.2922	-0.000372
613.5208	-0.000774
613.7493	0.001553
613.9779	-0.000583
614.2065	-0.001323
614.4351	0.000411
614.6637	-0.001197
614.8923	0.000115
615.1209	0.000918
615.3495	-0.001831
615.5782	0.000051
615.8068	-0.000562
616.0355	0.000939
616.2642	0.000432
616.4929	0.000537
616.7216	-0.000203
616.9503	-0.001556
617.1790	0.000812
617.4077	-0.000879
617.6365	-0.000774
617.8652	0.000305
618.0940	0.000030
618.3227	0.001658
618.5515	0.000305
618.7803	0.001405
619.0091	-0.002021
619.2379	0.001447
619.4667	-0.000224
619.6956	-0.000689
619.9244	-0.001027
620.1533	-0.000097
620.3821	0.001278
620.6110	-0.000266
620.8399	0.000812
621.0688	0.001299
621.2977	-0.001535
621.5266	-0.000414
621.7556	0.000368
621.9845	0.001024
622.2135	0.000051
622.4424	0.000834
622.6714	-0.000330
622.9004	0.000030
623.1294	-0.000626
623.3584	0.002229
623.5874	-0.001979
623.8164	0.000537
624.0454	0.002039
624.2745	-0.000203
624.5035	-0.000478
624.7326	-0.000731
624.9617	-0.000118
625.1908	-0.000182
625.4199	-0.000626
625.6490	-0.000393
625.8781	0.000051
626.1072	0.000030
626.3364	-0.000943
626.5655	0.000009
626.7947	-0.000858
627.0238	-0.000456
627.2530	0.000305
627.4822	0.000622
627.7114	-0.000139
627.9406	0.000664
628.1698	-0.000203
628.3991	-0.000583
628.6283	0.000157
628.8576	-0.002064
629.0868	-0.001535
629.3161	0.000749
629.5454	-0.000499
629.7747	0.000643
630.0040	0.002102
630.2333	-0.000287
630.4626	0.002969
630.6920	-0.000224
630.9213	-0.000393
631.1507	0.000220
631.3801	-0.001641
631.6094	0.001024
631.8388	0.000411
632.0682	0.000855
632.2976	-0.000456
632.5271	-0.000033
632.7565	-0.000245
632.9859	0.000220
633.2154	-0.001302
633.4448	-0.001091
633.6743	0.000199
633.9038	0.000897
634.1333	-0.001598
634.3628	-0.000118
634.5923	0.000305
634.8218	0.001426
635.0514	-0.000816
635.2809	-0.000182
635.5105	-0.000816
635.7400	0.000559
635.9696	-0.001006
636.1992	-0.000160
636.4288	-0.000964
636.6584	0.000707
636.8880	-0.000351
637.1177	-0.001133
637.3473	0.000326
637.5770	0.000389
637.8066	0.000834
638.0363	-0.002360
638.2660	0.000411
638.4957	0.000432
638.7254	-0.000604
638.9551	0.000770
639.1848	0.001130
639.4145	-0.000033
639.6443	0.000896
639.8740	0.000286
640.1038	0.000687
640.3336	-0.000700
640.5633	0.000393
640.7931	-0.000930
641.0229	-0.001253
641.2528	-0.000944
641.4826	0.000243
641.7124	-0.002013
641.9423	-0.001203
642.1721	-0.000972
642.4020	0.001201
642.6319	-0.001722
642.8617	-0.000519
643.0916	-0.000899
643.3216	-0.002370
643.5515	0.000855
643.7814	-0.000036
644.0113	0.000709
644.2413	0.000101
644.4712	0.001795
644.7012	0.001373
644.9312	-0.000794
645.1612	0.001200
645.3912	-0.000552
645.6212	0.000923
645.8512	0.000257
646.0812	0.000032
646.3113	-0.001085
646.5413	0.000764
646.7714	-0.001972
647.0015	0.000566
647.2316	-0.001832
647.4616	-0.000413
647.6918	-0.001038
647.9219	0.000098
648.1520	-0.000387
648.3821	0.000624
648.6123	-0.000695
648.8424	0.001101
649.0726	-0.000877
649.3028	0.000356
649.5329	-0.000441
649.7631	0.000094
649.9933	0.001286
650.2236	0.000852
650.4538	-0.001487
650.6840	0.000136
650.9143	0.000137
651.1445	0.000926
651.3748	0.000820
651.6051	0.001494
651.8354	-0.002672
652.0657	0.001201
652.2960	0.001449
652.5263	0.000159
652.7566	0.000779
652.9870	0.000607
653.2173	-0.000160
653.4477	-0.000289
653.6780	-0.001667
653.9084	0.000689
654.1388	0.001462
654.3692	0.001324
654.5996	-0.000718
654.8300	-0.000697
655.0605	-0.000248
655.2909	-0.000463
655.5213	-0.001047
655.7518	0.000203
655.9823	-0.000248
656.2128	0.001878
656.4433	-0.001971
656.6738	0.000200
656.9043	0.000159
657.1348	-0.001767
657.3653	0.000754
657.5959	0.000690
657.8264	-0.001577
658.0570	0.001401
658.2875	-0.000521
658.5181	0.000241
658.7487	-0.000118
658.9793	-0.000245
659.2099	-0.000843
659.4406	-0.002122
659.6712	-0.000249
659.9018	-0.000097
660.1325	-0.000204
660.3632	-0.000096
660.5938	-0.000942
660.8245	-0.000203
661.0552	-0.000245
661.2859	0.000878
661.5166	0.000220
661.7474	-0.000288
661.9781	-0.000437
662.2088	0.000708
662.4396	-0.000284
662.6704	0.000583
662.9011	-0.001499
663.1319	0.003931
663.3627	0.000009
663.5935	0.000953
663.8243	-0.000516
664.0552	0.001535
664.2860	-0.001467
664.5168	0.001847
664.7477	0.000598
664.9786	0.000241
665.2094	0.002387
665.4403	-0.000430
665.6712	-0.000348
665.9021	0.000990
666.1330	-0.000096
666.3640	0.001422
666.5949	-0.002507
666.8259	0.000684
667.0568	-0.000394
667.2878	-0.001084
667.5188	-0.000773
667.7497	0.001741
667.9807	0.002471
668.2117	0.001121
668.4428	-0.000055
668.6738	-0.001049
668.9048	0.000199
669.1359	-0.000182
669.3669	-0.000795
669.5980	0.000263
669.8291	0.000136
670.0602	0.001827
670.2913	-0.000837
670.5224	0.000516
670.7535	-0.000097
670.9846	0.003223
671.2157	0.001003
671.4469	-0.000626
671.6781	-0.000456
671.9092	0.002927
672.1404	0.000495
672.3716	0.000411
672.6028	-0.000372
672.8340	0.000157
673.0652	-0.000626
673.2964	-0.001323
673.5277	0.000157
673.7589	-0.000816
673.9902	-0.000774
674.2214	-0.001070
674.4527	0.000601
674.6840	0.001003
674.9153	0.001278
675.1466	-0.000710
675.3779	-0.001852
675.6093	0.000389
675.8406	0.000897
676.0719	0.000559
676.3033	-0.000879
676.5347	0.000178
676.7661	-0.000372
676.9974	-0.001768
677.2288	0.001066
677.4602	0.000178
677.6917	-0.000266
677.9231	-0.000647
678.1545	0.001870
678.3860	0.002483
678.6174	-0.001831
678.8489	-0.000499
679.0804	0.000284
679.3119	-0.000647
679.5434	-0.000689
679.7749	-0.000478
680.0064	-0.000626
680.2379	-0.000372
680.4694	-0.000626
680.7010	-0.001091
680.9325	-0.000943
681.1641	-0.000964
681.3957	0.000115
681.6273	0.000855
681.8589	-0.000372
682.0905	0.001510
682.3221	0.000453
682.5537	0.000220
682.7854	0.001701
683.0170	-0.000139
683.2487	0.001066
683.4803	-0.001471
683.7120	0.000220
683.9437	-0.000922
684.1754	-0.000308
684.4071	0.001087
684.6388	-0.000245
684.8705	0.000136
685.1023	-0.000710
685.3340	-0.001006
685.5658	-0.001366
685.7975	0.000093
686.0293	-0.000774
686.2611	-0.000393
686.4929	-0.000224
686.7247	-0.000118
686.9565	-0.000689
687.1883	0.000326
687.4202	0.000791
687.6520	-0.000858
687.8838	0.002081
688.1157	-0.000308
688.3476	-0.001070
688.5795	-0.001408
688.8114	0.000284
689.0433	0.001489
689.2752	-0.000287
689.5071	0.000093
689.7390	-0.002021
689.9710	0.000093
690.2029	0.001214
690.4349	-0.000837
690.6669	0.000093
690.8988	-0.000308
691.1308	0.000918
691.3628	-0.000097
691.5948	-0.001916
691.8269	0.002546
692.0589	-0.001027
692.2909	0.001616
692.5230	-0.001450
692.7550	0.000960
692.9871	0.000263
693.2192	-0.000520
693.4513	-0.000139
693.6834	-0.000752
693.9155	-0.001112
694.1476	0.000770
694.3797	-0.000837
694.6119	0.000178
694.8440	0.000157
695.0762	0.001658
695.3083	-0.001450
695.5405	-0.001154
695.7727	-0.000372
696.0049	0.000030
696.2371	0.000093
696.4693	0.001108
696.7016	-0.000604
696.9338	-0.001239
697.1660	0.000453
697.3983	-0.001514
697.6306	0.000389
697.8628	-0.000118
698.0951	0.000157
698.3274	0.000622
698.5597	-0.000097
698.7920	-0.001154
699.0243	0.006501
699.2567	0.002250
699.4890	-0.001577
699.7214	-0.000351
699.9537	-0.001577
700.1861	0.000664
700.4185	0.002208
700.6509	-0.001027
700.8833	0.001087
701.1157	-0.000985
701.3481	0.000728
701.5806	-0.000879
701.8130	0.000918
702.0454	0.000199
702.2779	-0.000351
702.5104	-0.002825
702.7429	0.000939
702.9753	0.000347
703.2078	-0.000816
703.4403	-0.001979
703.6729	0.001087
703.9054	0.000664
704.1379	0.000770
704.3705	0.000389
704.6030	0.000939
704.8356	0.002377
705.0682	-0.000330
705.3008	-0.000414
705.5334	0.001003
705.7660	0.000411
705.9986	0.001087
706.2312	-0.000626
706.4638	0.000960
706.6965	0.002250
706.9291	0.000284
707.1618	-0.000583
707.3945	0.001827
707.6272	-0.000562
707.8599	-0.000964
708.0926	-0.001408
708.3253	-0.001133
708.5580	0.000982
708.7907	-0.001175
709.0235	-0.000583
709.2562	0.000051
709.4890	0.001489
709.7217	0.000051
709.9545	-0.000731
710.1873	0.000389
710.4201	0.000263
710.6529	0.000601
710.8857	0.000643
711.1186	-0.000330
711.3514	0.001595
711.5842	-0.000012
711.8171	-0.000435
712.0500	0.002356
712.2828	-0.000351
712.5157	-0.000668
712.7486	0.001172
712.9815	0.000241
713.2144	-0.000689
713.4474	-0.000478
713.6803	-0.001387
713.9132	0.001701
714.1462	-0.001366
714.3791	-0.000816
714.6121	0.001172
714.8451	0.001193
715.0781	-0.000182
715.3111	-0.000499
715.5441	-0.001175
715.7771	0.001912
716.0102	-0.000626
716.2432	-0.000287
716.4762	-0.001641
716.7093	0.000199
716.9424	-0.001937
717.1754	-0.001049
717.4085	-0.000393
717.6416	0.000812
717.8747	0.000072
718.1078	-0.001683
718.3410	-0.000626
718.5741	-0.001218
718.8072	-0.000012
719.0404	-0.000710
719.2736	-0.000224
719.5067	0.000897
719.7399	-0.001620
719.9731	-0.001768
720.2063	-0.000266
720.4395	-0.000118
720.6727	0.000960
720.9060	0.002166
721.1392	-0.000901
721.3725	-0.000118
721.6057	0.001341
721.8390	-0.000943
722.0723	0.001806
722.3055	0.000812
722.5388	-0.001006
722.7721	0.000157
723.0055	0.000559
723.2388	0.002272
723.4721	-0.000224
723.7055	0.000389
723.9388	-0.000710
724.1722	-0.001345
724.4056	0.000009
724.6389	0.001785
724.8723	-0.001281
725.1057	0.000791
725.3391	0.001637
725.5726	0.000389
725.8060	-0.001556
726.0394	0.001849
726.2729	-0.000097
726.5063	0.000453
726.7398	0.000263
726.9733	-0.000266
727.2068	-0.000520
727.4403	-0.000520
727.6738	0.001130
727.9073	-0.000118
728.1408	0.000389
728.3743	0.001235
728.6079	-0.002296
728.8414	-0.000139
729.0750	-0.001556
729.3086	0.001003
729.5421	0.000220
729.7757	-0.000012
730.0093	0.000093
730.2429	-0.000160
730.4766	-0.001620
730.7102	0.001510
730.9438	-0.001429
731.1775	-0.001281
731.4111	-0.001197
731.6448	0.000580
731.8785	0.001743
732.1122	0.001806
732.3458	0.001341
732.5795	-0.000012
732.8133	-0.000499
733.0470	-0.000076
733.2807	-0.000943
733.5145	-0.000160
733.7482	-0.000837
733.9820	0.000918
734.2157	-0.000985
734.4495	-0.000710
734.6833	0.000982
734.9171	-0.000182
735.1509	0.000474
735.3847	-0.000668
735.6185	-0.000689
735.8524	0.000326
736.0862	-0.000456
736.3201	0.000453
736.5539	0.000389
736.7878	0.000537
737.0217	-0.000033
737.2556	-0.000330
737.4895	0.003287
737.7234	0.001447
737.9573	0.000897
738.1912	-0.000118
738.4252	0.000030
738.6591	0.000030
738.8931	-0.000076
739.1271	-0.000160
739.3610	0.000199
739.5950	-0.000033
739.8290	-0.000626
740.0630	-0.000012
740.2970	0.000474
740.5310	0.001257
740.7651	-0.001725
740.9991	0.001743
741.2332	-0.000203
741.4672	0.000834
741.7013	0.000284
741.9354	0.001066
742.1695	-0.000774
742.4036	0.000220
742.6377	0.001616
742.8718	0.001151
743.1059	-0.000033
743.3400	0.001257
743.5742	0.001426
743.8083	0.001024
744.0425	-0.000097
744.2767	-0.000964
744.5108	-0.000478
744.7450	0.000178
744.9792	-0.000012
745.2134	0.002673
745.4477	-0.000499
745.6819	-0.000879
745.9161	0.001235
746.1504	-0.000224
746.3846	0.001257
746.6189	0.001447
746.8532	-0.000245
747.0874	-0.001027
747.3217	-0.000604
747.5560	0.000178
747.7903	-0.000033
748.0247	0.001257
748.2590	-0.001471
748.4933	0.000115
748.7277	0.000241
748.9620	-0.000372
749.1964	0.001827
749.4308	0.000960
749.6652	-0.000985
749.8995	-0.000033
750.1339	-0.001070
750.3684	-0.000372
750.6028	0.000749
750.8372	0.000728
751.0717	0.000855
751.3061	-0.001154
751.5406	-0.000795
751.7750	0.000812
752.0095	-0.000604
752.2440	0.002208
752.4785	-0.001049
752.7130	0.000728
752.9475	0.000537
753.1820	0.000897
753.4166	0.000051
753.6511	-0.000308
753.8856	-0.000478
754.1202	0.000093
754.3548	0.000749
754.5894	-0.001049
754.8239	-0.000858
755.0585	-0.001789
755.2931	-0.000351
755.5278	-0.000668
755.7624	0.000812
755.9970	-0.000435
756.2317	-0.000562
756.4663	-0.000393
756.7010	-0.000033
756.9356	-0.000203
757.1703	-0.000774
757.4050	-0.001006
757.6397	0.000093
757.8744	0.000389
758.1091	0.000093
758.3438	0.001172
758.5786	0.000263
758.8133	0.000093
759.0481	0.001827
759.2828	-0.000266
759.5176	-0.000583
759.7524	0.000368
759.9872	-0.000118
760.2220	-0.000308
760.4568	0.000453
760.6916	0.000284
760.9264	0.001658
761.1613	0.000093
761.3961	-0.000604
761.6310	0.000136
761.8658	0.000728
762.1007	-0.000118
762.3356	0.000601
762.5705	0.002420
762.8054	-0.000287
763.0403	0.000389
763.2752	0.000326
763.5101	-0.000710
763.7450	0.000326
763.9800	0.000009
764.2149	0.000495
764.4499	0.000178
764.6849	0.001130
764.9198	-0.001027
765.1548	0.000749
765.3898	0.000495
765.6248	-0.000393
765.8599	-0.000604
766.0949	-0.000076
766.3299	-0.000414
766.5650	0.000812
766.8000	-0.001408
767.0351	-0.001302
767.2701	0.000199
767.5052	-0.000541
767.7403	-0.000351
767.9754	0.000305
768.2105	-0.000160
768.4456	0.001447
768.6808	0.000241
768.9159	0.000897
769.1510	-0.001366
769.3862	0.000728
769.6214	0.001235
769.8565	0.000516
770.0917	0.000411
770.3269	-0.000139
770.5621	0.000411
770.7973	-0.000076
771.0325	0.001066
771.2677	-0.000583
771.5030	-0.000456
771.7382	-0.000351
771.9735	-0.000203
772.2087	-0.000943
772.4440	-0.000774
772.6793	0.000115
772.9146	-0.000372
773.1499	-0.001493
773.3852	-0.001112
773.6205	-0.000583
773.8558	-0.001641
774.0911	0.001193
774.3265	0.000918
774.5618	0.001193
774.7972	-0.001810
775.0326	0.000051
775.2679	0.000241
775.5033	0.001849
775.7387	0.001320
775.9741	0.000009
776.2095	0.000093
776.4450	-0.000604
776.6804	0.000136
776.9158	-0.001873
777.1513	-0.000055
777.3868	-0.000330
777.6222	-0.001937
777.8577	0.001827
778.0932	-0.000795
778.3287	0.000664
778.5642	0.000707
778.7997	0.000474
779.0352	-0.001725
779.2707	-0.000266
779.5063	0.000643
779.7418	0.001172
779.9774	0.001722
780.2130	0.002102
780.4485	0.001045
780.6841	0.000686
780.9197	-0.000033
781.1553	-0.001260
781.3909	0.000474
781.6265	-0.000055
781.8622	0.001426
782.0978	-0.000710
782.3335	-0.001049
782.5691	-0.000943
782.8048	-0.000351
783.0405	-0.001091
783.2761	-0.001197
783.5118	0.000664
783.7475	0.000009
783.9832	0.000453
784.2190	0.000305
784.4547	0.000199
784.6904	0.000284
784.9262	0.000009
785.1619	-0.001260
785.3977	0.000686
785.6335	0.000537
785.8692	-0.001323
786.1050	0.000030
786.3408	0.000093
786.5766	0.000389
786.8124	0.001087
787.0483	-0.000943
787.2841	-0.000456
787.5199	-0.002127
787.7558	0.000728
787.9917	-0.001070
788.2275	0.001827
788.4634	-0.000372
788.6993	0.000009
788.9352	0.000834
789.1711	0.000855
789.4070	-0.000583
789.6429	0.001024
789.8789	0.000834
790.1148	0.000474
790.3507	-0.000012
790.5867	0.000537
790.8227	0.000411
791.0586	0.000389
791.2946	-0.001852
791.5306	-0.000964
791.7666	-0.000499
792.0026	0.000305
792.2387	0.001278
792.4747	-0.000139
792.7107	0.001172
792.9468	0.000178
793.1828	-0.001154
793.4189	0.000368
793.6550	-0.000097
793.8910	-0.000033
794.1271	-0.000097
794.3632	0.000537
794.5993	0.000136
794.8355	-0.001006
795.0716	0.000622
795.3077	0.000453
795.5439	0.000664
795.7800	0.000643
796.0162	0.000157
796.2523	-0.000478
796.4885	-0.000097
796.7247	-0.001471
796.9609	-0.000224
797.1971	0.001785
797.4333	-0.000076
797.6695	0.000326
797.9058	0.000305
798.1420	-0.000731
798.3783	-0.000160
798.6145	0.000072
798.8508	-0.000012
799.0871	-0.001197
799.3233	-0.000816
799.5596	-0.000456
799.7959	0.000897
800.0322	0.000791
800.2686	-0.000330
800.5049	-0.000351
800.7412	-0.000478
800.9776	0.001066
801.2139	-0.000055
801.4503	0.001045
801.6867	-0.001218
801.9230	-0.000752
802.1594	-0.000604
802.3958	-0.001218
802.6322	-0.001366
802.8686	-0.001535
803.1051	-0.000330
803.3415	-0.000308
803.5779	0.000432
803.8144	-0.000604
804.0508	-0.000414
804.2873	-0.000922
804.5238	0.001130
804.7603	-0.001218
804.9968	-0.001049
805.2333	-0.000816
805.4698	0.000453
805.7063	-0.000604
805.9428	-0.000118
806.1794	0.000072
806.4159	0.000241
806.6525	-0.000562
806.8890	-0.000393
807.1256	0.000622
807.3622	0.000072
807.5988	-0.000668
807.8354	-0.000541
808.0720	-0.000583
808.3086	-0.002339
808.5452	0.000072
808.7818	0.000474
809.0185	0.001151
809.2551	-0.000266
809.4918	0.001066
809.7284	0.001151
809.9651	0.000136
810.2018	0.001235
810.4385	0.000707
810.6752	-0.001133
810.9119	-0.000033
811.1486	0.000157
811.3853	0.000157
811.6221	-0.000626
811.8588	-0.001006
812.0956	-0.001641
812.3323	-0.000583
812.5691	-0.000647
812.8059	-0.000245
813.0427	-0.000752
813.2795	0.001024
813.5163	-0.000520
813.7531	-0.000055
813.9899	-0.000583
814.2267	-0.000076
814.4636	-0.000499
814.7004	-0.000816
814.9373	-0.001429
815.1742	0.000030
815.4110	0.000770
815.6479	-0.000583
815.8848	0.000453
816.1217	0.000389
816.3586	0.000432
816.5955	0.001257
816.8324	0.001087
817.0694	-0.000478
817.3063	-0.000308
817.5433	-0.000393
817.7802	-0.000731
818.0172	0.001637
818.2542	-0.000182
818.4912	0.000559
818.7282	-0.000414
818.9652	-0.000752
819.2022	0.001806
819.4392	0.000537
819.6762	0.001426
819.9133	-0.000012
820.1503	0.000220
820.3874	-0.000456
820.6244	0.000474
820.8615	-0.001070
821.0986	-0.000985
821.3357	-0.001810
821.5727	0.000241
821.8099	0.001320
822.0470	-0.000795
822.2841	-0.000795
822.5212	-0.002021
822.7584	-0.000160
822.9955	0.000559
823.2327	-0.000731
823.4698	-0.000964
823.7070	0.000939
823.9442	-0.000097
824.1814	-0.000351
824.4186	0.001172
824.6558	-0.000097
824.8930	-0.001471
825.1302	0.000220
825.3675	0.000559
825.6047	0.001405
825.8419	0.001383
826.0792	-0.000266
826.3165	0.000855
826.5537	-0.000055
826.7910	-0.000012
827.0283	0.000643
827.2656	0.000411
827.5029	-0.001916
827.7402	0.000389
827.9776	-0.000287
828.2149	0.001024
828.4522	-0.000287
828.6896	0.001827
828.9270	-0.001302
829.1643	0.001278
829.4017	0.000516
829.6391	0.001193
829.8765	-0.001450
830.1139	0.001130
830.3513	-0.000414
830.5887	-0.000668
830.8261	0.000643
831.0636	0.001045
831.3010	-0.000055
831.5385	-0.000287
831.7759	-0.001260
832.0134	-0.000160
832.2509	-0.000097
832.4884	0.001045
832.7259	-0.000287
832.9634	0.000834
833.2009	0.001024
833.4384	0.000305
833.6759	0.000178
833.9135	0.000834
834.1510	-0.000139
834.3886	0.001066
834.6261	-0.000689
834.8637	-0.000372
835.1013	0.000516
835.3389	-0.000879
835.5765	-0.000626
835.8141	-0.001091
836.0517	-0.002867
836.2893	0.001679
836.5269	-0.000922
836.7646	0.000009
837.0022	-0.000499
837.2399	0.001320
837.4775	-0.000478
837.7152	-0.001006
837.9529	0.000263
838.1906	0.000411
838.4283	-0.000308
838.6660	0.001954
838.9037	-0.000647
839.1414	0.001024
839.3791	0.000812
839.6169	-0.000583
839.8546	0.000495
840.0924	-0.000118
840.3302	-0.001429
840.5679	0.001912
840.8057	-0.002191
841.0435	-0.001197
841.2813	-0.000414
841.5191	-0.000266
841.7569	-0.000837
841.9947	-0.000224
842.2326	-0.000330
842.4704	-0.000858
842.7082	-0.000626
842.9461	0.001214
843.1840	0.000263
843.4218	0.000876
843.6597	0.000559
843.8976	-0.001197
844.1355	-0.000478
844.3734	-0.000752
844.6113	0.000347
844.8492	0.000559
845.0872	0.000453
845.3251	0.000432
845.5631	-0.001006
845.8010	-0.001556
846.0390	-0.000922
846.2770	0.000939
846.5149	-0.000160
846.7529	0.001130
846.9909	0.000643
847.2289	0.001785
847.4669	-0.000604
847.7050	-0.000520
847.9430	0.000220
848.1810	0.001722
848.4191	-0.002127
848.6571	-0.000160
848.8952	-0.000731
849.1333	0.000305
849.3713	-0.000774
849.6094	-0.000182
849.8475	-0.000182
850.0856	0.000834
850.3237	0.000284
850.5619	0.000601
850.8000	-0.000456
851.0381	0.000432
851.2763	-0.000922
851.5144	-0.000520
851.7526	-0.000076
851.9908	0.000432
852.2289	-0.000055
852.4671	-0.001387
852.7053	-0.000266
852.9435	-0.000287
853.1817	-0.001281
853.4200	0.001383
853.6582	0.000178
853.8964	-0.000160
854.1347	0.001151
854.3729	0.001827
854.6112	-0.000795
854.8495	0.000157
855.0877	-0.000604
855.3260	0.001003
855.5643	-0.000752
855.8026	0.001151
856.0409	0.000559
856.2792	-0.000351
856.5176	-0.001006
856.7559	0.000093
856.9942	0.000876
857.2326	0.001278
857.4710	0.000707
857.7093	0.000707
857.9477	-0.000795
858.1861	0.001278
858.4245	-0.000033
858.6629	0.000051
858.9013	-0.000541
859.1397	-0.000330
859.3781	-0.001260
859.6166	0.000601
859.8550	-0.000710
860.0935	0.000432
860.3319	-0.002021
860.5704	0.001151
860.8089	-0.000668
861.0473	0.000093
861.2858	-0.000456
861.5243	-0.000203
861.7628	-0.000837
862.0013	0.002525
862.2399	-0.000604
862.4784	0.000812
862.7169	0.000368
862.9555	0.000115
863.1940	0.003308
863.4326	-0.000795
863.6712	0.001849
863.9098	0.000178
864.1483	-0.000012
864.3869	0.000263
864.6255	0.000241
864.8642	0.000707
865.1028	-0.000647
865.3414	-0.000033
865.5800	0.000220
865.8187	0.000389
866.0573	0.001235
866.2960	0.001045
866.5347	0.000749
866.7733	0.000241
867.0120	0.000432
867.2507	0.001658
867.4894	-0.000076
867.7281	0.000157
867.9669	-0.000520
868.2056	0.001278
868.4443	-0.000456
868.6831	-0.001070
868.9218	-0.000351
869.1606	0.000728
869.3993	0.000347
869.6381	-0.000330
869.8769	-0.001641
870.1157	0.000199
870.3545	-0.000922
870.5933	0.001087
870.8321	-0.001112
871.0709	-0.000583
871.3097	-0.000033
871.5486	0.001320
871.7874	-0.000837
872.0263	0.000812
872.2651	-0.001408
872.5040	-0.000118
872.7429	-0.001091
872.9818	-0.000139
873.2207	0.001172
873.4596	-0.000266
873.6985	-0.002444
873.9374	-0.001810
874.1763	-0.000626
874.4153	0.002039
874.6542	0.000157
874.8932	-0.001789
875.1321	0.000284
875.3711	0.000622
875.6101	-0.001958
875.8491	0.001976
876.0880	-0.000097
876.3270	0.000326
876.5661	0.000347
876.8051	0.000411
877.0441	0.000284
877.2831	-0.001831
877.5222	0.000812
877.7612	0.000707
878.0003	0.001637
878.2393	-0.000456
878.4784	-0.000245
878.7175	-0.001239
878.9566	-0.000604
879.1957	0.000093
879.4348	0.000876
879.6739	0.000601
879.9130	-0.001260
880.1521	0.001066
880.3913	-0.001789
880.6304	0.000474
880.8696	0.000432
881.1087	-0.001620
881.3479	-0.000118
881.5871	0.001553
881.8262	0.000241
882.0654	-0.001197
882.3046	-0.000943
882.5438	0.001658
882.7831	0.001045
883.0223	-0.001302
883.2615	0.000960
883.5007	-0.001408
883.7400	0.000199
883.9792	0.002272
884.2185	0.001214
884.4578	-0.001218
884.6971	0.001447
884.9363	0.000411
885.1756	0.000432
885.4149	-0.000689
885.6542	0.000115
885.8936	-0.000182
886.1329	0.000432
886.3722	0.000093
886.6116	0.001489
886.8509	-0.000520
887.0903	-0.000097
887.3296	0.000432
887.5690	0.000220
887.8084	-0.000351
888.0478	0.000812
888.2872	-0.000266
888.5266	-0.000245
888.7660	-0.000964
889.0054	0.000009
889.2448	-0.000182
889.4843	-0.000520
889.7237	-0.001577
889.9632	-0.001197
890.2026	-0.001493
890.4421	0.000664
890.6816	0.000305
890.9211	0.000686
891.1606	0.001193
891.4001	-0.000330
891.6396	0.001426
891.8791	0.000157
892.1186	-0.000435
892.3581	0.000009
892.5977	-0.000308
892.8372	0.001024
893.0768	-0.000245
893.3163	0.001257
893.5559	0.001574
893.7955	-0.000012
894.0351	-0.001049
894.2747	0.000474
894.5143	0.000791
894.7539	0.000178
894.9935	-0.000710
895.2331	0.001320
895.4727	-0.000943
895.7124	0.000855
895.9520	-0.000562
896.1917	-0.000139
896.4314	-0.002042
896.6710	0.001362
896.9107	0.000960
897.1504	0.000072
897.3901	0.000072
897.6298	-0.000372
897.8695	-0.001683
898.1092	0.000664
898.3489	0.000664
898.5887	-0.000858
898.8284	-0.000922
899.0682	0.001214
899.3079	-0.000879
899.5477	-0.002042
899.7875	-0.001323
900.0272	-0.000414
900.2670	0.000432
900.5068	0.000728
900.7466	-0.000499
900.9864	0.001954
901.2263	-0.000964
901.4661	0.001553
901.7059	0.000157
901.9458	0.000537
902.1856	-0.001514
902.4255	-0.000414
902.6654	0.000009
902.9052	-0.001175
903.1451	0.000432
903.3850	-0.002296
903.6249	-0.000626
903.8648	0.001595
904.1047	-0.000203
904.3446	-0.000520
904.5846	-0.000520
904.8245	0.001235
905.0644	-0.000372
905.3044	0.000918
905.5444	-0.001514
905.7843	-0.001873
906.0243	-0.001958
906.2643	-0.000351
906.5043	-0.000224
906.7443	0.000051
906.9843	-0.001387
907.2243	-0.000372
907.4643	-0.001556
907.7043	0.000855
907.9444	-0.000795
908.1844	-0.000626
908.4245	0.000749
908.6645	-0.001873
908.9046	0.000305
909.1447	-0.001070
909.3847	-0.001429
909.6248	0.002039
909.8649	0.000686
910.1050	0.001172
910.3452	0.000559
910.5853	-0.000182
910.8254	0.000749
911.0655	0.001637
911.3057	0.000495
911.5458	0.001637
911.7860	-0.001852
912.0262	0.000284
912.2663	0.000939
912.5065	0.000474
912.7467	-0.002529
912.9869	0.001595
913.2271	0.000199
913.4673	0.002039
913.7075	-0.000879
913.9478	0.001510
914.1880	-0.000668
914.4283	0.000580
914.6685	0.000284
914.9088	-0.001091
915.1490	-0.001556
915.3893	0.000157
915.6296	0.001658
915.8699	-0.001070
916.1102	0.000474
916.3505	0.001320
916.5908	0.001108
916.8311	0.000030
917.0714	-0.000139
917.3118	0.000982
917.5521	-0.001091
917.7925	-0.000816
918.0328	-0.000055
918.2732	0.000537
918.5136	-0.001281
918.7539	0.000178
918.9943	-0.001049
919.2347	0.000686
919.4751	0.000072
919.7155	-0.000182
919.9560	0.000643
920.1964	-0.000562
920.4368	0.000072
920.6773	0.000791
920.9177	-0.001725
921.1582	0.001193
921.3986	-0.000456
921.6391	0.001510
921.8796	-0.001598
922.1201	0.001341
922.3606	0.000009
922.6011	0.000326
922.8416	0.000347
923.0821	-0.000266
923.3226	0.001130
923.5631	-0.000308
923.8037	-0.000076
924.0442	0.000030
924.2848	-0.000858
924.5254	-0.000393
924.7659	0.000960
925.0065	0.000157
925.2471	0.000686
925.4877	-0.001641
925.7283	-0.000774
925.9689	0.000960
926.2095	-0.001027
926.4501	-0.000435
926.6908	-0.001979
926.9314	-0.001239
927.1720	-0.000604
927.4127	0.001172
927.6533	0.000516
927.8940	-0.000287
928.1347	-0.000774
928.3754	-0.000393
928.6161	-0.001006
928.8568	0.000157
929.0975	-0.000795
929.3382	0.001743
929.5789	-0.001450
929.8196	-0.000245
930.0604	-0.001789
930.3011	-0.001218
930.5419	-0.000266
930.7826	-0.000626
931.0234	-0.000668
931.2642	0.001045
931.5049	-0.000245
931.7457	0.001151
931.9865	0.001151
932.2273	-0.000012
932.4681	0.001235
932.7089	-0.000033
932.9498	-0.000943
933.1906	-0.000139
933.4314	0.000453
933.6723	0.000220
933.9131	0.000051
934.1540	-0.000224
934.3949	0.000432
934.6358	0.001045
934.8766	-0.001725
935.1175	-0.001641
935.3584	0.000072
935.5993	0.000495
935.8403	-0.000901
936.0812	0.000622
936.3221	-0.000139
936.5630	-0.000562
936.8040	-0.001789
937.0449	0.001193
937.2859	0.000643
937.5269	0.000559
937.7678	-0.001049
938.0088	0.000749
938.2498	0.001003
938.4908	0.000622
938.7318	-0.000668
938.9728	0.000432
939.2138	0.001087
939.4549	-0.000520
939.6959	0.000812
939.9369	-0.001831
940.1780	0.001151
940.4190	-0.001620
940.6601	-0.001746
940.9012	-0.002021
941.1422	-0.000478
941.3833	-0.000456
941.6244	-0.000118
941.8655	-0.000668
942.1066	0.001003
942.3477	-0.001429
942.5889	0.000812
942.8300	0.000178
943.0711	0.000093
943.3123	0.000115
943.5534	0.000559
943.7946	0.000876
944.0357	0.000389
944.2769	-0.001387
944.5181	0.000347
944.7593	-0.000795
945.0005	-0.001725
945.2417	-0.000012
945.4829	-0.000689
945.7241	-0.000541
945.9653	0.000855
946.2066	-0.000520
946.4478	0.001510
946.6891	-0.000330
946.9303	0.000749
947.1716	-0.001091
947.4128	-0.000055
947.6541	-0.000604
947.8954	-0.001218
948.1367	0.000453
948.3780	0.000368
948.6193	-0.000118
948.8606	-0.001514
949.1019	0.000368
949.3433	-0.000076
949.5846	0.000707
949.8259	-0.000922
950.0673	0.000495
950.3086	0.000939
950.5500	-0.000245
950.7914	0.001764
951.0327	0.000812
951.2741	-0.001683
951.5155	0.000707
951.7569	0.001405
951.9983	0.000580
952.2398	0.000284
952.4812	0.000664
952.7226	0.000157
952.9640	-0.000520
953.2055	0.000347
953.4469	0.001849
953.6884	0.000263
953.9299	0.000432
954.1713	0.000326
954.4128	-0.001197
954.6543	0.000157
954.8958	-0.000689
955.1373	0.000157
955.3788	-0.000858
955.6203	0.000389
955.8618	-0.001704
956.1034	-0.002233
956.3449	-0.000456
956.5865	0.000982
956.8280	0.001574
957.0696	0.000495
957.3111	-0.001641
957.5527	-0.001302
957.7943	0.000072
958.0359	0.000834
958.2775	0.000939
958.5191	0.001574
958.7607	-0.000456
959.0023	0.000284
959.2439	-0.001260
959.4856	0.001510
959.7272	-0.000710
959.9688	0.001405
960.2105	-0.000393
960.4522	-0.000752
960.6938	0.000770
960.9355	-0.000752
961.1772	-0.001070
961.4189	-0.000245
961.6606	-0.001535
961.9023	-0.001281
962.1440	0.000009
962.3857	0.000516
962.6274	-0.000160
962.8692	0.000326
963.1109	0.001024
963.3527	-0.001725
963.5944	-0.000689
963.8362	0.000643
964.0779	-0.000583
964.3197	-0.000541
964.5615	-0.000858
964.8033	0.000368
965.0451	-0.001598
965.2869	0.001489
965.5287	0.001827
965.7705	0.000855
966.0123	-0.000499
966.2542	-0.000668
966.4960	-0.000541
966.7379	-0.001641
966.9797	-0.000541
967.2216	0.000770
967.4634	0.000009
967.7053	0.000157
967.9472	0.002420
968.1891	0.000453
968.4310	-0.000964
968.6729	-0.000308
968.9148	-0.000478
969.1567	0.001341
969.3987	-0.000287
969.6406	0.000643
969.8825	-0.002212
970.1245	0.000241
970.3664	-0.000689
970.6084	-0.001450
970.8504	-0.000160
971.0923	-0.000583
971.3343	-0.001154
971.5763	0.000474
971.8183	0.000537
972.0603	-0.002254
972.3023	0.000263
972.5443	-0.001091
972.7864	-0.000541
973.0284	-0.000668
973.2704	-0.000139
973.5125	-0.000182
973.7545	0.000072
973.9966	-0.000858
974.2387	-0.000795
974.4807	0.000855
974.7228	-0.000393
974.9649	-0.001598
975.2070	0.001320
975.4491	0.001045
975.6912	-0.000351
975.9333	0.000876
976.1755	-0.000689
976.4176	-0.000520
976.6597	-0.000710
976.9019	-0.001323
977.1440	-0.001894
977.3862	0.001257
977.6283	-0.002127
977.8705	-0.000943
978.1127	-0.000287
978.3549	-0.000118
978.5971	0.000220
978.8393	0.002272
979.0815	0.000347
979.3237	-0.000372
979.5659	-0.002254
979.8082	-0.000858
980.0504	-0.000922
980.2926	0.001278
980.5349	0.000305
980.7771	0.000453
981.0194	0.000157
981.2617	-0.000562
981.5040	-0.001154
981.7462	-0.000055
981.9885	-0.000351
982.2308	0.001489
982.4731	-0.001514
982.7155	-0.000499
982.9578	-0.001006
983.2001	0.000686
983.4424	-0.000266
983.6848	0.001849
983.9271	-0.000435
984.1695	0.001658
984.4118	0.000263
984.6542	0.001912
984.8966	0.000664
985.1390	-0.001366
985.3814	0.000643
985.6238	-0.000266
985.8662	-0.001323
986.1086	0.000812
986.3510	0.001066
986.5934	0.000664
986.8358	-0.000583
987.0783	-0.001239
987.3207	-0.000097
987.5632	-0.000456
987.8056	0.002948
988.0481	0.000770
988.2906	-0.000160
988.5331	0.002208
988.7756	0.000770
989.0180	-0.000372
989.2605	-0.000922
989.5031	-0.000393
989.7456	-0.000351
989.9881	-0.000647
990.2306	0.002039
990.4732	0.000876
990.7157	-0.001323
990.9582	0.001468
991.2008	-0.000499
991.4434	0.001531
991.6859	0.001130
991.9285	-0.000160
992.1711	-0.001450
992.4137	-0.001471
992.6563	-0.001768
992.8989	-0.000541
993.1415	-0.000604
993.3841	-0.000541
993.6267	0.000918
993.8694	0.000474
994.1120	-0.000985
994.3547	0.000812
994.5973	0.002229
994.8400	-0.000562
995.0826	0.000728
995.3253	0.001658
995.5680	-0.000118
995.8107	0.002081
996.0534	0.001214
996.2961	0.000389
996.5388	0.000770
996.7815	0.000855
997.0242	0.000897
997.2670	0.000728
997.5097	0.001130
997.7524	0.001045
997.9952	-0.000562
998.2379	0.000495
998.4807	0.001045
998.7235	0.001362
998.9662	0.000601
999.2090	0.000136
999.4518	0.000072
999.6946	-0.000055
999.9374	0.000643
1000.1802	-0.000562
1000.4230	0.000432
1000.6659	-0.000626
1000.9087	-0.000456
1001.1515	-0.001514
1001.3944	-0.001218
1001.6372	0.000411
1001.8801	-0.000012
1002.1230	0.001214
1002.3658	0.000199
1002.6087	0.000030
1002.8516	0.002631
1003.0945	0.001362
1003.3374	-0.000922
1003.5803	-0.001112
1003.8232	-0.001577
1004.0661	-0.000604
1004.3091	-0.000414
1004.5520	-0.000668
1004.7949	0.002335
1005.0379	0.001299
1005.2808	0.000643
1005.5238	-0.000626
1005.7667	-0.000160
1006.0097	0.000115
1006.2527	0.001637
1006.4957	-0.000330
1006.7387	0.001531
1006.9817	-0.001641
1007.2247	0.000537
1007.4677	0.000643
1007.7107	0.000136
1007.9538	0.001595
1008.1968	0.000918
1008.4398	0.000199
1008.6829	0.001320
1008.9259	-0.000308
1009.1690	0.000263
1009.4121	0.002906
1009.6551	0.000072
1009.8982	0.000812
1010.1413	0.000559
1010.3844	0.000432
1010.6275	-0.000647
1010.8706	0.000305
1011.1137	-0.000858
1011.3568	-0.001387
1011.6000	0.001997
1011.8431	-0.000182
1012.0863	0.000474
1012.3294	-0.000118
1012.5726	-0.000879
1012.8157	-0.000076
1013.0589	0.001087
1013.3021	-0.001260
1013.5452	-0.000330
1013.7884	0.001066
1014.0316	0.000960
1014.2748	-0.000308
1014.5180	-0.000266
1014.7613	0.000030
1015.0045	0.000939
1015.2477	-0.000033
1015.4909	-0.001894
1015.7342	0.000241
1015.9774	0.000495
1016.2207	-0.000964
1016.4640	0.000728
1016.7072	-0.000287
1016.9505	0.000982
1017.1938	-0.001916
1017.4371	0.001637
1017.6804	0.001743
1017.9237	0.000643
1018.1670	-0.000012
1018.4103	0.000897
1018.6536	-0.001450
1018.8969	0.001574
1019.1403	-0.000795
1019.3836	0.000199
1019.6270	-0.000943
1019.8703	0.001151
1020.1137	0.000347
1020.3571	0.000389
1020.6004	-0.000964
1020.8438	-0.000795
1021.0872	0.001489
1021.3306	0.001087
1021.5740	0.001045
1021.8174	-0.000816
1022.0608	-0.002952
1022.3042	-0.002677
1022.5477	-0.002254
1022.7911	-0.002360
1023.0345	-0.004073
