# Wavelength (nm)	Intensity (a.u.)
197.7802	-0.000436
197.9842	-0.000225
198.1882	-0.000922
198.3922	-0.001745
198.5963	0.001126
198.8003	-0.000478
199.0044	0.001548
199.2085	0.000619
199.4126	0.000873
199.6168	0.000746
199.8209	-0.000225
200.0251	0.000514
200.2292	-0.000141
200.4334	-0.000795
200.6376	0.000873
200.8418	-0.001555
201.0461	0.000704
201.2503	-0.002294
201.4546	0.000471
201.6589	-0.000436
201.8631	-0.000352
202.0674	-0.001027
202.2718	0.000070
202.4761	0.000007
202.6805	0.000197
202.8848	-0.000563
203.0892	0.000788
203.2936	-0.000352
203.4980	0.001274
203.7024	0.000113
203.9069	-0.000331
204.1113	-0.000690
204.3158	0.001105
204.5203	-0.000436
204.7248	-0.000246
204.9293	-0.001006
205.1338	0.001421
205.3384	0.000070
205.5430	-0.000225
205.7475	0.000556
205.9521	0.000830
206.1567	-0.000204
206.3614	0.000704
206.5660	-0.000690
206.7706	-0.000310
206.9753	0.000683
207.1800	0.000978
207.3847	-0.001260
207.5894	0.000788
207.7941	-0.000690
207.9989	0.000260
208.2036	0.000176
208.4084	0.001442
208.6132	0.000661
208.8180	-0.000204
209.0228	0.000598
209.2276	0.000640
209.4325	0.000830
209.6373	-0.000141
209.8422	0.000556
210.0471	0.000999
210.2520	0.000324
210.4569	0.000197
210.6618	-0.000858
210.8668	0.000640
211.0718	0.000070
211.2767	0.001147
211.4817	0.000704
211.6867	0.000471
211.8918	-0.001365
212.0968	-0.000436
212.3018	-0.000077
212.5069	0.000746
212.7120	0.000091
212.9171	0.000345
213.1222	0.000598
213.3273	-0.000563
213.5325	-0.000035
213.7376	0.000049
213.9428	0.000070
214.1480	0.000155
214.3532	0.000429
214.5584	-0.000605
214.7636	0.000134
214.9689	0.000091
215.1741	-0.000605
215.3794	0.000640
215.5847	-0.000858
215.7900	-0.000985
215.9953	0.001168
216.2007	-0.000985
216.4060	0.000113
216.6114	0.001147
216.8168	-0.000457
217.0222	0.000197
217.2276	0.000661
217.4330	0.001358
217.6384	0.000408
217.8439	0.001717
218.0494	-0.000267
218.2548	-0.000204
218.4603	0.000471
218.6659	0.000155
218.8714	0.000007
219.0769	-0.000584
219.2825	0.000345
219.4881	-0.000816
219.6936	0.000957
219.8992	0.000450
220.1049	-0.000246
220.3105	0.000155
220.5161	0.000619
220.7218	0.000303
220.9275	0.000767
221.1332	0.001316
221.3389	-0.000500
221.5446	0.000239
221.7503	-0.000099
221.9561	0.000556
222.1618	0.000239
222.3676	-0.000690
222.5734	-0.000563
222.7792	-0.000774
222.9850	0.000661
223.1909	0.001252
223.3967	-0.000964
223.6026	0.000281
223.8085	0.000598
224.0144	-0.000141
224.2203	-0.000500
224.4262	0.000303
224.6322	0.000260
224.8381	0.001147
225.0441	-0.000288
225.2501	0.000113
225.4561	-0.000711
225.6621	0.000598
225.8681	-0.000542
226.0742	0.000260
226.2802	-0.000943
226.4863	-0.000563
226.6924	-0.001112
226.8985	0.001442
227.1046	-0.001428
227.3107	0.001907
227.5169	-0.000352
227.7230	0.001084
227.9292	0.000155
228.1354	-0.001027
228.3416	-0.000120
228.5478	0.001295
228.7541	-0.001027
228.9603	0.001949
229.1666	-0.001006
229.3729	-0.000985
229.5791	0.000113
229.7855	0.000683
229.9918	-0.001513
230.1981	0.000345
230.4045	-0.000204
230.6108	0.000915
230.8172	0.000598
231.0236	-0.000035
231.2300	0.000134
231.4364	0.000134
231.6429	-0.000837
231.8493	0.000218
232.0558	-0.001428
232.2623	0.000788
232.4688	0.000007
232.6753	0.001442
232.8818	-0.000436
233.0884	0.000218
233.2949	-0.000711
233.5015	0.000514
233.7081	0.000577
233.9147	0.000134
234.1213	-0.000436
234.3279	0.000809
234.5346	0.000176
234.7413	0.000134
234.9479	0.000429
235.1546	0.001421
235.3613	-0.000901
235.5680	0.000556
235.7748	0.000091
235.9815	0.001400
236.1883	0.000049
236.3951	-0.000225
236.6018	0.000091
236.8087	-0.000120
237.0155	0.000113
237.2223	0.000493
237.4292	-0.000711
237.6360	0.000155
237.8429	0.000176
238.0498	0.000788
238.2567	-0.000035
238.4636	0.001442
238.6706	0.000556
238.8775	-0.000436
239.0845	0.000577
239.2915	0.000134
239.4985	-0.000436
239.7055	-0.001112
239.9125	-0.000478
240.1195	0.000514
240.3266	-0.000753
240.5337	0.000915
240.7407	-0.000690
240.9478	-0.000732
241.1549	-0.000732
241.3621	0.000598
241.5692	-0.000267
241.7764	0.001084
241.9835	-0.001006
242.1907	0.000873
242.3979	-0.001006
242.6051	0.000070
242.8124	-0.001260
243.0196	-0.000141
243.2269	0.000493
243.4341	-0.000626
243.6414	-0.001027
243.8487	-0.000457
244.0560	0.000303
244.2634	0.000683
244.4707	-0.000162
244.6781	0.001274
244.8854	-0.000478
245.0928	0.000345
245.3002	0.001506
245.5076	0.001316
245.7151	0.000915
245.9225	0.000366
246.1300	0.001147
246.3375	-0.000183
246.5449	-0.001027
246.7524	-0.000415
246.9600	-0.000690
247.1675	0.000324
247.3750	0.000345
247.5826	-0.001238
247.7902	0.000007
247.9978	0.000429
248.2054	-0.001070
248.4130	0.000324
248.6206	0.000408
248.8283	0.001231
249.0359	-0.000964
249.2436	-0.000373
249.4513	0.001632
249.6590	0.001400
249.8667	-0.000352
250.0745	0.001020
250.2822	0.000281
250.4900	0.000218
250.6978	-0.000183
250.9056	-0.000310
251.1134	-0.000014
251.3212	0.001189
251.5290	0.000725
251.7369	-0.000120
251.9447	-0.000035
252.1526	0.000535
252.3605	-0.000246
252.5684	-0.000521
252.7763	0.000239
252.9843	0.000936
253.1922	-0.000056
253.4002	-0.000056
253.6082	0.000091
253.8162	0.000894
254.0242	0.000197
254.2322	-0.000373
254.4402	0.000535
254.6483	-0.000647
254.8564	-0.000647
255.0644	0.001041
255.2725	-0.000310
255.4806	-0.000246
255.6888	0.000746
255.8969	0.000809
256.1051	-0.000352
256.3132	-0.000056
256.5214	-0.000162
256.7296	0.000134
256.9378	-0.000690
257.1460	0.000788
257.3543	0.001231
257.5625	-0.000035
257.7708	-0.000415
257.9791	0.000598
258.1874	0.000239
258.3957	0.000197
258.6040	0.000619
258.8124	-0.000647
259.0207	0.000535
259.2291	-0.000204
259.4375	0.000007
259.6459	0.001063
259.8543	0.000091
260.0627	-0.000711
260.2711	-0.001196
260.4796	0.000577
260.6881	-0.001070
260.8965	-0.000225
261.1050	-0.000521
261.3135	0.000028
261.5221	0.000049
261.7306	-0.000816
261.9392	-0.001048
262.1477	-0.000099
262.3563	-0.000753
262.5649	-0.000795
262.7735	-0.000077
262.9822	0.000746
263.1908	0.000134
263.3995	0.001231
263.6081	0.000683
263.8168	0.000450
264.0255	0.000493
264.2342	0.000746
264.4429	0.000915
264.6517	-0.000225
264.8604	-0.002209
265.0692	-0.001513
265.2780	0.000915
265.4868	-0.000099
265.6956	0.000598
265.9044	0.000007
266.1133	-0.000183
266.3221	-0.000563
266.5310	0.000408
266.7399	-0.001175
266.9488	0.000746
267.1577	0.001126
267.3666	0.000598
267.5755	0.001379
267.7845	-0.000542
267.9935	0.001252
268.2024	0.000619
268.4114	0.000577
268.6205	-0.000204
268.8295	0.000387
269.0385	0.000239
269.2476	0.000408
269.4566	0.000134
269.6657	-0.000183
269.8748	-0.000246
270.0839	0.000704
270.2931	-0.000478
270.5022	0.000303
270.7114	0.000683
270.9205	0.000661
271.1297	-0.001048
271.3389	0.001210
271.5481	-0.000373
271.7573	0.001337
271.9666	0.000070
272.1758	0.000049
272.3851	-0.000077
272.5944	0.000915
272.8037	0.000049
273.0130	0.001084
273.2223	-0.000690
273.4316	0.000471
273.6410	-0.000563
273.8504	-0.000099
274.0597	0.000429
274.2691	0.000239
274.4785	0.000049
274.6880	-0.000711
274.8974	0.000957
275.1069	0.001063
275.3163	0.000007
275.5258	-0.000478
275.7353	-0.000162
275.9448	0.000683
276.1543	0.001337
276.3639	0.001252
276.5734	0.000324
276.7830	0.000873
276.9926	0.000070
277.2022	0.001084
277.4118	0.000239
277.6214	0.000239
277.8310	-0.000310
278.0407	0.001231
278.2503	0.000535
278.4600	-0.000563
278.6697	-0.000521
278.8794	-0.000331
279.0891	-0.000985
279.2989	0.001147
279.5086	0.000598
279.7184	-0.000436
279.9281	-0.000077
280.1379	0.000070
280.3477	0.000366
280.5576	0.000704
280.7674	-0.000901
280.9772	-0.001112
281.1871	-0.000753
281.3970	-0.000415
281.6069	-0.000373
281.8168	0.000514
282.0267	-0.000436
282.2366	-0.000795
282.4466	0.000239
282.6565	0.000345
282.8665	-0.000626
283.0765	0.000873
283.2865	-0.000584
283.4965	0.000577
283.7065	-0.000035
283.9166	-0.000690
284.1266	-0.000267
284.3367	-0.000985
284.5468	-0.000352
284.7569	0.000894
284.9670	-0.001260
285.1771	0.000387
285.3873	0.000619
285.5974	0.000429
285.8076	-0.000901
286.0178	0.001506
286.2280	-0.001386
286.4382	-0.000753
286.6484	0.000197
286.8587	0.001379
287.0689	0.000197
287.2792	0.000830
287.4895	-0.000521
287.6998	0.000830
287.9101	0.000514
288.1204	-0.000267
288.3308	-0.000373
288.5411	0.000704
288.7515	-0.000225
288.9619	-0.000035
289.1723	-0.001618
289.3827	0.001400
289.5931	-0.000014
289.8035	0.001126
290.0140	0.000303
290.2245	0.001084
290.4349	0.000387
290.6454	0.000598
290.8559	-0.000352
291.0665	-0.001175
291.2770	-0.001006
291.4875	0.000281
291.6981	0.000661
291.9087	-0.001323
292.1193	0.000936
292.3299	0.000324
292.5405	-0.000056
292.7511	-0.001471
292.9618	-0.000352
293.1724	0.000324
293.3831	0.001210
293.5938	0.001611
293.8045	0.000704
294.0152	-0.000415
294.2260	0.000788
294.4367	-0.000901
294.6475	-0.000478
294.8582	0.001717
295.0690	-0.000077
295.2798	0.000746
295.4906	0.000260
295.7015	-0.000500
295.9123	-0.000415
296.1232	-0.000331
296.3340	-0.000141
296.5449	0.002097
296.7558	-0.000500
296.9667	-0.000077
297.1777	-0.001154
297.3886	0.000408
297.5995	0.000619
297.8105	0.000007
298.0215	-0.001745
298.2325	0.000577
298.4435	0.000091
298.6545	-0.000943
298.8656	-0.001344
299.0766	0.000851
299.2877	-0.001407
299.4988	0.000598
299.7099	0.000830
299.9210	0.001084
300.1321	0.000704
300.3432	0.000113
300.5544	0.000070
300.7655	0.000640
300.9767	-0.000415
301.1879	-0.000035
301.3991	-0.001407
301.6103	0.001231
301.8215	-0.001471
302.0328	0.000324
302.2441	-0.000077
302.4553	0.000324
302.6666	-0.000436
302.8779	-0.000795
303.0892	0.000028
303.3006	-0.000478
303.5119	-0.000753
303.7233	0.000661
303.9346	0.000725
304.1460	0.000661
304.3574	-0.001027
304.5688	0.000535
304.7803	0.000788
304.9917	0.000197
305.2031	0.000830
305.4146	-0.000077
305.6261	0.000091
305.8376	-0.000626
306.0491	0.000683
306.2606	-0.000373
306.4722	0.000303
306.6837	0.000894
306.8953	0.000176
307.1069	-0.000457
307.3184	0.000281
307.5301	-0.001281
307.7417	-0.000753
307.9533	-0.000690
308.1650	-0.000225
308.3766	0.001041
308.5883	0.000176
308.8000	0.001231
309.0117	0.000366
309.2234	0.000830
309.4351	-0.000521
309.6469	-0.000288
309.8586	-0.000225
310.0704	-0.000077
310.2822	-0.000120
310.4940	0.000450
310.7058	0.000176
310.9176	-0.000436
311.1295	-0.000246
311.3413	-0.000310
311.5532	0.001168
311.7651	0.000746
311.9770	-0.001238
312.1889	0.001168
312.4008	-0.000500
312.6127	0.000661
312.8247	-0.000985
313.0366	0.000661
313.2486	-0.000035
313.4606	0.000091
313.6726	0.000155
313.8846	-0.000310
314.0967	0.000830
314.3087	0.000978
314.5208	-0.000141
314.7328	0.000007
314.9449	-0.001555
315.1570	0.000197
315.3692	-0.000457
315.5813	0.000999
315.7934	0.000176
316.0056	0.000830
316.2177	0.000197
316.4299	0.000197
316.6421	-0.000225
316.8543	0.002329
317.0666	-0.000626
317.2788	0.000281
317.4911	-0.000542
317.7033	0.000640
317.9156	0.000936
318.1279	0.001654
318.3402	-0.000858
318.5525	0.001400
318.7649	-0.000985
318.9772	-0.000964
319.1896	-0.000035
319.4019	-0.001006
319.6143	-0.000943
319.8267	0.000535
320.0392	0.000091
320.2516	-0.001154
320.4640	0.000303
320.6765	-0.000415
320.8890	-0.000415
321.1014	0.000936
321.3139	0.000070
321.5265	-0.000500
321.7390	-0.001238
321.9515	0.000091
322.1641	-0.000985
322.3766	-0.000943
322.5892	0.000936
322.8018	0.001675
323.0144	-0.001829
323.2270	-0.000204
323.4397	0.000408
323.6523	-0.000542
323.8650	-0.000542
324.0777	0.000345
324.2904	-0.001618
324.5031	0.000767
324.7158	-0.000246
324.9285	0.000324
325.1412	-0.000922
325.3540	-0.000394
325.5668	0.000535
325.7796	0.000661
325.9924	0.000176
326.2052	0.000366
326.4180	-0.000225
326.6308	0.000535
326.8437	0.000366
327.0566	0.000577
327.2694	-0.000099
327.4823	0.001759
327.6952	-0.000542
327.9082	-0.001133
328.1211	-0.000035
328.3340	0.000493
328.5470	-0.000690
328.7600	-0.001133
328.9730	-0.000542
329.1860	-0.000288
329.3990	-0.000858
329.6120	0.001168
329.8251	0.000197
330.0381	-0.000837
330.2512	0.000281
330.4643	0.000197
330.6774	-0.000077
330.8905	-0.000288
331.1036	0.000070
331.3167	0.000324
331.5299	-0.000563
331.7431	-0.000035
331.9562	-0.000352
332.1694	-0.000099
332.3826	0.000999
332.5959	0.000239
332.8091	-0.000542
333.0223	-0.000288
333.2356	-0.000542
333.4489	-0.000288
333.6622	-0.000584
333.8755	0.001379
334.0888	-0.000267
334.3021	0.000028
334.5154	0.000577
334.7288	0.000239
334.9422	-0.000647
335.1555	-0.001006
335.3689	-0.001133
335.5823	0.002709
335.7958	-0.000436
336.0092	0.000049
336.2227	-0.001091
336.4361	-0.000436
336.6496	0.000408
336.8631	0.000577
337.0766	-0.000964
337.2901	-0.000542
337.5036	-0.000478
337.7172	-0.000120
337.9307	0.000007
338.1443	0.001717
338.3579	-0.000858
338.5715	0.001189
338.7851	-0.000774
338.9987	-0.000394
339.2124	-0.000099
339.4260	-0.000352
339.6397	0.000978
339.8533	-0.000647
340.0670	0.000281
340.2807	0.001063
340.4945	-0.000099
340.7082	-0.000267
340.9219	0.000239
341.1357	-0.000858
341.3495	0.000661
341.5633	-0.000500
341.7771	0.001168
341.9909	-0.000478
342.2047	-0.000626
342.4185	0.001020
342.6324	-0.000099
342.8463	0.001041
343.0601	0.000514
343.2740	0.000746
343.4879	0.000957
343.7019	0.000345
343.9158	-0.000774
344.1297	0.001358
344.3437	0.000281
344.5577	-0.000183
344.7717	0.000936
344.9857	0.000514
345.1997	-0.000795
345.4137	-0.000077
345.6277	-0.001154
345.8418	0.000894
346.0559	-0.000183
346.2699	-0.000964
346.4840	0.000091
346.6981	-0.000626
346.9123	-0.001133
347.1264	0.000091
347.3406	-0.000288
347.5547	-0.000183
347.7689	-0.000014
347.9831	-0.000141
348.1973	0.000577
348.4115	0.001274
348.6257	0.000514
348.8400	0.000704
349.0542	-0.000162
349.2685	0.000197
349.4828	0.000155
349.6971	0.000619
349.9114	-0.000753
350.1257	0.000408
350.3400	-0.000183
350.5544	0.000556
350.7687	-0.000436
350.9831	0.000091
351.1975	0.000239
351.4119	-0.001217
351.6263	-0.000352
351.8407	0.000577
352.0552	0.000788
352.2696	0.000260
352.4841	0.000746
352.6986	0.000767
352.9131	-0.000795
353.1276	0.000176
353.3421	0.000028
353.5566	-0.000985
353.7712	0.000746
353.9858	0.000535
354.2003	0.000239
354.4149	-0.001006
354.6295	0.000809
354.8441	0.000303
355.0588	-0.001471
355.2734	-0.000288
355.4881	0.000281
355.7027	-0.000225
355.9174	-0.000605
356.1321	0.001274
356.3468	0.000155
356.5615	0.000957
356.7763	0.000239
356.9910	0.000556
357.2058	0.000661
357.4206	-0.000014
357.6353	-0.000774
357.8501	-0.000352
358.0650	-0.000120
358.2798	0.000873
358.4946	0.001084
358.7095	0.001485
358.9243	0.000366
359.1392	-0.000837
359.3541	-0.000267
359.5690	0.000683
359.7839	-0.000500
359.9989	-0.000816
360.2138	0.000239
360.4288	-0.000077
360.6438	-0.000901
360.8587	-0.000077
361.0737	-0.000099
361.2888	-0.000795
361.5038	-0.000542
361.7188	0.000619
361.9339	-0.000056
362.1489	-0.001112
362.3640	0.000113
362.5791	0.000535
362.7942	0.000619
363.0093	0.000767
363.2245	0.001274
363.4396	0.000155
363.6548	0.000661
363.8699	0.000957
364.0851	-0.000584
364.3003	0.000303
364.5155	0.000155
364.7308	0.001063
364.9460	0.000767
365.1612	0.001970
365.3765	0.000408
365.5918	-0.000647
365.8071	-0.001281
366.0224	0.000915
366.2377	-0.000457
366.4530	-0.000668
366.6684	0.000556
366.8837	0.000830
367.0991	0.000070
367.3145	0.000007
367.5299	0.000281
367.7453	-0.000099
367.9607	0.000767
368.1761	0.000197
368.3916	-0.000373
368.6070	0.000028
368.8225	-0.000288
369.0380	-0.000246
369.2535	0.000113
369.4690	0.000936
369.6845	0.000197
369.9001	-0.000099
370.1156	-0.000310
370.3312	0.000091
370.5468	-0.001935
370.7624	0.001063
370.9780	0.000007
371.1936	0.001274
371.4092	0.000429
371.6249	0.001527
371.8405	-0.000647
372.0562	-0.000162
372.2719	0.001675
372.4876	0.000661
372.7033	-0.000985
372.9190	0.000514
373.1348	0.000197
373.3505	0.001041
373.5663	-0.000415
373.7820	0.000851
373.9978	-0.000584
374.2136	0.000746
374.4294	-0.000943
374.6453	0.000113
374.8611	0.000999
375.0770	0.000408
375.2928	0.000155
375.5087	0.000661
375.7246	-0.000056
375.9405	-0.000267
376.1564	-0.000542
376.3724	0.000957
376.5883	0.000345
376.8043	0.001358
377.0203	0.000936
377.2362	0.000070
377.4522	0.000704
377.6682	0.000493
377.8843	0.000873
378.1003	0.000577
378.3164	0.000493
378.5324	0.000535
378.7485	0.000514
378.9646	0.001464
379.1807	-0.000690
379.3968	0.001717
379.6129	-0.001513
379.8291	0.000408
380.0452	0.001041
380.2614	-0.000394
380.4776	-0.000352
380.6938	0.000281
380.9100	0.001063
381.1262	0.000704
381.3424	-0.000816
381.5587	0.000746
381.7749	-0.000394
381.9912	-0.000225
382.2075	-0.000647
382.4238	0.000408
382.6401	0.000197
382.8564	0.001063
383.0728	0.000809
383.2891	0.000514
383.5055	-0.000964
383.7219	-0.000077
383.9382	-0.000922
384.1546	0.000429
384.3711	0.000091
384.5875	-0.000035
384.8039	0.002055
385.0204	0.000936
385.2368	0.001548
385.4533	0.000429
385.6698	-0.001281
385.8863	0.000598
386.1028	0.001105
386.3194	0.000535
386.5359	0.002540
386.7525	0.000493
386.9690	0.001274
387.1856	0.000535
387.4022	0.000113
387.6188	0.001675
387.8355	0.001337
388.0521	0.002139
388.2687	0.001274
388.4854	0.001632
388.7021	0.001611
388.9188	0.003279
389.1355	0.001611
389.3522	0.003765
389.5689	0.000387
389.7856	0.003680
390.0024	0.002055
390.2192	0.002350
390.4359	0.003701
390.6527	0.003680
390.8695	0.005453
391.0863	0.003406
391.3032	0.003532
391.5200	0.005622
391.7369	0.004419
391.9537	0.005538
392.1706	0.006445
392.3875	0.006994
392.6044	0.006277
392.8213	0.005559
393.0383	0.008282
393.2552	0.007775
393.4722	0.007860
393.6891	0.006488
393.9061	0.009738
394.1231	0.009147
394.3401	0.008219
394.5572	0.008810
394.7742	0.009316
394.9912	0.008092
395.2083	0.011849
395.4254	0.010330
395.6425	0.011237
395.8596	0.011322
396.0767	0.012419
396.2938	0.010752
396.5109	0.011279
396.7281	0.012609
396.9453	0.015354
397.1624	0.012187
397.3796	0.012166
397.5968	0.014488
397.8140	0.014509
398.0313	0.016346
398.2485	0.015902
398.4658	0.016325
398.6830	0.018520
398.9003	0.018372
399.1176	0.017443
399.3349	0.018182
399.5522	0.019153
399.7696	0.019702
399.9869	0.019343
400.2043	0.018773
400.4216	0.018182
400.6390	0.019449
400.8564	0.019364
401.0738	0.018562
401.2912	0.021095
401.5087	0.019660
401.7261	0.022277
401.9436	0.021602
402.1610	0.018837
402.3785	0.023481
402.5960	0.020040
402.8135	0.020694
403.0310	0.021222
403.2486	0.022362
403.4661	0.020736
403.6837	0.020905
403.9013	0.021919
404.1189	0.022151
404.3365	0.023882
404.5541	0.024599
404.7717	0.024008
404.9893	0.025148
405.2070	0.025697
405.4246	0.027259
405.6423	0.026035
405.8600	0.026520
406.0777	0.023797
406.2954	0.024494
406.5131	0.023544
406.7309	0.026035
406.9486	0.023248
407.1664	0.024832
407.3842	0.024811
407.6020	0.023565
407.8198	0.023797
408.0376	0.025866
408.2554	0.028040
408.4733	0.027618
408.6911	0.028378
408.9090	0.027470
409.1269	0.025908
409.3448	0.030257
409.5627	0.027069
409.7806	0.026162
409.9985	0.027808
410.2165	0.027154
410.4344	0.024388
410.6524	0.024747
410.8704	0.028441
411.0884	0.026584
411.3064	0.026309
411.5244	0.027090
411.7424	0.026753
411.9605	0.028927
412.1785	0.028104
412.3966	0.028779
412.6147	0.027808
412.8328	0.030257
413.0509	0.028885
413.2690	0.028505
413.4871	0.027998
413.7053	0.030996
413.9234	0.029940
414.1416	0.028589
414.3598	0.028990
414.5780	0.028357
414.7962	0.026520
415.0144	0.030573
415.2326	0.030531
415.4509	0.027428
415.6692	0.027850
415.8874	0.029560
416.1057	0.028589
416.3240	0.028842
416.5423	0.027660
416.7606	0.030151
416.9790	0.031502
417.1973	0.028378
417.4157	0.030257
417.6341	0.028399
417.8524	0.028040
418.0708	0.029645
418.2893	0.028885
418.5077	0.029961
418.7261	0.028357
418.9446	0.030362
419.1630	0.030468
419.3815	0.030510
419.6000	0.032009
419.8185	0.029307
420.0370	0.031502
420.2555	0.030320
420.4741	0.033465
420.6926	0.034289
420.9112	0.033043
421.1298	0.033170
421.3483	0.035154
421.5669	0.034901
421.7856	0.036020
422.0042	0.036716
422.2228	0.035893
422.4415	0.036210
422.6601	0.036188
422.8788	0.035112
423.0975	0.036378
423.3162	0.034901
423.5349	0.034310
423.7536	0.034141
423.9724	0.032853
424.1911	0.034479
424.4099	0.033951
424.6287	0.032262
424.8475	0.032980
425.0663	0.033698
425.2851	0.031397
425.5039	0.032178
425.7228	0.031566
425.9416	0.029835
426.1605	0.028906
426.3793	0.030742
426.5982	0.031946
426.8171	0.030299
427.0361	0.030067
427.2550	0.031734
427.4739	0.030974
427.6929	0.031988
427.9118	0.030067
428.1308	0.030890
428.3498	0.031333
428.5688	0.030278
428.7878	0.031186
429.0068	0.030383
429.2259	0.031608
429.4449	0.033993
429.6640	0.034732
429.8831	0.035386
430.1022	0.035576
430.3213	0.036400
430.5404	0.037392
430.7595	0.035196
430.9787	0.036188
431.1978	0.033381
431.4170	0.033085
431.6362	0.032515
431.8553	0.031967
432.0745	0.028526
432.2938	0.030383
432.5130	0.028948
432.7322	0.027956
432.9515	0.028906
433.1707	0.028589
433.3900	0.028864
433.6093	0.031650
433.8286	0.034943
434.0479	0.033592
434.2673	0.031017
434.4866	0.032473
434.7059	0.031903
434.9253	0.030151
435.1447	0.031017
435.3641	0.031481
435.5835	0.029455
435.8029	0.029265
436.0223	0.027893
436.2418	0.030489
436.4612	0.032009
436.6807	0.033001
436.9001	0.028779
437.1196	0.031629
437.3391	0.029961
437.5586	0.029581
437.7782	0.029560
437.9977	0.030109
438.2173	0.029856
438.4368	0.031164
438.6564	0.031798
438.8760	0.032790
439.0956	0.030426
439.3152	0.031650
439.5348	0.031207
439.7545	0.030763
439.9741	0.031164
440.1938	0.029771
440.4135	0.029075
440.6331	0.031122
440.8528	0.031164
441.0725	0.031122
441.2923	0.033740
441.5120	0.035999
441.7318	0.035070
441.9515	0.035471
442.1713	0.034922
442.3911	0.034014
442.6109	0.032410
442.8307	0.031523
443.0505	0.033698
443.2703	0.032663
443.4902	0.033212
443.7101	0.033191
443.9299	0.033318
444.1498	0.032663
444.3697	0.031924
444.5896	0.033107
444.8095	0.030911
445.0295	0.031207
445.2494	0.031924
445.4694	0.031967
445.6894	0.031122
445.9093	0.030299
446.1293	0.029729
446.3493	0.030595
446.5694	0.029476
446.7894	0.031164
447.0094	0.031840
447.2295	0.028336
447.4496	0.028125
447.6696	0.029244
447.8897	0.028230
448.1098	0.030595
448.3300	0.027048
448.5501	0.029602
448.7702	0.026689
448.9904	0.029433
449.2106	0.027998
449.4307	0.028420
449.6509	0.027280
449.8711	0.027935
450.0914	0.027407
450.3116	0.026098
450.5318	0.026436
450.7521	0.028378
450.9724	0.027428
451.1926	0.024262
451.4129	0.025570
451.6332	0.026119
451.8535	0.024452
452.0739	0.024979
452.2942	0.025212
452.5146	0.023671
452.7349	0.024557
452.9553	0.023016
453.1757	0.023312
453.3961	0.024578
453.6165	0.021750
453.8369	0.022531
454.0574	0.023628
454.2778	0.022109
454.4983	0.021475
454.7188	0.019470
454.9393	0.021306
455.1597	0.021729
455.3803	0.022531
455.6008	0.022489
455.8213	0.021560
456.0419	0.021180
456.2624	0.020610
456.4830	0.021370
456.7036	0.020462
456.9242	0.022151
457.1448	0.021201
457.3654	0.020736
457.5860	0.019554
457.8067	0.020251
458.0274	0.021665
458.2480	0.020969
458.4687	0.021602
458.6894	0.021834
458.9101	0.020842
459.1308	0.019850
459.3516	0.022193
459.5723	0.022109
459.7931	0.020610
460.0138	0.021539
460.2346	0.021454
460.4554	0.017380
460.6762	0.018583
460.8970	0.017908
461.1178	0.019702
461.3387	0.019533
461.5595	0.020019
461.7804	0.020166
462.0013	0.018457
462.2222	0.017274
462.4431	0.015037
462.6640	0.016325
462.8849	0.016135
463.1059	0.014784
463.3268	0.016409
463.5478	0.017169
463.7687	0.018161
463.9897	0.018773
464.2107	0.018119
464.4317	0.019111
464.6528	0.017464
464.8738	0.017992
465.0948	0.018837
465.3159	0.017000
465.5370	0.016113
465.7581	0.016683
465.9792	0.016515
466.2003	0.016430
466.4214	0.014573
466.6425	0.014657
466.8637	0.014931
467.0848	0.014319
467.3060	0.013981
467.5272	0.013475
467.7484	0.012588
467.9696	0.013074
468.1908	0.013243
468.4120	0.013855
468.6333	0.014530
468.8545	0.011343
469.0758	0.011554
469.2970	0.011322
469.5183	0.011659
469.7396	0.010161
469.9610	0.010688
470.1823	0.010498
470.4036	0.009570
470.6250	0.009781
470.8463	0.010667
471.0677	0.010456
471.2891	0.009802
471.5105	0.009823
471.7319	0.010498
471.9533	0.009886
472.1748	0.009084
472.3962	0.010583
472.6177	0.010604
472.8391	0.010393
473.0606	0.010245
473.2821	0.009485
473.5036	0.010520
473.7251	0.010203
473.9467	0.009907
474.1682	0.009548
474.3898	0.009464
474.6113	0.008873
474.8329	0.009907
475.0545	0.009084
475.2761	0.009401
475.4977	0.009105
475.7193	0.010203
475.9410	0.008789
476.1626	0.009211
476.3843	0.008092
476.6060	0.009443
476.8277	0.008979
477.0494	0.007606
477.2711	0.008219
477.4928	0.007332
477.7145	0.006656
477.9363	0.009612
478.1580	0.006234
478.3798	0.008704
478.6016	0.008599
478.8234	0.009570
479.0452	0.007079
479.2670	0.007501
479.4888	0.006192
479.7107	0.006868
479.9325	0.007775
480.1544	0.008029
480.3763	0.008430
480.5982	0.007902
480.8201	0.005833
481.0420	0.007079
481.2639	0.008071
481.4859	0.009084
481.7078	0.006994
481.9298	0.009654
482.1517	0.006952
482.3737	0.007142
482.5957	0.005664
482.8177	0.006361
483.0398	0.007670
483.2618	0.007881
483.4838	0.005305
483.7059	0.006720
483.9280	0.007248
484.1501	0.007796
484.3721	0.007205
484.5943	0.007163
484.8164	0.006023
485.0385	0.006509
485.2606	0.006551
485.4828	0.009654
485.7050	0.014530
485.9271	0.020863
486.1493	0.020314
486.3715	0.015902
486.5937	0.014277
486.8160	0.012166
487.0382	0.013411
487.2605	0.009527
487.4827	0.007902
487.7050	0.007353
487.9273	0.004672
488.1496	0.006741
488.3719	0.005707
488.5942	0.005052
488.8165	0.005875
489.0389	0.005348
489.2612	0.004334
489.4836	0.004461
489.7060	0.003553
489.9284	0.005327
490.1508	0.004334
490.3732	0.005242
490.5956	0.004440
490.8180	0.005390
491.0405	0.003363
491.2630	0.004968
491.4854	0.005010
491.7079	0.005094
491.9304	0.004229
492.1529	0.003638
492.3755	0.004123
492.5980	0.005749
492.8205	0.002287
493.0431	0.003617
493.2657	0.003659
493.4882	0.005073
493.7108	0.005749
493.9334	0.004567
494.1561	0.005094
494.3787	0.003659
494.6013	0.003659
494.8240	0.003173
495.0466	0.002941
495.2693	0.004989
495.4920	0.002709
495.7147	0.003237
495.9374	0.003976
496.1601	0.005411
496.3829	0.004144
496.6056	0.004313
496.8284	0.004144
497.0511	0.005242
497.2739	0.003807
497.4967	0.002836
497.7195	0.004524
497.9423	0.003807
498.1652	0.002245
498.3880	0.004968
498.6109	0.003596
498.8337	0.004651
499.0566	0.001738
499.2795	0.004102
499.5024	0.002815
499.7253	0.003195
499.9482	0.003427
500.1712	0.004398
500.3941	0.003068
500.6171	0.003300
500.8400	0.003026
501.0630	0.003110
501.2860	0.003026
501.5090	0.003195
501.7320	0.002941
501.9551	0.001886
502.1781	0.002899
502.4012	0.003954
502.6242	0.003617
502.8473	0.003005
503.0704	0.003258
503.2935	0.002646
503.5166	0.003026
503.7397	0.002118
503.9628	0.002561
504.1860	0.003068
504.4092	0.001316
504.6323	0.003638
504.8555	0.002329
505.0787	0.003680
505.3019	0.002498
505.5251	0.003026
505.7483	0.003870
505.9716	0.003954
506.1948	0.003363
506.4181	0.004187
506.6414	0.004398
506.8647	0.002962
507.0880	0.003110
507.3113	0.002878
507.5346	0.003300
507.7579	0.002603
507.9813	0.002962
508.2046	0.002266
508.4280	0.002941
508.6514	0.003089
508.8748	0.002878
509.0982	0.003617
509.3216	0.002287
509.5450	0.001210
509.7685	0.001991
509.9919	0.002730
510.2154	0.002730
510.4388	0.002224
510.6623	0.004144
510.8858	0.003237
511.1093	0.002688
511.3329	0.003321
511.5564	0.002392
511.7799	0.002646
512.0035	0.001548
512.2270	0.002435
512.4506	0.002287
512.6742	0.001210
512.8978	0.002055
513.1214	0.001105
513.3451	0.002836
513.5687	0.002371
513.7923	0.001970
514.0160	0.003342
514.2397	0.001295
514.4634	0.002118
514.6871	0.001590
514.9108	0.002983
515.1345	0.001421
515.3582	0.002878
515.5819	0.002245
515.8057	0.003237
516.0295	0.002772
516.2532	0.002667
516.4770	0.003342
516.7008	0.001844
516.9246	0.003406
517.1485	0.003553
517.3723	0.001780
517.5961	0.002646
517.8200	0.003385
518.0439	0.004461
518.2677	0.004229
518.4916	0.003026
518.7155	0.001590
518.9395	0.002625
519.1634	0.003110
519.3873	0.001126
519.6113	0.003786
519.8352	0.003216
520.0592	0.001949
520.2832	0.003617
520.5072	0.001654
520.7312	0.000767
520.9552	0.002709
521.1792	0.003722
521.4033	0.001801
521.6273	0.001548
521.8514	0.003448
522.0755	0.002350
522.2996	0.003173
522.5237	0.003342
522.7478	0.004271
522.9719	0.003258
523.1960	0.003385
523.4202	0.002160
523.6443	0.004250
523.8685	0.002793
524.0927	0.004503
524.3169	0.002498
524.5411	0.003110
524.7653	0.004271
524.9895	0.002456
525.2138	0.003089
525.4380	0.005327
525.6623	0.003954
525.8865	0.005453
526.1108	0.004250
526.3351	0.005263
526.5594	0.003849
526.7837	0.003005
527.0081	0.003786
527.2324	0.004841
527.4568	0.003110
527.6811	0.003131
527.9055	0.003596
528.1299	0.002983
528.3543	0.004904
528.5787	0.005474
528.8031	0.004123
529.0276	0.005664
529.2520	0.004651
529.4765	0.005094
529.7009	0.005728
529.9254	0.005601
530.1499	0.004039
530.3744	0.004440
530.5989	0.004102
530.8234	0.004926
531.0480	0.004757
531.2725	0.004292
531.4971	0.005517
531.7217	0.004250
531.9462	0.004292
532.1708	0.004271
532.3954	0.004883
532.6200	0.006087
532.8447	0.005981
533.0693	0.006614
533.2940	0.005179
533.5186	0.006593
533.7433	0.005327
533.9680	0.007058
534.1927	0.006445
534.4174	0.006382
534.6421	0.006340
534.8668	0.006699
535.0916	0.007015
535.3163	0.008746
535.5411	0.008683
535.7659	0.007965
535.9907	0.007881
536.2155	0.008641
536.4403	0.007712
536.6651	0.006298
536.8899	0.008007
537.1148	0.006108
537.3396	0.007332
537.5645	0.007923
537.7894	0.007818
538.0143	0.009591
538.2392	0.007585
538.4641	0.007712
538.6890	0.008451
538.9139	0.010857
539.1389	0.009844
539.3638	0.009337
539.5888	0.009295
539.8138	0.009865
540.0388	0.011343
540.2638	0.009823
540.4888	0.009316
540.7138	0.009358
540.9389	0.011469
541.1639	0.011469
541.3890	0.011195
541.6140	0.012525
541.8391	0.011089
542.0642	0.012652
542.2893	0.013411
542.5144	0.012103
542.7396	0.013834
542.9647	0.012652
543.1899	0.012060
543.4150	0.012060
543.6402	0.014931
543.8654	0.013433
544.0906	0.014446
544.3158	0.014277
544.5410	0.014699
544.7662	0.014741
544.9915	0.015354
545.2167	0.014741
545.4420	0.013876
545.6673	0.013517
545.8926	0.015375
546.1179	0.015185
546.3432	0.014340
546.5685	0.014594
546.7938	0.015290
547.0192	0.015480
547.2445	0.016578
547.4699	0.018457
547.6953	0.017507
547.9206	0.020990
548.1460	0.020863
548.3715	0.019934
548.5969	0.019174
548.8223	0.020905
549.0478	0.020399
549.2732	0.018815
549.4987	0.018583
549.7242	0.019322
549.9496	0.017739
550.1751	0.019385
550.4007	0.018900
550.6262	0.019301
550.8517	0.018393
551.0773	0.018203
551.3028	0.018224
551.5284	0.018140
551.7540	0.019174
551.9796	0.021729
552.2052	0.022087
552.4308	0.023058
552.6564	0.023143
552.8820	0.022193
553.1077	0.022489
553.3333	0.021053
553.5590	0.022362
553.7847	0.023502
554.0104	0.023037
554.2361	0.022214
554.4618	0.022636
554.6875	0.021665
554.9132	0.023206
555.1390	0.026035
555.3648	0.024177
555.5905	0.027196
555.8163	0.027787
556.0421	0.026478
556.2679	0.024916
556.4937	0.029286
556.7195	0.027133
556.9454	0.024135
557.1712	0.025739
557.3971	0.026858
557.6230	0.027196
557.8488	0.028294
558.0747	0.028631
558.3006	0.025338
558.5266	0.024916
558.7525	0.025613
558.9784	0.023966
559.2044	0.025718
559.4303	0.024958
559.6563	0.026119
559.8823	0.027618
560.1083	0.029096
560.3343	0.032938
560.5603	0.032431
560.7863	0.031882
561.0124	0.033761
561.2384	0.035809
561.4645	0.035513
561.6905	0.035302
561.9166	0.036526
562.1427	0.036210
562.3688	0.033571
562.5949	0.034563
562.8211	0.036146
563.0472	0.034985
563.2733	0.034099
563.4995	0.034901
563.7257	0.036104
563.9519	0.037328
564.1781	0.037603
564.4043	0.040052
564.6305	0.040115
564.8567	0.037983
565.0829	0.040558
565.3092	0.039840
565.5355	0.042500
565.7617	0.040389
565.9880	0.039650
566.2143	0.042226
566.4406	0.044484
566.6669	0.043725
566.8932	0.043915
567.1196	0.046089
567.3459	0.050458
567.5723	0.055060
567.7987	0.057403
568.0250	0.058438
568.2514	0.058776
568.4778	0.061161
568.7043	0.064559
568.9307	0.069499
569.1571	0.073679
569.3836	0.078386
569.6100	0.085711
569.8365	0.095970
570.0630	0.100340
570.2895	0.109290
570.5160	0.106293
570.7425	0.107897
570.9690	0.113428
571.1956	0.122568
571.4221	0.127254
571.6487	0.129112
571.8752	0.135867
572.1018	0.141503
572.3284	0.137661
572.5550	0.129809
572.7816	0.122357
573.0082	0.118958
573.2349	0.127254
573.4615	0.140743
573.6882	0.152058
573.9149	0.157947
574.1415	0.161620
574.3682	0.168291
574.5949	0.175510
574.8216	0.174413
575.0484	0.175363
575.2751	0.177917
575.5018	0.182793
575.7286	0.171288
575.9554	0.162549
576.1821	0.164301
576.4089	0.167827
576.6357	0.173885
576.8626	0.185368
577.0894	0.190667
577.3162	0.192356
577.5431	0.200546
577.7699	0.221339
577.9968	0.249752
578.2237	0.240295
578.4505	0.229909
578.6774	0.219312
578.9044	0.201791
579.1313	0.198899
579.3582	0.193960
579.5851	0.207195
579.8121	0.212958
580.0391	0.207407
580.2660	0.209792
580.4930	0.211840
580.7200	0.203565
580.9470	0.213718
581.1741	0.244665
581.4011	0.296319
581.6281	0.321714
581.8552	0.323783
582.0822	0.321271
582.3093	0.313228
582.5364	0.289712
582.7635	0.264613
582.9906	0.247071
583.2177	0.228094
583.4449	0.214035
583.6720	0.200419
583.8991	0.196472
584.1263	0.201644
584.3535	0.203691
584.5807	0.203755
584.8079	0.213507
585.0351	0.228136
585.2623	0.237487
585.4895	0.235545
585.7167	0.237635
585.9440	0.233033
586.1713	0.220009
586.3985	0.207618
586.6258	0.201158
586.8531	0.204916
587.0804	0.216990
587.3077	0.231218
587.5350	0.234405
587.7624	0.235018
587.9897	0.224991
588.2171	0.209496
588.4445	0.202805
588.6718	0.202467
588.8992	0.195036
589.1266	0.180767
589.3540	0.174117
589.5815	0.168861
589.8089	0.163246
590.0363	0.161641
590.2638	0.158623
590.4913	0.152121
590.7187	0.152121
590.9462	0.138907
591.1737	0.133756
591.4012	0.132532
591.6288	0.135972
591.8563	0.133650
592.0838	0.133228
592.3114	0.138463
592.5389	0.154232
592.7665	0.186234
592.9941	0.202995
593.2217	0.207892
593.4493	0.203396
593.6769	0.205591
593.9046	0.194973
594.1322	0.189168
594.3598	0.178993
594.5875	0.172787
594.8152	0.187690
595.0429	0.198055
595.2705	0.202045
595.4983	0.197928
595.7260	0.184714
595.9537	0.174793
596.1814	0.169705
596.4092	0.155245
596.6369	0.146401
596.8647	0.145788
597.0925	0.149060
597.3203	0.152501
597.5481	0.152839
597.7759	0.155879
598.0037	0.147414
598.2315	0.141461
598.4594	0.144078
598.6872	0.158602
598.9151	0.177136
599.1430	0.189822
599.3709	0.182814
599.5988	0.180365
599.8267	0.177853
600.0546	0.181484
600.2825	0.185875
600.5105	0.184946
600.7384	0.185094
600.9664	0.187268
601.1944	0.186677
601.4223	0.188366
601.6503	0.181970
601.8783	0.174349
602.1064	0.169937
602.3344	0.170529
602.5624	0.171668
602.7905	0.173906
603.0185	0.180281
603.2466	0.184355
603.4747	0.188577
603.7028	0.190772
603.9309	0.188155
604.1590	0.179901
604.3871	0.170972
604.6152	0.165399
604.8434	0.160565
605.0715	0.154443
605.2997	0.160882
605.5279	0.166855
605.7561	0.172935
605.9843	0.177284
606.2125	0.173315
606.4407	0.166138
606.6689	0.163942
606.8972	0.154232
607.1254	0.159826
607.3537	0.160269
607.5819	0.160966
607.8102	0.160966
608.0385	0.159045
608.2668	0.152881
608.4951	0.148237
608.7235	0.143910
608.9518	0.142179
609.1801	0.140764
609.4085	0.135403
609.6369	0.134769
609.8653	0.139076
610.0936	0.152712
610.3220	0.152142
610.5505	0.150601
610.7789	0.146907
611.0073	0.141735
611.2357	0.138379
611.4642	0.137809
611.6927	0.141039
611.9211	0.141630
612.1496	0.135424
612.3781	0.129133
612.6066	0.130674
612.8351	0.134030
613.0637	0.132933
613.2922	0.131033
613.5208	0.129534
613.7493	0.128985
613.9779	0.130294
614.2065	0.130780
614.4351	0.127170
614.6637	0.127888
614.8923	0.127339
615.1209	0.124637
615.3495	0.130547
615.5782	0.132046
615.8068	0.137408
616.0355	0.128014
616.2642	0.120352
616.4929	0.115412
616.7216	0.112900
616.9503	0.113153
617.1790	0.109987
617.4077	0.114589
617.6365	0.111697
617.8652	0.110641
618.0940	0.110430
618.3227	0.111697
618.5515	0.102282
618.7803	0.099031
619.0091	0.091833
619.2379	0.091178
619.4667	0.089701
619.6956	0.092635
619.9244	0.096414
620.1533	0.100340
620.3821	0.097680
620.6110	0.094661
620.8399	0.091221
621.0688	0.080286
621.2977	0.074586
621.5266	0.076697
621.7556	0.077732
621.9845	0.080159
622.2135	0.085204
622.4424	0.082228
622.6714	0.082692
622.9004	0.088413
623.1294	0.090587
623.3584	0.088877
623.5874	0.091115
623.8164	0.088877
624.0454	0.087041
624.2745	0.088476
624.5035	0.091685
624.7326	0.092973
624.9617	0.088856
625.1908	0.088603
625.4199	0.082988
625.6490	0.081025
625.8781	0.083199
626.1072	0.077668
626.3364	0.077394
626.5655	0.074966
626.7947	0.076170
627.0238	0.070977
627.2530	0.070766
627.4822	0.073299
627.7114	0.072222
627.9406	0.072750
628.1698	0.064116
628.3991	0.062237
628.6283	0.060084
628.8576	0.058332
629.0868	0.063483
629.3161	0.061541
629.5454	0.064158
629.7747	0.066438
630.0040	0.063398
630.2333	0.060675
630.4626	0.062934
630.6920	0.059725
630.9213	0.056728
631.1507	0.054870
631.3801	0.053287
631.6094	0.052612
631.8388	0.053393
632.0682	0.053498
632.2976	0.051324
632.5271	0.049656
632.7565	0.048432
632.9859	0.044907
633.2154	0.047271
633.4448	0.044759
633.6743	0.044189
633.9038	0.043535
634.1333	0.046110
634.3628	0.043429
634.5923	0.042374
634.8218	0.042458
635.0514	0.042099
635.2809	0.041065
635.5105	0.041128
635.7400	0.042500
635.9696	0.043598
636.1992	0.045202
636.4288	0.044632
636.6584	0.045730
636.8880	0.045582
637.1177	0.045054
637.3473	0.041846
637.5770	0.041044
637.8066	0.041740
638.0363	0.041297
638.2660	0.042479
638.4957	0.042416
638.7254	0.042036
638.9551	0.042416
639.1848	0.042141
639.4145	0.044168
639.6443	0.039170
639.8740	0.039214
640.1038	0.037161
640.3336	0.037926
640.5633	0.038650
640.7931	0.036397
641.0229	0.034876
641.2528	0.036817
641.4826	0.034751
641.7124	0.034769
641.9423	0.031044
642.1721	0.032144
642.4020	0.031253
642.6319	0.030747
642.8617	0.029549
643.0916	0.029944
643.3216	0.032719
643.5515	0.029943
643.7814	0.030910
644.0113	0.030753
644.2413	0.029341
644.4712	0.027666
644.7012	0.028487
644.9312	0.026590
645.1612	0.028987
645.3912	0.027868
645.6212	0.027597
645.8512	0.027647
646.0812	0.026618
646.3113	0.027715
646.5413	0.026237
646.7714	0.025475
647.0015	0.022354
647.2316	0.024406
647.4616	0.025243
647.6918	0.027248
647.9219	0.027308
648.1520	0.029102
648.3821	0.031021
648.6123	0.031573
648.8424	0.032982
649.0726	0.037774
649.3028	0.035770
649.5329	0.032515
649.7631	0.032634
649.9933	0.032238
650.2236	0.030622
650.4538	0.028704
650.6840	0.030603
650.9143	0.028395
651.1445	0.030315
651.3748	0.029630
651.6051	0.027460
651.8354	0.029654
652.0657	0.032910
652.2960	0.031189
652.5263	0.032840
652.7566	0.032857
652.9870	0.031440
653.2173	0.030101
653.4477	0.033498
653.6780	0.032449
653.9084	0.033294
654.1388	0.033854
654.3692	0.033489
654.5996	0.036309
654.8300	0.039820
655.0605	0.065885
655.2909	0.185413
655.5213	0.526391
655.7518	0.970396
655.9823	1.000000
656.2128	1.000000
656.4433	1.000000
656.6738	1.000000
656.9043	1.000000
657.1348	0.873034
657.3653	0.716175
657.5959	0.625348
657.8264	0.537764
658.0570	0.490533
658.2875	0.455770
658.5181	0.416057
658.7487	0.381777
658.9793	0.376620
659.2099	0.334289
659.4406	0.252578
659.6712	0.166511
659.9018	0.097107
660.1325	0.059965
660.3632	0.040797
660.5938	0.031610
660.8245	0.027065
661.0552	0.025080
661.2859	0.025648
661.5166	0.022163
661.7474	0.024826
661.9781	0.023677
662.2088	0.022186
662.4396	0.023944
662.6704	0.022556
662.9011	0.019844
663.1319	0.021121
663.3627	0.022153
663.5935	0.021361
663.8243	0.023185
664.0552	0.020844
664.2860	0.020083
664.5168	0.020278
664.7477	0.021860
664.9786	0.022401
665.2094	0.024630
665.4403	0.024302
665.6712	0.024977
665.9021	0.024133
666.1330	0.023442
666.3640	0.022276
666.5949	0.022295
666.8259	0.021167
667.0568	0.020473
667.2878	0.020760
667.5188	0.020506
667.7497	0.022592
667.9807	0.019732
668.2117	0.020088
668.4428	0.020272
668.6738	0.022151
668.9048	0.022024
669.1359	0.020905
669.3669	0.021222
669.5980	0.021961
669.8291	0.021517
670.0602	0.020736
670.2913	0.021813
670.5224	0.020969
670.7535	0.024177
670.9846	0.020335
671.2157	0.023375
671.4469	0.026436
671.6781	0.029201
671.9092	0.029687
672.1404	0.034373
672.3716	0.034373
672.6028	0.034289
672.8340	0.033972
673.0652	0.032938
673.2964	0.031418
673.5277	0.031122
673.7589	0.030489
673.9902	0.028294
674.2214	0.028948
674.4527	0.027449
674.6840	0.028272
674.9153	0.027217
675.1466	0.028251
675.3779	0.026267
675.6093	0.026542
675.8406	0.026373
676.0719	0.023544
676.3033	0.024409
676.5347	0.024768
676.7661	0.024726
676.9974	0.022320
677.2288	0.023375
677.4602	0.024008
677.6917	0.026014
677.9231	0.028842
678.1545	0.028399
678.3860	0.027914
678.6174	0.028716
678.8489	0.030003
679.0804	0.031228
679.3119	0.032030
679.5434	0.034014
679.7749	0.035429
680.0064	0.034584
680.2379	0.036463
680.4694	0.033993
680.7010	0.035471
680.9325	0.032853
681.1641	0.034352
681.3957	0.035471
681.6273	0.036041
681.8589	0.033339
682.0905	0.032494
682.3221	0.032304
682.5537	0.031481
682.7854	0.031101
683.0170	0.030468
683.2487	0.030046
683.4803	0.031650
683.7120	0.031249
683.9437	0.032980
684.1754	0.032178
684.4071	0.034141
684.6388	0.037371
684.8705	0.038827
685.1023	0.039292
685.3340	0.040959
685.5658	0.044696
685.7975	0.045814
686.0293	0.045392
686.2611	0.045688
686.4929	0.042922
686.7247	0.043598
686.9565	0.041972
687.1883	0.043936
687.4202	0.046025
687.6520	0.043387
687.8838	0.042268
688.1157	0.042711
688.3476	0.040685
688.5795	0.036843
688.8114	0.036758
689.0433	0.036716
689.2752	0.038405
689.5071	0.037244
689.7390	0.037350
689.9710	0.034605
690.2029	0.034141
690.4349	0.035154
690.6669	0.032832
690.8988	0.033402
691.1308	0.037856
691.3628	0.038109
691.5948	0.039376
691.8269	0.038616
692.0589	0.038468
692.2909	0.039270
692.5230	0.039798
692.7550	0.037223
692.9871	0.037919
693.2192	0.038511
693.4513	0.041381
693.6834	0.039756
693.9155	0.037054
694.1476	0.034436
694.3797	0.035027
694.6119	0.034183
694.8440	0.034584
695.0762	0.036568
695.3083	0.035492
695.5405	0.033191
695.7727	0.029645
696.0049	0.029370
696.2371	0.030383
696.4693	0.031397
696.7016	0.035386
696.9338	0.041065
697.1660	0.039249
697.3983	0.037223
697.6306	0.036948
697.8628	0.036421
698.0951	0.037117
698.3274	0.037434
698.5597	0.037603
698.7920	0.037244
699.0243	0.033761
699.2567	0.038194
699.4890	0.035851
699.7214	0.034035
699.9537	0.033001
700.1861	0.032727
700.4185	0.030658
700.6509	0.032473
700.8833	0.029708
701.1157	0.029961
701.3481	0.028441
701.5806	0.029771
701.8130	0.029412
702.0454	0.028209
702.2779	0.029898
702.5104	0.031312
702.7429	0.031122
702.9753	0.028864
703.2078	0.029940
703.4403	0.029201
703.6729	0.027365
703.9054	0.028462
704.1379	0.027660
704.3705	0.027323
704.6030	0.027048
704.8356	0.027745
705.0682	0.023861
705.3008	0.026563
705.5334	0.023755
705.7660	0.023481
705.9986	0.025296
706.2312	0.026478
706.4638	0.030658
706.6965	0.034183
706.9291	0.034816
707.1618	0.037160
707.3945	0.038088
707.6272	0.040052
707.8599	0.037307
708.0926	0.039566
708.3253	0.039418
708.5580	0.038194
708.7907	0.032874
709.0235	0.035555
709.2562	0.035407
709.4890	0.030932
709.7217	0.034056
709.9545	0.032621
710.1873	0.035154
710.4201	0.034795
710.6529	0.034690
710.8857	0.037434
711.1186	0.034458
711.3514	0.032431
711.5842	0.032051
711.8171	0.031756
712.0500	0.028800
712.2828	0.029244
712.5157	0.028462
712.7486	0.028779
712.9815	0.029792
713.2144	0.029180
713.4474	0.031291
713.6803	0.033930
713.9132	0.036188
714.1462	0.034436
714.3791	0.035555
714.6121	0.033297
714.8451	0.034035
715.0781	0.034859
715.3111	0.035471
715.5441	0.033655
715.7771	0.031819
716.0102	0.032790
716.2432	0.031143
716.4762	0.030383
716.7093	0.029244
716.9424	0.030468
717.1754	0.028674
717.4085	0.028230
717.6416	0.026373
717.8747	0.027238
718.1078	0.028864
718.3410	0.030341
718.5741	0.027491
718.8072	0.029497
719.0404	0.029518
719.2736	0.029497
719.5067	0.031756
719.7399	0.028927
719.9731	0.027534
720.2063	0.028631
720.4395	0.028674
720.6727	0.030658
720.9060	0.031354
721.1392	0.029539
721.3725	0.030362
721.6057	0.030679
721.8390	0.031122
722.0723	0.030320
722.3055	0.030742
722.5388	0.030974
722.7721	0.029096
723.0055	0.027639
723.2388	0.026605
723.4721	0.028842
723.7055	0.027829
723.9388	0.030974
724.1722	0.028294
724.4056	0.025592
724.6389	0.026837
724.8723	0.027576
725.1057	0.029940
725.3391	0.033064
725.5726	0.031988
725.8060	0.032938
726.0394	0.033149
726.2729	0.033001
726.5063	0.032558
726.7398	0.033508
726.9733	0.032114
727.2068	0.031397
727.4403	0.032389
727.6738	0.033550
727.9073	0.033761
728.1408	0.033655
728.3743	0.034162
728.6079	0.033297
728.8414	0.033550
729.0750	0.034795
729.3086	0.034310
729.5421	0.036632
729.7757	0.036864
730.0093	0.038067
730.2429	0.036484
730.4766	0.036716
730.7102	0.041782
730.9438	0.040875
731.1775	0.042817
731.4111	0.041972
731.6448	0.043788
731.8785	0.042986
732.1122	0.044147
732.3458	0.042331
732.5795	0.043302
732.8133	0.043640
733.0470	0.044189
733.2807	0.045941
733.5145	0.042120
733.7482	0.043915
733.9820	0.049656
734.2157	0.050712
734.4495	0.050163
734.6833	0.051429
734.9171	0.049002
735.1509	0.050078
735.3847	0.048516
735.6185	0.047651
735.8524	0.047355
736.0862	0.050416
736.3201	0.048685
736.5539	0.045941
736.7878	0.047440
737.0217	0.046891
737.2556	0.047946
737.4895	0.047482
737.7234	0.048284
737.9573	0.044991
738.1912	0.042458
738.4252	0.039608
738.6591	0.040854
738.8931	0.042057
739.1271	0.046427
739.3610	0.046321
739.5950	0.048031
739.8290	0.047419
740.0630	0.044147
740.2970	0.042141
740.5310	0.040854
740.7651	0.039756
740.9991	0.038933
741.2332	0.036463
741.4672	0.035091
741.7013	0.034373
741.9354	0.035281
742.1695	0.038236
742.4036	0.032938
742.6377	0.036758
742.8718	0.035914
743.1059	0.033085
743.3400	0.030595
743.5742	0.031903
743.8083	0.032832
744.0425	0.029117
744.2767	0.030869
744.5108	0.031080
744.7450	0.028990
744.9792	0.031629
745.2134	0.029412
745.4477	0.027365
745.6819	0.029328
745.9161	0.030299
746.1504	0.027956
746.3846	0.029011
746.6189	0.027069
746.8532	0.027639
747.0874	0.031566
747.3217	0.033001
747.5560	0.032347
747.7903	0.031143
748.0247	0.029919
748.2590	0.029222
748.4933	0.028758
748.7277	0.029919
748.9620	0.031650
749.1964	0.028188
749.4308	0.032473
749.6652	0.034373
749.8995	0.037307
750.1339	0.038299
750.3684	0.039714
750.6028	0.041276
750.8372	0.038384
751.0717	0.038701
751.3061	0.039292
751.5406	0.040009
751.7750	0.039735
752.0095	0.040600
752.2440	0.038890
752.4785	0.037476
752.7130	0.037497
752.9475	0.037075
753.1820	0.038890
753.4166	0.038004
753.6511	0.039270
753.8856	0.044400
754.1202	0.041044
754.3548	0.041381
754.5894	0.040685
754.8239	0.039313
755.0585	0.041107
755.2931	0.042162
755.5278	0.042310
755.7624	0.043155
755.9970	0.044970
756.2317	0.045350
756.4663	0.048727
756.7010	0.051261
756.9356	0.050860
757.1703	0.053435
757.4050	0.055757
757.6397	0.059852
757.8744	0.060443
758.1091	0.057403
758.3438	0.058016
758.5786	0.054469
758.8133	0.052084
759.0481	0.054913
759.2828	0.056137
759.5176	0.061541
759.7524	0.058797
759.9872	0.061098
760.2220	0.060253
760.4568	0.063631
760.6916	0.063821
760.9264	0.064686
761.1613	0.061689
761.3961	0.060823
761.6310	0.057213
761.8658	0.051978
762.1007	0.051577
762.3356	0.049635
762.5705	0.048643
762.8054	0.047799
763.0403	0.049804
763.2752	0.051092
763.5101	0.050965
763.7450	0.047693
763.9800	0.049698
764.2149	0.052253
764.4499	0.055651
764.6849	0.058163
764.9198	0.060127
765.1548	0.058754
765.3898	0.057213
765.6248	0.053308
765.8599	0.051999
766.0949	0.051049
766.3299	0.044316
766.5650	0.042162
766.8000	0.041086
767.0351	0.037582
767.2701	0.039925
767.5052	0.036758
767.7403	0.039756
767.9754	0.039545
768.2105	0.043429
768.4456	0.045709
768.6808	0.048643
768.9159	0.047292
769.1510	0.050543
769.3862	0.047651
769.6214	0.049783
769.8565	0.045793
770.0917	0.047714
770.3269	0.045899
770.5621	0.044843
770.7973	0.048369
771.0325	0.047841
771.2677	0.046870
771.5030	0.047334
771.7382	0.044949
771.9735	0.044062
772.2087	0.038278
772.4440	0.040030
772.6793	0.040938
772.9146	0.040917
773.1499	0.039904
773.3852	0.040115
773.6205	0.039355
773.8558	0.038595
774.0911	0.038511
774.3265	0.035133
774.5618	0.033698
774.7972	0.032431
775.0326	0.030658
775.2679	0.032030
775.5033	0.029075
775.7387	0.028125
775.9741	0.026921
776.2095	0.026816
776.4450	0.026879
776.6804	0.027449
776.9158	0.024536
777.1513	0.025866
777.3868	0.025296
777.6222	0.025824
777.8577	0.024072
778.0932	0.024262
778.3287	0.025782
778.5642	0.029201
778.7997	0.027280
779.0352	0.030299
779.2707	0.029581
779.5063	0.031249
779.7418	0.031502
779.9774	0.028019
780.2130	0.029412
780.4485	0.026753
780.6841	0.027576
780.9197	0.031164
781.1553	0.033550
781.3909	0.034901
781.6265	0.035006
781.8622	0.033444
782.0978	0.034268
782.3335	0.033761
782.5691	0.034584
782.8048	0.036758
783.0405	0.033254
783.2761	0.033782
783.5118	0.035661
783.7475	0.034289
783.9832	0.033951
784.2190	0.032663
784.4547	0.031650
784.6904	0.029370
784.9262	0.030510
785.1619	0.030595
785.3977	0.031608
785.6335	0.028061
785.8692	0.027006
786.1050	0.028652
786.3408	0.027745
786.5766	0.028441
786.8124	0.028315
787.0483	0.027513
787.2841	0.027491
787.5199	0.030172
787.7558	0.031544
787.9917	0.029771
788.2275	0.030573
788.4634	0.031017
788.6993	0.030658
788.9352	0.032325
789.1711	0.029982
789.4070	0.030383
789.6429	0.027513
789.8789	0.028294
790.1148	0.026162
790.3507	0.026014
790.5867	0.025570
790.8227	0.024431
791.0586	0.023248
791.2946	0.024768
791.5306	0.024135
791.7666	0.023755
792.0026	0.024051
792.2387	0.023671
792.4747	0.025254
792.7107	0.022932
792.9468	0.022489
793.1828	0.022467
793.4189	0.021665
793.6550	0.023903
793.8910	0.025929
794.1271	0.030278
794.3632	0.031059
794.5993	0.032009
794.8355	0.033318
795.0716	0.034035
795.3077	0.034204
795.5439	0.030172
795.7800	0.029286
796.0162	0.028230
796.2523	0.025486
796.4885	0.023966
796.7247	0.021264
796.9609	0.022087
797.1971	0.020673
797.4333	0.022636
797.6695	0.022109
797.9058	0.024008
798.1420	0.022024
798.3783	0.022446
798.6145	0.023270
798.8508	0.022362
799.0871	0.023185
799.3233	0.022826
799.5596	0.020525
799.7959	0.021560
800.0322	0.021222
800.2686	0.019364
800.5049	0.021243
800.7412	0.020758
800.9776	0.020905
801.2139	0.019618
801.4503	0.018963
801.6867	0.018077
801.9230	0.018858
802.1594	0.019111
802.3958	0.017612
802.6322	0.017422
802.8686	0.016451
803.1051	0.017992
803.3415	0.015058
803.5779	0.018098
803.8144	0.017654
804.0508	0.018140
804.2873	0.016325
804.5238	0.016472
804.7603	0.018625
804.9968	0.016029
805.2333	0.017042
805.4698	0.015923
805.7063	0.015902
805.9428	0.019723
806.1794	0.020251
806.4159	0.023164
806.6525	0.022995
806.8890	0.023270
807.1256	0.023291
807.3622	0.023164
807.5988	0.020335
807.8354	0.023164
808.0720	0.022847
808.3086	0.023227
808.5452	0.022974
808.7818	0.023734
809.0185	0.021813
809.2551	0.022531
809.4918	0.019681
809.7284	0.020926
809.9651	0.019491
810.2018	0.020821
810.4385	0.017781
810.6752	0.018098
810.9119	0.019385
811.1486	0.018372
811.3853	0.020230
811.6221	0.017823
811.8588	0.017380
812.0956	0.018351
812.3323	0.015206
812.5691	0.014699
812.8059	0.013834
813.0427	0.014340
813.2795	0.015016
813.5163	0.015607
813.7531	0.017633
813.9899	0.018668
814.2267	0.019027
814.4636	0.018119
814.7004	0.016789
814.9373	0.016261
815.1742	0.016958
815.4110	0.015966
815.6479	0.015881
815.8848	0.015839
816.1217	0.014319
816.3586	0.014762
816.5955	0.013348
816.8324	0.014003
817.0694	0.014952
817.3063	0.014931
817.5433	0.013876
817.7802	0.015121
818.0172	0.013855
818.2542	0.015142
818.4912	0.013855
818.7282	0.013686
818.9652	0.013918
819.2022	0.013749
819.4392	0.011786
819.6762	0.012820
819.9133	0.012630
820.1503	0.012525
820.3874	0.013644
820.6244	0.014847
820.8615	0.015164
821.0986	0.016472
821.3357	0.014615
821.5727	0.015079
821.8099	0.015248
822.0470	0.014298
822.2841	0.013601
822.5212	0.014256
822.7584	0.012082
822.9955	0.011469
823.2327	0.012103
823.4698	0.013644
823.7070	0.010604
823.9442	0.010161
824.1814	0.012229
824.4186	0.010414
824.6558	0.011216
824.8930	0.010709
825.1302	0.011301
825.3675	0.012018
825.6047	0.013960
825.8419	0.012187
826.0792	0.013813
826.3165	0.011153
826.5537	0.012124
826.7910	0.013222
827.0283	0.013981
827.2656	0.014699
827.5029	0.015079
827.7402	0.013095
827.9776	0.013454
828.2149	0.012187
828.4522	0.012863
828.6896	0.011913
828.9270	0.012863
829.1643	0.014024
829.4017	0.014425
829.6391	0.010899
829.8765	0.012356
830.1139	0.011681
830.3513	0.011237
830.5887	0.010646
830.8261	0.008007
831.0636	0.009190
831.3010	0.009717
831.5385	0.008662
831.7759	0.007712
832.0134	0.007142
832.2509	0.008683
832.4884	0.006825
832.7259	0.008577
832.9634	0.008261
833.2009	0.009823
833.4384	0.009844
833.6759	0.010140
833.9135	0.007944
834.1510	0.009211
834.3886	0.011871
834.6261	0.010921
834.8637	0.010351
835.1013	0.010287
835.3389	0.009738
835.5765	0.009274
835.8141	0.010562
836.0517	0.009570
836.2893	0.008261
836.5269	0.008556
836.7646	0.008176
837.0022	0.007353
837.2399	0.007269
837.4775	0.007459
837.7152	0.008345
837.9529	0.006319
838.1906	0.006277
838.4283	0.006994
838.6660	0.007311
838.9037	0.005918
839.1414	0.006741
839.3791	0.008831
839.6169	0.005833
839.8546	0.008176
840.0924	0.006868
840.3302	0.008155
840.5679	0.006910
840.8057	0.007628
841.0435	0.005791
841.2813	0.007712
841.5191	0.005685
841.7569	0.007015
841.9947	0.004778
842.2326	0.005664
842.4704	0.005770
842.7082	0.007121
842.9461	0.005474
843.1840	0.006171
843.4218	0.005116
843.6597	0.006192
843.8976	0.005643
844.1355	0.005284
844.3734	0.004947
844.6113	0.004356
844.8492	0.005664
845.0872	0.005495
845.3251	0.006424
845.5631	0.005664
845.8010	0.006889
846.0390	0.007079
846.2770	0.004081
846.5149	0.005200
846.7529	0.005812
846.9909	0.005073
847.2289	0.004672
847.4669	0.005685
847.7050	0.005369
847.9430	0.004440
848.1810	0.004356
848.4191	0.004250
848.6571	0.004398
848.8952	0.005179
849.1333	0.004482
849.3713	0.005284
849.6094	0.005474
849.8475	0.004313
850.0856	0.004250
850.3237	0.006255
850.5619	0.003638
850.8000	0.004482
851.0381	0.003765
851.2763	0.003807
851.5144	0.004144
851.7526	0.004714
851.9908	0.004356
852.2289	0.006340
852.4671	0.006467
852.7053	0.009443
852.9435	0.010203
853.1817	0.015037
853.4200	0.013032
853.6582	0.012166
853.8964	0.014129
854.1347	0.013876
854.3729	0.011659
854.6112	0.014509
854.8495	0.012272
855.0877	0.013517
855.3260	0.012989
855.5643	0.012293
855.8026	0.011934
856.0409	0.013243
856.2792	0.012103
856.5176	0.013390
856.7559	0.010456
856.9942	0.011596
857.2326	0.010055
857.4710	0.012947
857.7093	0.010709
857.9477	0.009802
858.1861	0.009527
858.4245	0.009527
858.6629	0.009084
858.9013	0.010287
859.1397	0.008261
859.3781	0.010203
859.6166	0.007459
859.8550	0.009506
860.0935	0.006424
860.3319	0.008451
860.5704	0.007839
860.8089	0.008113
861.0473	0.006065
861.2858	0.004609
861.5243	0.006023
861.7628	0.005854
862.0013	0.007881
862.2399	0.004947
862.4784	0.004693
862.7169	0.006952
862.9555	0.007290
863.1940	0.007311
863.4326	0.006994
863.6712	0.005960
863.9098	0.007459
864.1483	0.007459
864.3869	0.005200
864.6255	0.005327
864.8642	0.004714
865.1028	0.008261
865.3414	0.005918
865.5800	0.005939
865.8187	0.004588
866.0573	0.005643
866.2960	0.004820
866.5347	0.003976
866.7733	0.004482
867.0120	0.005664
867.2507	0.004926
867.4894	0.005369
867.7281	0.004567
867.9669	0.007839
868.2056	0.005580
868.4443	0.006129
868.6831	0.005601
868.9218	0.003849
869.1606	0.002815
869.3993	0.005010
869.6381	0.004630
869.8769	0.005707
870.1157	0.004862
870.3545	0.005200
870.5933	0.005601
870.8321	0.006213
871.0709	0.005559
871.3097	0.006593
871.5486	0.006656
871.7874	0.004229
872.0263	0.005305
872.2651	0.004546
872.5040	0.003300
872.7429	0.004630
872.9818	0.003385
873.2207	0.005833
873.4596	0.006889
873.6985	0.005897
873.9374	0.004651
874.1763	0.004503
874.4153	0.005495
874.6542	0.006467
874.8932	0.005495
875.1321	0.004588
875.3711	0.006192
875.6101	0.005580
875.8491	0.005580
876.0880	0.006044
876.3270	0.004482
876.5661	0.005559
876.8051	0.006255
877.0441	0.006277
877.2831	0.003954
877.5222	0.006572
877.7612	0.006150
878.0003	0.005960
878.2393	0.007015
878.4784	0.006192
878.7175	0.006277
878.9566	0.005327
879.1957	0.006994
879.4348	0.006593
879.6739	0.008197
879.9130	0.007015
880.1521	0.007079
880.3913	0.007290
880.6304	0.008810
880.8696	0.007269
881.1087	0.009190
881.3479	0.008873
881.5871	0.006868
881.8262	0.008155
882.0654	0.007712
882.3046	0.007754
882.5438	0.006108
882.7831	0.005981
883.0223	0.005897
883.2615	0.007058
883.5007	0.005643
883.7400	0.006023
883.9792	0.006445
884.2185	0.005812
884.4578	0.006488
884.6971	0.007416
884.9363	0.006551
885.1756	0.005221
885.4149	0.006868
885.6542	0.006298
885.8936	0.006572
886.1329	0.005390
886.3722	0.007712
886.6116	0.004546
886.8509	0.005580
887.0903	0.005517
887.3296	0.007754
887.5690	0.005559
887.8084	0.006319
888.0478	0.004820
888.2872	0.005643
888.5266	0.005559
888.7660	0.004968
889.0054	0.005664
889.2448	0.006382
889.4843	0.003828
889.7237	0.005327
889.9632	0.004757
890.2026	0.004546
890.4421	0.003152
890.6816	0.004841
890.9211	0.004102
891.1606	0.004567
891.4001	0.003701
891.6396	0.005960
891.8791	0.003807
892.1186	0.003828
892.3581	0.004292
892.5977	0.006403
892.8372	0.002709
893.0768	0.003997
893.3163	0.005221
893.5559	0.005031
893.7955	0.004208
894.0351	0.004672
894.2747	0.004292
894.5143	0.003385
894.7539	0.003617
894.9935	0.003976
895.2331	0.003912
895.4727	0.004503
895.7124	0.005137
895.9520	0.005791
896.1917	0.005284
896.4314	0.003743
896.6710	0.005179
896.9107	0.005284
897.1504	0.004778
897.3901	0.004546
897.6298	0.006255
897.8695	0.005517
898.1092	0.004630
898.3489	0.005200
898.5887	0.004883
898.8284	0.004926
899.0682	0.005031
899.3079	0.003279
899.5477	0.004356
899.7875	0.004377
900.0272	0.004166
900.2670	0.005137
900.5068	0.003575
900.7466	0.004313
900.9864	0.003786
901.2263	0.003765
901.4661	0.004208
901.7059	0.005284
901.9458	0.003511
902.1856	0.004187
902.4255	0.004229
902.6654	0.006087
902.9052	0.002730
903.1451	0.003954
903.3850	0.004334
903.6249	0.003954
903.8648	0.004461
904.1047	0.004968
904.3446	0.003469
904.5846	0.005538
904.8245	0.004334
905.0644	0.005875
905.3044	0.005284
905.5444	0.004989
905.7843	0.004567
906.0243	0.005137
906.2643	0.005179
906.5043	0.004271
906.7443	0.005327
906.9843	0.004060
907.2243	0.004567
907.4643	0.003385
907.7043	0.003237
907.9444	0.003976
908.1844	0.003849
908.4245	0.003912
908.6645	0.003532
908.9046	0.004567
909.1447	0.002034
909.3847	0.002498
909.6248	0.002772
909.8649	0.004123
910.1050	0.004039
910.3452	0.004377
910.5853	0.003553
910.8254	0.001844
911.0655	0.004651
911.3057	0.004187
911.5458	0.003870
911.7860	0.002139
912.0262	0.002625
912.2663	0.003068
912.5065	0.004883
912.7467	0.003765
912.9869	0.004377
913.2271	0.004187
913.4673	0.003912
913.7075	0.004693
913.9478	0.002899
914.1880	0.002983
914.4283	0.002477
914.6685	0.003532
914.9088	0.002308
915.1490	0.001949
915.3893	0.003786
915.6296	0.002815
915.8699	0.002709
916.1102	0.003237
916.3505	0.004588
916.5908	0.004567
916.8311	0.003638
917.0714	0.004524
917.3118	0.004588
917.5521	0.004503
917.7925	0.004524
918.0328	0.003511
918.2732	0.003300
918.5136	0.004398
918.7539	0.002603
918.9943	0.003385
919.2347	0.004651
919.4751	0.003575
919.7155	0.003807
919.9560	0.003807
920.1964	0.003807
920.4368	0.004081
920.6773	0.002540
920.9177	0.004799
921.1582	0.003131
921.3986	0.003427
921.6391	0.002245
921.8796	0.002435
922.1201	0.002941
922.3606	0.002857
922.6011	0.003026
922.8416	0.003807
923.0821	0.003638
923.3226	0.002540
923.5631	0.003912
923.8037	0.001632
924.0442	0.003743
924.2848	0.004229
924.5254	0.002730
924.7659	0.002983
925.0065	0.002477
925.2471	0.001928
925.4877	0.003300
925.7283	0.003891
925.9689	0.000767
926.2095	0.002836
926.4501	0.002034
926.6908	0.002160
926.9314	0.001421
927.1720	0.001928
927.4127	0.003026
927.6533	0.003385
927.8940	0.001991
928.1347	0.000345
928.3754	0.001654
928.6161	0.001801
928.8568	0.002371
929.0975	0.002815
929.3382	0.002076
929.5789	0.002477
929.8196	0.002181
930.0604	0.003216
930.3011	0.002815
930.5419	0.001949
930.7826	0.000598
931.0234	0.002266
931.2642	0.001274
931.5049	0.002603
931.7457	0.002287
931.9865	0.003068
932.2273	0.002097
932.4681	0.002181
932.7089	0.001379
932.9498	0.001759
933.1906	0.001379
933.4314	0.002899
933.6723	0.001464
933.9131	0.000767
934.1540	0.003300
934.3949	0.002456
934.6358	0.001126
934.8766	0.001421
935.1175	0.001464
935.3584	0.001189
935.5993	0.001632
935.8403	0.001168
936.0812	0.000936
936.3221	0.001442
936.5630	0.001780
936.8040	0.001844
937.0449	0.001780
937.2859	0.001252
937.5269	0.000556
937.7678	0.000429
938.0088	0.001759
938.2498	0.000577
938.4908	0.001316
938.7318	0.000324
938.9728	0.001231
939.2138	0.001865
939.4549	0.002076
939.6959	-0.000310
939.9369	0.002371
940.1780	0.000514
940.4190	0.001759
940.6601	0.001020
940.9012	0.001041
941.1422	0.000957
941.3833	0.001316
941.6244	-0.000035
941.8655	0.001527
942.1066	0.001654
942.3477	0.002012
942.5889	0.001379
942.8300	0.001274
943.0711	0.000239
943.3123	0.001210
943.5534	0.001548
943.7946	0.000176
944.0357	0.001949
944.2769	0.001759
944.5181	0.001442
944.7593	0.002287
945.0005	0.000239
945.2417	0.001442
945.4829	0.000661
945.7241	0.001020
945.9653	0.001696
946.2066	0.001041
946.4478	0.001252
946.6891	0.000851
946.9303	0.001210
947.1716	0.001569
947.4128	-0.000141
947.6541	0.001548
947.8954	0.001569
948.1367	0.000556
948.3780	0.000661
948.6193	-0.000584
948.8606	0.001316
949.1019	0.001105
949.3433	0.000176
949.5846	0.001020
949.8259	0.000704
950.0673	0.001527
950.3086	0.001316
950.5500	0.002540
950.7914	0.001464
951.0327	0.000683
951.2741	0.000683
951.5155	0.001400
951.7569	0.001316
951.9983	0.001105
952.2398	0.000429
952.4812	0.001970
952.7226	0.002012
952.9640	0.001506
953.2055	-0.000774
953.4469	0.001421
953.6884	0.000851
953.9299	0.001801
954.1713	0.001991
954.4128	0.001717
954.6543	0.000535
954.8958	0.000134
955.1373	-0.000014
955.3788	0.001168
955.6203	0.001907
955.8618	0.001400
956.1034	0.001041
956.3449	0.000978
956.5865	0.000197
956.8280	0.001084
957.0696	-0.000310
957.3111	0.002435
957.5527	0.000894
957.7943	0.000324
958.0359	0.000851
958.2775	0.000239
958.5191	0.001105
958.7607	0.001020
959.0023	0.000324
959.2439	0.000113
959.4856	-0.000014
959.7272	0.000493
959.9688	0.000345
960.2105	0.000387
960.4522	0.001252
960.6938	0.001295
960.9355	-0.000162
961.1772	0.000239
961.4189	-0.000563
961.6606	0.000577
961.9023	0.000661
962.1440	0.001907
962.3857	0.000704
962.6274	0.002224
962.8692	0.001189
963.1109	0.002414
963.3527	0.000134
963.5944	0.000746
963.8362	0.001379
964.0779	0.001569
964.3197	0.001442
964.5615	0.001421
964.8033	0.000957
965.0451	0.000851
965.2869	0.000007
965.5287	0.000809
965.7705	-0.000373
966.0123	0.001084
966.2542	-0.000035
966.4960	-0.000753
966.7379	0.001168
966.9797	-0.000120
967.2216	0.000260
967.4634	0.001041
967.7053	-0.001639
967.9472	0.000218
968.1891	0.001632
968.4310	0.000809
968.6729	0.000704
968.9148	0.001442
969.1567	0.001105
969.3987	0.000303
969.6406	0.001337
969.8825	0.000873
970.1245	-0.000162
970.3664	0.000915
970.6084	0.000303
970.8504	0.002012
971.0923	-0.000225
971.3343	0.001316
971.5763	0.000239
971.8183	0.001084
972.0603	0.000936
972.3023	0.000915
972.5443	-0.000035
972.7864	0.000218
973.0284	0.000535
973.2704	-0.000605
973.5125	0.001379
973.7545	0.000239
973.9966	-0.000373
974.2387	0.001485
974.4807	-0.000141
974.7228	0.000809
974.9649	0.000556
975.2070	0.000113
975.4491	-0.000056
975.6912	0.000873
975.9333	0.001442
976.1755	0.000704
976.4176	-0.000605
976.6597	0.001485
976.9019	-0.000732
977.1440	0.001210
977.3862	0.000324
977.6283	0.000493
977.8705	-0.000246
978.1127	0.001506
978.3549	0.001189
978.5971	0.000239
978.8393	-0.000415
979.0815	0.000746
979.3237	0.000218
979.5659	-0.000563
979.8082	0.000661
980.0504	0.000704
980.2926	0.000091
980.5349	0.000619
980.7771	0.001252
981.0194	0.001147
981.2617	-0.000204
981.5040	0.001252
981.7462	-0.000753
981.9885	-0.000077
982.2308	-0.000014
982.4731	0.001020
982.7155	0.000619
982.9578	-0.000225
983.2001	-0.000436
983.4424	0.000535
983.6848	-0.000753
983.9271	0.001337
984.1695	-0.000267
984.4118	0.000661
984.6542	0.000324
984.8966	0.000197
985.1390	-0.000331
985.3814	0.000155
985.6238	0.000493
985.8662	0.000978
986.1086	-0.000183
986.3510	0.001506
986.5934	-0.000626
986.8358	0.000471
987.0783	0.001020
987.3207	0.000345
987.5632	-0.000584
987.8056	0.001210
988.0481	0.000281
988.2906	-0.001492
988.5331	-0.000711
988.7756	0.001548
989.0180	-0.000183
989.2605	0.000091
989.5031	0.000429
989.7456	-0.000500
989.9881	-0.000605
990.2306	0.001168
990.4732	0.000683
990.7157	0.001548
990.9582	0.000028
991.2008	0.001063
991.4434	-0.000331
991.6859	0.000577
991.9285	-0.000563
992.1711	0.001041
992.4137	0.000113
992.6563	-0.000500
992.8989	-0.000732
993.1415	0.000830
993.3841	-0.000478
993.6267	-0.000394
993.8694	-0.000288
994.1120	0.000176
994.3547	-0.000267
994.5973	0.002371
994.8400	-0.000352
995.0826	-0.000436
995.3253	0.000704
995.5680	0.000281
995.8107	0.000683
996.0534	0.000598
996.2961	-0.000035
996.5388	0.000978
996.7815	0.001020
997.0242	0.000387
997.2670	-0.000668
997.5097	0.000091
997.7524	0.000345
997.9952	-0.000500
998.2379	-0.000246
998.4807	-0.000500
998.7235	-0.001006
998.9662	0.001020
999.2090	-0.000415
999.4518	0.000493
999.6946	0.000070
999.9374	0.000619
1000.1802	0.002983
1000.4230	-0.000584
1000.6659	-0.000373
1000.9087	0.000113
1001.1515	-0.000394
1001.3944	-0.000500
1001.6372	0.000260
1001.8801	0.000450
1002.1230	-0.001175
1002.3658	0.000113
1002.6087	0.000028
1002.8516	-0.000373
1003.0945	0.001907
1003.3374	-0.000880
1003.5803	0.001527
1003.8232	-0.000584
1004.0661	-0.001323
1004.3091	-0.000500
1004.5520	-0.001555
1004.7949	0.000387
1005.0379	0.000028
1005.2808	-0.002062
1005.5238	-0.000964
1005.7667	-0.000246
1006.0097	0.000809
1006.2527	-0.000373
1006.4957	-0.000225
1006.7387	-0.000352
1006.9817	0.001506
1007.2247	-0.001956
1007.4677	0.000091
1007.7107	-0.000500
1007.9538	0.000999
1008.1968	-0.000120
1008.4398	0.000746
1008.6829	0.000239
1008.9259	0.000788
1009.1690	-0.000077
1009.4121	0.000661
1009.6551	0.000725
1009.8982	-0.000056
1010.1413	-0.001597
1010.3844	0.000514
1010.6275	0.000535
1010.8706	-0.000246
1011.1137	-0.000753
1011.3568	0.000007
1011.6000	-0.001323
1011.8431	0.000640
1012.0863	0.001295
1012.3294	0.001105
1012.5726	-0.000415
1012.8157	0.001696
1013.0589	-0.000668
1013.3021	0.000999
1013.5452	-0.000267
1013.7884	0.000999
1014.0316	0.000936
1014.2748	-0.000225
1014.5180	0.000091
1014.7613	-0.000647
1015.0045	-0.000225
1015.2477	-0.000985
1015.4909	-0.000288
1015.7342	0.000113
1015.9774	0.000978
1016.2207	0.002857
1016.4640	-0.000732
1016.7072	0.000176
1016.9505	0.000767
1017.1938	0.001337
1017.4371	-0.000077
1017.6804	0.000176
1017.9237	0.000746
1018.1670	0.000535
1018.4103	0.000007
1018.6536	0.001485
1018.8969	-0.000077
1019.1403	0.000725
1019.3836	0.000978
1019.6270	0.000007
1019.8703	-0.001534
1020.1137	0.001210
1020.3571	-0.001027
1020.6004	0.002350
1020.8438	0.000113
1021.0872	-0.001006
1021.3306	-0.001027
1021.5740	0.001569
1021.8174	-0.001829
1022.0608	0.000281
1022.3042	-0.000816
1022.5477	-0.000014
1022.7911	-0.000626
1023.0345	-0.000014
