# Wavelength (nm)	Intensity (a.u.)
197.7802	-0.000697
197.9842	-0.000401
198.1882	-0.000190
198.3922	0.000190
198.5963	-0.000169
198.8003	0.000655
199.0044	-0.000190
199.2085	-0.000380
199.4126	-0.000528
199.6168	0.000929
199.8209	0.000042
200.0251	-0.000338
200.2292	0.000443
200.4334	-0.001267
200.6376	0.000275
200.8418	0.000591
201.0461	0.000422
201.2503	0.000253
201.4546	-0.000296
201.6589	0.000211
201.8631	0.001816
202.0674	0.000190
202.2718	0.001098
202.4761	0.000929
202.6805	0.000232
202.8848	-0.000211
203.0892	0.000676
203.2936	-0.000465
203.4980	0.000063
203.7024	0.000992
203.9069	-0.000296
204.1113	-0.000148
204.3158	-0.000338
204.5203	0.000929
204.7248	0.000971
204.9293	-0.000528
205.1338	-0.000992
205.3384	-0.000380
205.5430	0.000824
205.7475	-0.001922
205.9521	-0.000063
206.1567	-0.001330
206.3614	-0.000084
206.5660	0.001225
206.7706	0.000929
206.9753	-0.000591
207.1800	-0.000338
207.3847	-0.000866
207.5894	0.000633
207.7941	-0.000127
207.9989	0.000486
208.2036	0.000169
208.4084	-0.000655
208.6132	-0.000950
208.8180	-0.000253
209.0228	0.000486
209.2276	0.001837
209.4325	0.001014
209.6373	0.000063
209.8422	0.000380
210.0471	0.001943
210.2520	-0.000253
210.4569	0.000486
210.6618	-0.000612
210.8668	0.000317
211.0718	-0.000275
211.2767	0.001035
211.4817	0.000359
211.6867	0.001246
211.8918	0.000275
212.0968	0.000676
212.3018	-0.000211
212.5069	0.000443
212.7120	0.000042
212.9171	-0.000042
213.1222	0.000000
213.3273	0.000084
213.5325	-0.000528
213.7376	0.001077
213.9428	-0.000127
214.1480	0.000887
214.3532	0.000887
214.5584	0.000401
214.7636	-0.000338
214.9689	-0.000317
215.1741	0.000655
215.3794	0.001626
215.5847	-0.001922
215.7900	0.000275
215.9953	0.001668
216.2007	0.000950
216.4060	0.000465
216.6114	0.000359
216.8168	0.000401
217.0222	-0.000190
217.2276	0.000591
217.4330	0.000718
217.6384	0.000887
217.8439	0.001478
218.0494	-0.000338
218.2548	0.000042
218.4603	0.000296
218.6659	0.000866
218.8714	-0.000507
219.0769	0.000992
219.2825	-0.000486
219.4881	0.001964
219.6936	-0.000380
219.8992	0.000929
220.1049	0.000211
220.3105	0.000084
220.5161	0.000866
220.7218	0.000127
220.9275	-0.001014
221.1332	0.001563
221.3389	-0.000760
221.5446	0.001204
221.7503	0.000401
221.9561	0.000781
222.1618	-0.000148
222.3676	0.002091
222.5734	0.000486
222.7792	0.000950
222.9850	-0.001732
223.1909	-0.000338
223.3967	0.001373
223.6026	0.000676
223.8085	-0.000253
224.0144	0.001753
224.2203	0.000824
224.4262	0.000253
224.6322	-0.000084
224.8381	-0.000486
225.0441	0.000591
225.2501	0.000655
225.4561	0.000845
225.6621	0.000655
225.8681	0.001563
226.0742	0.000549
226.2802	0.000401
226.4863	0.000845
226.6924	0.000824
226.8985	0.001098
227.1046	0.000929
227.3107	0.000633
227.5169	-0.000317
227.7230	0.000338
227.9292	-0.000253
228.1354	0.000021
228.3416	0.000781
228.5478	0.000655
228.7541	-0.000655
228.9603	0.000929
229.1666	-0.001478
229.3729	0.001056
229.5791	-0.000148
229.7855	0.000063
229.9918	-0.000443
230.1981	0.001394
230.4045	0.001161
230.6108	-0.000401
230.8172	-0.000655
231.0236	0.000507
231.2300	-0.000866
231.4364	0.000655
231.6429	-0.001183
231.8493	0.000549
232.0558	0.001267
232.2623	-0.001351
232.4688	-0.000401
232.6753	0.001753
232.8818	0.000021
233.0884	0.001077
233.2949	0.000042
233.5015	0.000190
233.7081	-0.000190
233.9147	-0.000296
234.1213	0.000000
234.3279	0.000528
234.5346	-0.001056
234.7413	-0.000866
234.9479	-0.001626
235.1546	-0.000232
235.3613	0.000486
235.5680	0.000591
235.7748	-0.001098
235.9815	0.000253
236.1883	-0.001056
236.3951	0.001225
236.6018	0.000422
236.8087	0.000507
237.0155	0.000486
237.2223	0.000422
237.4292	0.000465
237.6360	0.000169
237.8429	0.000190
238.0498	0.001225
238.2567	-0.000655
238.4636	0.000422
238.6706	0.001098
238.8775	0.001394
239.0845	-0.000612
239.2915	-0.001140
239.4985	-0.000591
239.7055	0.000781
239.9125	-0.000063
240.1195	-0.000106
240.3266	0.000781
240.5337	0.000887
240.7407	-0.000169
240.9478	0.001014
241.1549	-0.000824
241.3621	0.001098
241.5692	0.000106
241.7764	0.000676
241.9835	-0.000718
242.1907	0.000190
242.3979	0.000781
242.6051	0.001204
242.8124	-0.001014
243.0196	0.000253
243.2269	0.000739
243.4341	0.000169
243.6414	-0.000211
243.8487	0.000422
244.0560	0.000232
244.2634	0.000275
244.4707	-0.000338
244.6781	-0.000549
244.8854	0.000570
245.0928	0.000992
245.3002	0.000148
245.5076	0.000000
245.7151	0.000549
245.9225	-0.000021
246.1300	0.000887
246.3375	0.001225
246.5449	0.000971
246.7524	-0.000042
246.9600	0.000063
247.1675	0.000570
247.3750	-0.000612
247.5826	-0.000127
247.7902	-0.000633
247.9978	0.000760
248.2054	-0.000275
248.4130	0.000528
248.6206	-0.000655
248.8283	0.000443
249.0359	-0.001225
249.2436	-0.000950
249.4513	-0.000253
249.6590	-0.000697
249.8667	-0.000887
250.0745	-0.000211
250.2822	0.001542
250.4900	-0.000401
250.6978	0.000338
250.9056	0.000106
251.1134	-0.001900
251.3212	-0.000127
251.5290	-0.000802
251.7369	0.000211
251.9447	-0.000633
252.1526	0.001288
252.3605	0.000338
252.5684	-0.000676
252.7763	-0.001014
252.9843	0.001056
253.1922	0.000317
253.4002	-0.000084
253.6082	0.001309
253.8162	0.000380
254.0242	-0.000887
254.2322	-0.000169
254.4402	0.000190
254.6483	0.001436
254.8564	-0.000486
255.0644	-0.000063
255.2725	0.000887
255.4806	0.000824
255.6888	0.001140
255.8969	0.000211
256.1051	0.000422
256.3132	0.001964
256.5214	-0.000992
256.7296	-0.000232
256.9378	0.000338
257.1460	0.000781
257.3543	0.000422
257.5625	-0.000021
257.7708	0.001330
257.9791	0.000021
258.1874	-0.000739
258.3957	0.001246
258.6040	-0.000253
258.8124	0.000190
259.0207	-0.000042
259.2291	0.000063
259.4375	0.000317
259.6459	0.000697
259.8543	0.000232
260.0627	0.001098
260.2711	-0.000106
260.4796	-0.000824
260.6881	0.000739
260.8965	0.000866
261.1050	0.000275
261.3135	-0.000317
261.5221	-0.000570
261.7306	0.000992
261.9392	0.000908
262.1477	-0.000148
262.3563	0.000021
262.5649	0.000570
262.7735	0.000359
262.9822	0.001035
263.1908	-0.000739
263.3995	0.000169
263.6081	0.000507
263.8168	0.001436
264.0255	-0.000760
264.2342	0.000697
264.4429	0.000739
264.6517	0.000992
264.8604	0.000296
265.0692	0.000042
265.2780	0.000929
265.4868	0.000591
265.6956	0.000443
265.9044	-0.000253
266.1133	0.001077
266.3221	0.000845
266.5310	-0.000084
266.7399	-0.000127
266.9488	0.000465
267.1577	0.000655
267.3666	0.000697
267.5755	-0.000275
267.7845	0.000211
267.9935	-0.000486
268.2024	-0.000380
268.4114	0.002027
268.6205	0.000655
268.8295	0.001140
269.0385	-0.000275
269.2476	0.000718
269.4566	0.000063
269.6657	0.001035
269.8748	0.000063
270.0839	0.000465
270.2931	0.000380
270.5022	0.000697
270.7114	-0.000084
270.9205	0.000781
271.1297	0.000739
271.3389	0.001204
271.5481	0.000296
271.7573	-0.000802
271.9666	-0.000507
272.1758	0.000190
272.3851	0.001436
272.5944	0.000760
272.8037	-0.000781
273.0130	-0.000148
273.2223	-0.000718
273.4316	0.000190
273.6410	0.000169
273.8504	-0.000042
274.0597	0.000697
274.2691	0.001119
274.4785	-0.000275
274.6880	0.000359
274.8974	0.000317
275.1069	0.001373
275.3163	0.000106
275.5258	0.001077
275.7353	0.000866
275.9448	-0.000275
276.1543	0.000000
276.3639	-0.000633
276.5734	0.001204
276.7830	0.001056
276.9926	-0.000781
277.2022	-0.000063
277.4118	0.000697
277.6214	0.000824
277.8310	0.001098
278.0407	0.000127
278.2503	0.001035
278.4600	0.000676
278.6697	0.001014
278.8794	0.000591
279.0891	-0.000929
279.2989	0.000401
279.5086	0.001563
279.7184	0.001035
279.9281	0.000084
280.1379	-0.000380
280.3477	0.000739
280.5576	0.000718
280.7674	0.000760
280.9772	0.000253
281.1871	0.000317
281.3970	0.000591
281.6069	0.000063
281.8168	0.000401
282.0267	-0.001183
282.2366	0.000739
282.4466	-0.000486
282.6565	0.000190
282.8665	0.000971
283.0765	0.000443
283.2865	-0.000992
283.4965	-0.000401
283.7065	-0.000106
283.9166	0.000739
284.1266	-0.000148
284.3367	0.000845
284.5468	0.000507
284.7569	0.001795
284.9670	-0.000591
285.1771	0.000528
285.3873	0.001183
285.5974	0.001014
285.8076	-0.000824
286.0178	-0.000275
286.2280	-0.000211
286.4382	0.002175
286.6484	-0.001246
286.8587	0.000127
287.0689	0.000296
287.2792	0.000465
287.4895	0.000211
287.6998	-0.000718
287.9101	0.000000
288.1204	-0.000760
288.3308	0.000676
288.5411	-0.000401
288.7515	-0.001478
288.9619	0.001035
289.1723	-0.000380
289.3827	-0.000211
289.5931	-0.000781
289.8035	-0.000021
290.0140	-0.001098
290.2245	0.001035
290.4349	0.001563
290.6454	0.001415
290.8559	-0.000549
291.0665	0.001098
291.2770	0.001415
291.4875	-0.000380
291.6981	0.000697
291.9087	0.000317
292.1193	0.000338
292.3299	0.001373
292.5405	0.000486
292.7511	0.000570
292.9618	0.000021
293.1724	0.001077
293.3831	0.000190
293.5938	0.000591
293.8045	-0.000422
294.0152	0.000971
294.2260	0.000824
294.4367	-0.000422
294.6475	0.001922
294.8582	0.000929
295.0690	0.000106
295.2798	0.001035
295.4906	-0.001204
295.7015	0.001626
295.9123	-0.000612
296.1232	-0.000084
296.3340	-0.001140
296.5449	-0.000655
296.7558	0.000296
296.9667	0.000148
297.1777	0.000739
297.3886	0.000971
297.5995	0.001183
297.8105	0.001183
298.0215	-0.000929
298.2325	-0.000866
298.4435	0.000570
298.6545	0.001077
298.8656	-0.000148
299.0766	0.000338
299.2877	-0.000021
299.4988	-0.000570
299.7099	-0.000338
299.9210	0.000338
300.1321	-0.001436
300.3432	0.000845
300.5544	-0.000253
300.7655	-0.000528
300.9767	-0.000591
301.1879	0.001077
301.3991	0.000401
301.6103	-0.000063
301.8215	-0.000127
302.0328	0.000401
302.2441	-0.001267
302.4553	0.000190
302.6666	0.000401
302.8779	0.000549
303.0892	-0.000127
303.3006	0.001584
303.5119	0.000971
303.7233	0.001161
303.9346	0.000000
304.1460	0.001288
304.3574	-0.000380
304.5688	0.001647
304.7803	-0.000401
304.9917	-0.001077
305.2031	0.000549
305.4146	-0.000824
305.6261	-0.000528
305.8376	0.000950
306.0491	-0.000443
306.2606	-0.000338
306.4722	0.001119
306.6837	0.000338
306.8953	-0.000338
307.1069	0.000528
307.3184	-0.000042
307.5301	-0.000359
307.7417	-0.001098
307.9533	-0.001098
308.1650	-0.000739
308.3766	0.000507
308.5883	0.000633
308.8000	0.000824
309.0117	-0.001436
309.2234	0.000612
309.4351	0.000296
309.6469	0.001457
309.8586	-0.000570
310.0704	-0.000211
310.2822	-0.000211
310.4940	0.000908
310.7058	-0.001098
310.9176	0.000232
311.1295	0.000021
311.3413	0.001035
311.5532	-0.000612
311.7651	0.000084
311.9770	0.000169
312.1889	-0.000084
312.4008	0.000718
312.6127	0.000000
312.8247	-0.000908
313.0366	0.001394
313.2486	-0.000338
313.4606	0.000232
313.6726	-0.000211
313.8846	0.001014
314.0967	-0.000929
314.3087	0.000211
314.5208	0.000507
314.7328	-0.000655
314.9449	-0.001689
315.1570	-0.000084
315.3692	-0.000950
315.5813	-0.000169
315.7934	-0.001837
316.0056	0.000253
316.2177	0.000845
316.4299	0.000063
316.6421	0.000169
316.8543	0.000549
317.0666	0.002175
317.2788	0.000465
317.4911	-0.002006
317.7033	0.001014
317.9156	-0.000486
318.1279	-0.000908
318.3402	0.000549
318.5525	0.000253
318.7649	0.000169
318.9772	0.001140
319.1896	0.000802
319.4019	0.000549
319.6143	-0.000127
319.8267	0.001035
320.0392	0.000591
320.2516	0.001436
320.4640	0.000338
320.6765	-0.000697
320.8890	-0.000570
321.1014	-0.000338
321.3139	-0.001436
321.5265	0.000655
321.7390	-0.000971
321.9515	-0.001056
322.1641	-0.000655
322.3766	0.000570
322.5892	-0.000655
322.8018	0.001077
323.0144	0.000021
323.2270	-0.000612
323.4397	-0.000401
323.6523	-0.000127
323.8650	-0.000190
324.0777	0.000760
324.2904	0.000908
324.5031	-0.000845
324.7158	-0.000507
324.9285	-0.000253
325.1412	0.000992
325.3540	0.000127
325.5668	0.000127
325.7796	0.001542
325.9924	-0.001204
326.2052	0.000781
326.4180	0.000486
326.6308	0.001330
326.8437	0.000866
327.0566	-0.000950
327.2694	0.000570
327.4823	0.000992
327.6952	-0.000380
327.9082	0.000802
328.1211	0.000443
328.3340	-0.000127
328.5470	0.000021
328.7600	0.000676
328.9730	-0.000063
329.1860	0.000084
329.3990	0.001288
329.6120	0.001330
329.8251	0.000992
330.0381	-0.000169
330.2512	-0.000422
330.4643	0.001098
330.6774	0.000802
330.8905	0.001056
331.1036	-0.000992
331.3167	-0.000401
331.5299	-0.001204
331.7431	0.000676
331.9562	0.001288
332.1694	0.000317
332.3826	0.000992
332.5959	0.001415
332.8091	-0.000697
333.0223	-0.000718
333.2356	0.000253
333.4489	0.001584
333.6622	-0.000127
333.8755	0.001373
334.0888	0.001542
334.3021	0.000781
334.5154	0.000718
334.7288	0.001499
334.9422	-0.000380
335.1555	0.001922
335.3689	0.000169
335.5823	-0.000253
335.7958	0.001056
336.0092	0.000633
336.2227	0.000211
336.4361	0.002217
336.6496	-0.000190
336.8631	-0.000106
337.0766	0.000739
337.2901	-0.000296
337.5036	0.001605
337.7172	0.001626
337.9307	-0.000612
338.1443	-0.001140
338.3579	0.000211
338.5715	0.000042
338.7851	-0.000401
338.9987	-0.000084
339.2124	-0.000845
339.4260	-0.000486
339.6397	0.000422
339.8533	0.000443
340.0670	-0.000443
340.2807	0.001563
340.4945	-0.000063
340.7082	-0.000296
340.9219	0.000401
341.1357	-0.000401
341.3495	-0.001330
341.5633	0.000000
341.7771	0.000845
341.9909	0.000000
342.2047	0.000190
342.4185	0.000253
342.6324	0.001035
342.8463	0.000655
343.0601	0.001605
343.2740	0.000528
343.4879	0.000063
343.7019	0.000232
343.9158	-0.000106
344.1297	0.000443
344.3437	-0.000676
344.5577	0.000845
344.7717	0.001183
344.9857	0.000697
345.1997	-0.000253
345.4137	-0.000232
345.6277	0.000401
345.8418	0.000021
346.0559	0.000507
346.2699	-0.000718
346.4840	-0.000317
346.6981	-0.000401
346.9123	0.000676
347.1264	0.000824
347.3406	-0.001267
347.5547	0.001373
347.7689	-0.000359
347.9831	0.001014
348.1973	-0.000211
348.4115	0.000697
348.6257	0.000317
348.8400	-0.000507
349.0542	0.000127
349.2685	0.000021
349.4828	0.001267
349.6971	-0.000401
349.9114	0.000253
350.1257	0.001330
350.3400	-0.000887
350.5544	-0.000190
350.7687	0.001161
350.9831	0.000317
351.1975	-0.000106
351.4119	0.000296
351.6263	0.000169
351.8407	0.001161
352.0552	-0.000275
352.2696	0.000824
352.4841	0.000042
352.6986	0.000211
352.9131	0.000063
353.1276	0.001520
353.3421	0.000084
353.5566	0.000000
353.7712	-0.000781
353.9858	0.001161
354.2003	0.001246
354.4149	0.000253
354.6295	-0.000232
354.8441	0.000612
355.0588	0.000275
355.2734	-0.000106
355.4881	0.000824
355.7027	0.000063
355.9174	0.000084
356.1321	0.000992
356.3468	0.000401
356.5615	-0.000106
356.7763	-0.000380
356.9910	0.001457
357.2058	0.001161
357.4206	0.001288
357.6353	-0.000591
357.8501	0.000676
358.0650	-0.000253
358.2798	0.001478
358.4946	0.000866
358.7095	0.000676
358.9243	0.000570
359.1392	0.002006
359.3541	-0.000338
359.5690	-0.000422
359.7839	-0.000275
359.9989	0.000971
360.2138	0.000697
360.4288	-0.000591
360.6438	0.000486
360.8587	0.001753
361.0737	0.000507
361.2888	-0.000106
361.5038	0.000486
361.7188	0.000190
361.9339	-0.000422
362.1489	-0.000232
362.3640	-0.000781
362.5791	0.002091
362.7942	0.001225
363.0093	0.000908
363.2245	0.000317
363.4396	0.000612
363.6548	0.001204
363.8699	0.001795
364.0851	-0.000317
364.3003	0.000211
364.5155	0.000338
364.7308	0.001098
364.9460	0.001204
365.1612	-0.000781
365.3765	0.000169
365.5918	-0.000549
365.8071	0.001288
366.0224	0.000338
366.2377	0.000253
366.4530	0.000317
366.6684	0.002217
366.8837	-0.000253
367.0991	-0.000401
367.3145	0.001478
367.5299	-0.000190
367.7453	0.000802
367.9607	0.000275
368.1761	0.000866
368.3916	-0.001415
368.6070	0.002175
368.8225	-0.000211
369.0380	0.000887
369.2535	-0.000296
369.4690	0.000718
369.6845	-0.000549
369.9001	0.000422
370.1156	-0.000084
370.3312	0.000063
370.5468	-0.000275
370.7624	0.001035
370.9780	-0.000021
371.1936	-0.000296
371.4092	-0.000232
371.6249	0.000591
371.8405	0.001605
372.0562	0.000760
372.2719	-0.000021
372.4876	0.000781
372.7033	0.000127
372.9190	0.000084
373.1348	0.001309
373.3505	0.000570
373.5663	0.000042
373.7820	0.000042
373.9978	-0.000612
374.2136	0.000887
374.4294	-0.000296
374.6453	-0.000612
374.8611	0.000106
375.0770	0.000929
375.2928	0.000000
375.5087	-0.000528
375.7246	-0.001394
375.9405	0.001183
376.1564	0.001584
376.3724	-0.000655
376.5883	0.000401
376.8043	0.000971
377.0203	0.001689
377.2362	-0.000528
377.4522	-0.000486
377.6682	0.000781
377.8843	0.000338
378.1003	0.000359
378.3164	-0.000486
378.5324	0.000845
378.7485	0.000528
378.9646	0.000633
379.1807	0.001014
379.3968	0.001288
379.6129	0.000380
379.8291	0.000549
380.0452	-0.000929
380.2614	0.000401
380.4776	0.000106
380.6938	0.001098
380.9100	0.001520
381.1262	0.000380
381.3424	0.000422
381.5587	0.000042
381.7749	0.000739
381.9912	0.000422
382.2075	-0.000317
382.4238	0.000486
382.6401	-0.001288
382.8564	0.002069
383.0728	0.001943
383.2891	0.000422
383.5055	-0.000127
383.7219	-0.000655
383.9382	-0.000845
384.1546	-0.000042
384.3711	0.001837
384.5875	0.000633
384.8039	-0.000612
385.0204	0.001204
385.2368	0.001267
385.4533	0.000275
385.6698	-0.000275
385.8863	0.003062
386.1028	-0.000169
386.3194	-0.000443
386.5359	0.000232
386.7525	0.000549
386.9690	0.000021
387.1856	0.000127
387.4022	0.000253
387.6188	0.000929
387.8355	0.000612
388.0521	0.000718
388.2687	-0.000253
388.4854	0.001246
388.7021	0.000676
388.9188	-0.000021
389.1355	0.000317
389.3522	0.001204
389.5689	0.000971
389.7856	0.000655
390.0024	0.000697
390.2192	0.000718
390.4359	0.000824
390.6527	0.000866
390.8695	0.000528
391.0863	0.000443
391.3032	0.001014
391.5200	0.001774
391.7369	0.001985
391.9537	0.002154
392.1706	0.002154
392.3875	0.001309
392.6044	0.000063
392.8213	0.002091
393.0383	0.001140
393.2552	0.000971
393.4722	0.000760
393.6891	0.000317
393.9061	0.000929
394.1231	0.000929
394.3401	0.000845
394.5572	0.000697
394.7742	0.001288
394.9912	0.002217
395.2083	0.000676
395.4254	0.002302
395.6425	0.001879
395.8596	0.003463
396.0767	0.002471
396.2938	0.002386
396.5109	0.001584
396.7281	0.002091
396.9453	0.003421
397.1624	0.002851
397.3796	0.003526
397.5968	0.003336
397.8140	0.002112
398.0313	0.003189
398.2485	0.001647
398.4658	0.002766
398.6830	0.002851
398.9003	0.003294
399.1176	0.004751
399.3349	0.005047
399.5522	0.002809
399.7696	0.004667
399.9869	0.004033
400.2043	0.003125
400.4216	0.003146
400.6390	0.002618
400.8564	0.005807
401.0738	0.004434
401.2912	0.004308
401.5087	0.005068
401.7261	0.003885
401.9436	0.005596
402.1610	0.004625
402.3785	0.004962
402.5960	0.005216
402.8135	0.005237
403.0310	0.005300
403.2486	0.005976
403.4661	0.006398
403.6837	0.005385
403.9013	0.005406
404.1189	0.006567
404.3365	0.005997
404.5541	0.007243
404.7717	0.006103
404.9893	0.007180
405.2070	0.006588
405.4246	0.005934
405.6423	0.006778
405.8600	0.008785
406.0777	0.006441
406.2954	0.006926
406.5131	0.006251
406.7309	0.006736
406.9486	0.007623
407.1664	0.005723
407.3842	0.006947
407.6020	0.006694
407.8198	0.007222
408.0376	0.007813
408.2554	0.008975
408.4733	0.007412
408.6911	0.008172
408.9090	0.009165
409.1269	0.005892
409.3448	0.007560
409.5627	0.009165
409.7806	0.007644
409.9985	0.008404
410.2165	0.008067
410.4344	0.008426
410.6524	0.007771
410.8704	0.009819
411.0884	0.008088
411.3064	0.008848
411.5244	0.010136
411.7424	0.008531
411.9605	0.008806
412.1785	0.010073
412.3966	0.010495
412.6147	0.010368
412.8328	0.010601
413.0509	0.008763
413.2690	0.010052
413.4871	0.010495
413.7053	0.009904
413.9234	0.010474
414.1416	0.011340
414.3598	0.011424
414.5780	0.008700
414.7962	0.011276
415.0144	0.010643
415.2326	0.010411
415.4509	0.009059
415.6692	0.010347
415.8874	0.012269
416.1057	0.011846
416.3240	0.010769
416.5423	0.011150
416.7606	0.011107
416.9790	0.011804
417.1973	0.011572
417.4157	0.013282
417.6341	0.011952
417.8524	0.011635
418.0708	0.012754
418.2893	0.013219
418.5077	0.013156
418.7261	0.012269
418.9446	0.013071
419.1630	0.014148
419.3815	0.011445
419.6000	0.012860
419.8185	0.012459
420.0370	0.014106
420.2555	0.013282
420.4741	0.015056
420.6926	0.015394
420.9112	0.016577
421.1298	0.015288
421.3483	0.017295
421.5669	0.016049
421.7856	0.017210
422.0042	0.016196
422.2228	0.017189
422.4415	0.016767
422.6601	0.018773
422.8788	0.016365
423.0975	0.018287
423.3162	0.017083
423.5349	0.016746
423.7536	0.016598
423.9724	0.017970
424.1911	0.015183
424.4099	0.017654
424.6287	0.016006
424.8475	0.017696
425.0663	0.015563
425.2851	0.016914
425.5039	0.017632
425.7228	0.016239
425.9416	0.014296
426.1605	0.016999
426.3793	0.016534
426.5982	0.017273
426.8171	0.017231
427.0361	0.015669
427.2550	0.016724
427.4739	0.017632
427.6929	0.017759
427.9118	0.017147
428.1308	0.015352
428.3498	0.017886
428.5688	0.016957
428.7878	0.018414
429.0068	0.017991
429.2259	0.019406
429.4449	0.020082
429.6640	0.019427
429.8831	0.019892
430.1022	0.022046
430.3213	0.020800
430.5404	0.021096
430.7595	0.020631
430.9787	0.019744
431.1978	0.020694
431.4170	0.018878
431.6362	0.019132
431.8553	0.018350
432.0745	0.018139
432.2938	0.019195
432.5130	0.017590
432.7322	0.019174
432.9515	0.017822
433.1707	0.017611
433.3900	0.018667
433.6093	0.019005
433.8286	0.020948
434.0479	0.020842
434.2673	0.021898
434.4866	0.019829
434.7059	0.020715
434.9253	0.018942
435.1447	0.018371
435.3641	0.019596
435.5835	0.019638
435.8029	0.017822
436.0223	0.021074
436.2418	0.020441
436.4612	0.021074
436.6807	0.021687
436.9001	0.020441
437.1196	0.020251
437.3391	0.019638
437.5586	0.020335
437.7782	0.019153
437.9977	0.018688
438.2173	0.019470
438.4368	0.020884
438.6564	0.020019
438.8760	0.021645
439.0956	0.021138
439.3152	0.020441
439.5348	0.020842
439.7545	0.021940
439.9741	0.020610
440.1938	0.019596
440.4135	0.019955
440.6331	0.019111
440.8528	0.019997
441.0725	0.022848
441.2923	0.022447
441.5120	0.025509
441.7318	0.023798
441.9515	0.025171
442.1713	0.023038
442.3911	0.025023
442.6109	0.024875
442.8307	0.024242
443.0505	0.023735
443.2703	0.023207
443.4902	0.024432
443.7101	0.024242
443.9299	0.024643
444.1498	0.024453
444.3697	0.022595
444.5896	0.025065
444.8095	0.023503
445.0295	0.023355
445.2494	0.024284
445.4694	0.023271
445.6894	0.021476
445.9093	0.024622
446.1293	0.022046
446.3493	0.023777
446.5694	0.021053
446.7894	0.024010
447.0094	0.023545
447.2295	0.022088
447.4496	0.022468
447.6696	0.021476
447.8897	0.020399
448.1098	0.020378
448.3300	0.020251
448.5501	0.020884
448.7702	0.021032
448.9904	0.020568
449.2106	0.020103
449.4307	0.021919
449.6509	0.022553
449.8711	0.019892
450.0914	0.019913
450.3116	0.021771
450.5318	0.020589
450.7521	0.017907
450.9724	0.021074
451.1926	0.020188
451.4129	0.019343
451.6332	0.020251
451.8535	0.019892
452.0739	0.020040
452.2942	0.018667
452.5146	0.017696
452.7349	0.019301
452.9553	0.019575
453.1757	0.018224
453.3961	0.017337
453.6165	0.017295
453.8369	0.019237
454.0574	0.018181
454.2778	0.017822
454.4983	0.017696
454.7188	0.017273
454.9393	0.017780
455.1597	0.016746
455.3803	0.017654
455.6008	0.018308
455.8213	0.017675
456.0419	0.016703
456.2624	0.018118
456.4830	0.017590
456.7036	0.014929
456.9242	0.015479
457.1448	0.016006
457.3654	0.016555
457.5860	0.016450
457.8067	0.016070
458.0274	0.016999
458.2480	0.017780
458.4687	0.017252
458.6894	0.016703
458.9101	0.017696
459.1308	0.018118
459.3516	0.016175
459.5723	0.017358
459.7931	0.015880
460.0138	0.016070
460.2346	0.017463
460.4554	0.017147
460.6762	0.014951
460.8970	0.016450
461.1178	0.016555
461.3387	0.015457
461.5595	0.016598
461.7804	0.015626
462.0013	0.013472
462.2222	0.013008
462.4431	0.013958
462.6640	0.013937
462.8849	0.012902
463.1059	0.012248
463.3268	0.013853
463.5478	0.013662
463.7687	0.015267
463.9897	0.013768
464.2107	0.015605
464.4317	0.014676
464.6528	0.014190
464.8738	0.013430
465.0948	0.016809
465.3159	0.014613
465.5370	0.013853
465.7581	0.013979
465.9792	0.014824
466.2003	0.015056
466.4214	0.013853
466.6425	0.013684
466.8637	0.011487
467.0848	0.012649
467.3060	0.012459
467.5272	0.011276
467.7484	0.012607
467.9696	0.012142
468.1908	0.013029
468.4120	0.012142
468.6333	0.010305
468.8545	0.012691
469.0758	0.011762
469.2970	0.011424
469.5183	0.010748
469.7396	0.009502
469.9610	0.010706
470.1823	0.008278
470.4036	0.009777
470.6250	0.008489
470.8463	0.009291
471.0677	0.008426
471.2891	0.008721
471.5105	0.009545
471.7319	0.008848
471.9533	0.009080
472.1748	0.008573
472.3962	0.008362
472.6177	0.008932
472.8391	0.007982
473.0606	0.008214
473.2821	0.008426
473.5036	0.008785
473.7251	0.007243
473.9467	0.007623
474.1682	0.007264
474.3898	0.008193
474.6113	0.008468
474.8329	0.008531
475.0545	0.007074
475.2761	0.009524
475.4977	0.009967
475.7193	0.007750
475.9410	0.009101
476.1626	0.008172
476.3843	0.008489
476.6060	0.008024
476.8277	0.007201
477.0494	0.007961
477.2711	0.006356
477.4928	0.007159
477.7145	0.006546
477.9363	0.006947
478.1580	0.006842
478.3798	0.007074
478.6016	0.005490
478.8234	0.007327
479.0452	0.006483
479.2670	0.005976
479.4888	0.008235
479.7107	0.007644
479.9325	0.007518
480.1544	0.007792
480.3763	0.007961
480.5982	0.007454
480.8201	0.005849
481.0420	0.006990
481.2639	0.005976
481.4859	0.006187
481.7078	0.006567
481.9298	0.007475
482.1517	0.006419
482.3737	0.004815
482.5957	0.006103
482.8177	0.006926
483.0398	0.007433
483.2618	0.006124
483.4838	0.005427
483.7059	0.006039
483.9280	0.004540
484.1501	0.006610
484.3721	0.006335
484.5943	0.006905
484.8164	0.007011
485.0385	0.005680
485.2606	0.006483
485.4828	0.008278
485.7050	0.014254
485.9271	0.020356
486.1493	0.021286
486.3715	0.018076
486.5937	0.013050
486.8160	0.011572
487.0382	0.010854
487.2605	0.009101
487.4827	0.009840
487.7050	0.007011
487.9273	0.006082
488.1496	0.006652
488.3719	0.003885
488.5942	0.005427
488.8165	0.003801
489.0389	0.003864
489.2612	0.004371
489.4836	0.005089
489.7060	0.004413
489.9284	0.004836
490.1508	0.004793
490.3732	0.004625
490.5956	0.003590
490.8180	0.005469
491.0405	0.003738
491.2630	0.005786
491.4854	0.003569
491.7079	0.006398
491.9304	0.005237
492.1529	0.004308
492.3755	0.001774
492.5980	0.005448
492.8205	0.004434
493.0431	0.003928
493.2657	0.003780
493.4882	0.004371
493.7108	0.003780
493.9334	0.005026
494.1561	0.004076
494.3787	0.003674
494.6013	0.004519
494.8240	0.004202
495.0466	0.003210
495.2693	0.003379
495.4920	0.003421
495.7147	0.001499
495.9374	0.003885
496.1601	0.004709
496.3829	0.004033
496.6056	0.004836
496.8284	0.003041
497.0511	0.004223
497.2739	0.003695
497.4967	0.003315
497.7195	0.004076
497.9423	0.003717
498.1652	0.002977
498.3880	0.005026
498.6109	0.002597
498.8337	0.003526
499.0566	0.003020
499.2795	0.003717
499.5024	0.003146
499.7253	0.005997
499.9482	0.004266
500.1712	0.004941
500.3941	0.002999
500.6171	0.002787
500.8400	0.003062
501.0630	0.003949
501.2860	0.004582
501.5090	0.003189
501.7320	0.003864
501.9551	0.004244
502.1781	0.002597
502.4012	0.005321
502.6242	0.002745
502.8473	0.004033
503.0704	0.003505
503.2935	0.003717
503.5166	0.003759
503.7397	0.003864
503.9628	0.003400
504.1860	0.003210
504.4092	0.002006
504.6323	0.003484
504.8555	0.002766
505.0787	0.003442
505.3019	0.002281
505.5251	0.003252
505.7483	0.003907
505.9716	0.004139
506.1948	0.002935
506.4181	0.003864
506.6414	0.003695
506.8647	0.003505
507.0880	0.002830
507.3113	0.001816
507.5346	0.002450
507.7579	0.003864
507.9813	0.002407
508.2046	0.002365
508.4280	0.002640
508.6514	0.002872
508.8748	0.003189
509.0982	0.003104
509.3216	0.004371
509.5450	0.003949
509.7685	0.001605
509.9919	0.003294
510.2154	0.002956
510.4388	0.002386
510.6623	0.001879
510.8858	0.002302
511.1093	0.002745
511.3329	0.003928
511.5564	0.004815
511.7799	0.003822
512.0035	0.003484
512.2270	0.004625
512.4506	0.003167
512.6742	0.004223
512.8978	0.001774
513.1214	0.002851
513.3451	0.002766
513.5687	0.003104
513.7923	0.002830
514.0160	0.003315
514.2397	0.003484
514.4634	0.003062
514.6871	0.003822
514.9108	0.001753
515.1345	0.003125
515.3582	0.003273
515.5819	0.002365
515.8057	0.001879
516.0295	0.002597
516.2532	0.002069
516.4770	0.004350
516.7008	0.003189
516.9246	0.002893
517.1485	0.002386
517.3723	0.002555
517.5961	0.003041
517.8200	0.002956
518.0439	0.003421
518.2677	0.003695
518.4916	0.003294
518.7155	0.004857
518.9395	0.003125
519.1634	0.002935
519.3873	0.002935
519.6113	0.001922
519.8352	0.003970
520.0592	0.002640
520.2832	0.003400
520.5072	0.003189
520.7312	0.003062
520.9552	0.002999
521.1792	0.002999
521.4033	0.003379
521.6273	0.003548
521.8514	0.003695
522.0755	0.003083
522.2996	0.003146
522.5237	0.002872
522.7478	0.003484
522.9719	0.003526
523.1960	0.004434
523.4202	0.003907
523.6443	0.004202
523.8685	0.004054
524.0927	0.004836
524.3169	0.003336
524.5411	0.004371
524.7653	0.003780
524.9895	0.004582
525.2138	0.003590
525.4380	0.002703
525.6623	0.003738
525.8865	0.004793
526.1108	0.003400
526.3351	0.005955
526.5594	0.004118
526.7837	0.004667
527.0081	0.003885
527.2324	0.004329
527.4568	0.004244
527.6811	0.004941
527.9055	0.004033
528.1299	0.003400
528.3543	0.005300
528.5787	0.005680
528.8031	0.004392
529.0276	0.005216
529.2520	0.005934
529.4765	0.005152
529.7009	0.006588
529.9254	0.003695
530.1499	0.005406
530.3744	0.005786
530.5989	0.005934
530.8234	0.005195
531.0480	0.004646
531.2725	0.005152
531.4971	0.006082
531.7217	0.006082
531.9462	0.004857
532.1708	0.005110
532.3954	0.005216
532.6200	0.005469
532.8447	0.004646
533.0693	0.006842
533.2940	0.007475
533.5186	0.007581
533.7433	0.006504
533.9680	0.008489
534.1927	0.008109
534.4174	0.008426
534.6421	0.006652
534.8668	0.008172
535.0916	0.007665
535.3163	0.008003
535.5411	0.006863
535.7659	0.008510
535.9907	0.008109
536.2155	0.007644
536.4403	0.008003
536.6651	0.006229
536.8899	0.007053
537.1148	0.007032
537.3396	0.007116
537.5645	0.007855
537.7894	0.009355
538.0143	0.009693
538.2392	0.008679
538.4641	0.008404
538.6890	0.007792
538.9139	0.008869
539.1389	0.008742
539.3638	0.009819
539.5888	0.009861
539.8138	0.010917
540.0388	0.008911
540.2638	0.009714
540.4888	0.009144
540.7138	0.010727
540.9389	0.011107
541.1639	0.011952
541.3890	0.009608
541.6140	0.011192
541.8391	0.010896
542.0642	0.010896
542.2893	0.011973
542.5144	0.012818
542.7396	0.011783
542.9647	0.011403
543.1899	0.012459
543.4150	0.012227
543.6402	0.014866
543.8654	0.011002
544.0906	0.013029
544.3158	0.014549
544.5410	0.014043
544.7662	0.014106
544.9915	0.015077
545.2167	0.016028
545.4420	0.014570
545.6673	0.013789
545.8926	0.015373
546.1179	0.015922
546.3432	0.015014
546.5685	0.014254
546.7938	0.013916
547.0192	0.014064
547.2445	0.014549
547.4699	0.015774
547.6953	0.016999
547.9206	0.017611
548.1460	0.017379
548.3715	0.018203
548.5969	0.018646
548.8223	0.019913
549.0478	0.018730
549.2732	0.017654
549.4987	0.016619
549.7242	0.018139
549.9496	0.018266
550.1751	0.018371
550.4007	0.019364
550.6262	0.017231
550.8517	0.017295
551.0773	0.016387
551.3028	0.017062
551.5284	0.016133
551.7540	0.016724
551.9796	0.018519
552.2052	0.021877
552.4308	0.021032
552.6564	0.021011
552.8820	0.021708
553.1077	0.020441
553.3333	0.021011
553.5590	0.020779
553.7847	0.019406
554.0104	0.020990
554.2361	0.022785
554.4618	0.022827
554.6875	0.022172
554.9132	0.020905
555.1390	0.021708
555.3648	0.022363
555.5905	0.023904
555.8163	0.025234
556.0421	0.023651
556.2679	0.026121
556.4937	0.023820
556.7195	0.024918
556.9454	0.023482
557.1712	0.023651
557.3971	0.024369
557.6230	0.024685
557.8488	0.025087
558.0747	0.025403
558.3006	0.024010
558.5266	0.024791
558.7525	0.022764
558.9784	0.023503
559.2044	0.023313
559.4303	0.023672
559.6563	0.023608
559.8823	0.023989
560.1083	0.026269
560.3343	0.030640
560.5603	0.030894
560.7863	0.029922
561.0124	0.032140
561.2384	0.035223
561.4645	0.033512
561.6905	0.033956
561.9166	0.033766
562.1427	0.031020
562.3688	0.032499
562.5949	0.030218
562.8211	0.032963
563.0472	0.032266
563.2733	0.031358
563.4995	0.033069
563.7257	0.031569
563.9519	0.033048
564.1781	0.036363
564.4043	0.036131
564.6305	0.036975
564.8567	0.036067
565.0829	0.037229
565.3092	0.037630
565.5355	0.038496
565.7617	0.037440
565.9880	0.036912
566.2143	0.039467
566.4406	0.041938
566.6669	0.039826
566.8932	0.041494
567.1196	0.045802
567.3459	0.048864
567.5723	0.049117
567.7987	0.052876
568.0250	0.052454
568.2514	0.055642
568.4778	0.056424
568.7043	0.059549
568.9307	0.063413
569.1571	0.066982
569.3836	0.069051
569.6100	0.079187
569.8365	0.087740
570.0630	0.094138
570.2895	0.097137
570.5160	0.099079
570.7425	0.096144
570.9690	0.103873
571.1956	0.110905
571.4221	0.117345
571.6487	0.118760
571.8752	0.122878
572.1018	0.131240
572.3284	0.129551
572.5550	0.119246
572.7816	0.114030
573.0082	0.110841
573.2349	0.116648
573.4615	0.128178
573.6882	0.141080
573.9149	0.147626
574.1415	0.149506
574.3682	0.159283
574.5949	0.160972
574.8216	0.163168
575.0484	0.165555
575.2751	0.167392
575.5018	0.163696
575.7286	0.159346
575.9554	0.150055
576.1821	0.148070
576.4089	0.156749
576.6357	0.164224
576.8626	0.169356
577.0894	0.172650
577.3162	0.175796
577.5431	0.185995
577.7699	0.201748
577.9968	0.236338
578.2237	0.225695
578.4505	0.215284
578.6774	0.205930
578.9044	0.192858
579.1313	0.179618
579.3582	0.182448
579.5851	0.190704
579.8121	0.197969
580.0391	0.197821
580.2660	0.201305
580.4930	0.199658
580.7200	0.191380
580.9470	0.195709
581.1741	0.228208
581.4011	0.276354
581.6281	0.299328
581.8552	0.307184
582.0822	0.296330
582.3093	0.287482
582.5364	0.265120
582.7635	0.245798
582.9906	0.227173
583.2177	0.212771
583.4449	0.197462
583.6720	0.185552
583.8991	0.183799
584.1263	0.185256
584.3535	0.185341
584.5807	0.189606
584.8079	0.203881
585.0351	0.213489
585.2623	0.225315
585.4895	0.225547
585.7167	0.228862
585.9440	0.218494
586.1713	0.206098
586.3985	0.194653
586.6258	0.188741
586.8531	0.191824
587.0804	0.202509
587.3077	0.210406
587.5350	0.219275
587.7624	0.218283
587.9897	0.209034
588.2171	0.192056
588.4445	0.196364
588.6718	0.188466
588.8992	0.178330
589.1266	0.168321
589.3540	0.164456
589.5815	0.158354
589.8089	0.156010
590.0363	0.156770
590.2638	0.152694
590.4913	0.142601
590.7187	0.137849
590.9462	0.131388
591.1737	0.124504
591.4012	0.126130
591.6288	0.124187
591.8563	0.127798
592.0838	0.122645
592.3114	0.133690
592.5389	0.148851
592.7665	0.170707
592.9941	0.190937
593.2217	0.196512
593.4493	0.194189
593.6769	0.193407
593.9046	0.185256
594.1322	0.174930
594.3598	0.167708
594.5875	0.168067
594.8152	0.176725
595.0429	0.186228
595.2705	0.191591
595.4983	0.188783
595.7260	0.177612
595.9537	0.169482
596.1814	0.158016
596.4092	0.145620
596.6369	0.140151
596.8647	0.136202
597.0925	0.141967
597.3203	0.147141
597.5481	0.149316
597.7759	0.144543
598.0037	0.138589
598.2315	0.134217
598.4594	0.136899
598.6872	0.151427
598.9151	0.169060
599.1430	0.180336
599.3709	0.177950
599.5988	0.170432
599.8267	0.171003
600.0546	0.174043
600.2825	0.177654
600.5105	0.176746
600.7384	0.176451
600.9664	0.180843
601.1944	0.185805
601.4223	0.180864
601.6503	0.170475
601.8783	0.165977
602.1064	0.163316
602.3344	0.157488
602.5624	0.166822
602.7905	0.164625
603.0185	0.171890
603.2466	0.175247
603.4747	0.183799
603.7028	0.185214
603.9309	0.177866
604.1590	0.168067
604.3871	0.160719
604.6152	0.156495
604.8434	0.154743
605.0715	0.148154
605.2997	0.153222
605.5279	0.159557
605.7561	0.163633
605.9843	0.174233
606.2125	0.171256
606.4407	0.161373
606.6689	0.152800
606.8972	0.151892
607.1254	0.151955
607.3537	0.157129
607.5819	0.155503
607.8102	0.154933
608.0385	0.151660
608.2668	0.143340
608.4951	0.143086
608.7235	0.143276
608.9518	0.138589
609.1801	0.135147
609.4085	0.132042
609.6369	0.129382
609.8653	0.137786
610.0936	0.145388
610.3220	0.145515
610.5505	0.143361
610.7789	0.140531
611.0073	0.135928
611.2357	0.135210
611.4642	0.132254
611.6927	0.136751
611.9211	0.134788
612.1496	0.129804
612.3781	0.127566
612.6066	0.126573
612.8351	0.126700
613.0637	0.123722
613.2922	0.123934
613.5208	0.124947
613.7493	0.123385
613.9779	0.124863
614.2065	0.126805
614.4351	0.124271
614.6637	0.124166
614.8923	0.122603
615.1209	0.121020
615.3495	0.126045
615.5782	0.128284
615.8068	0.126003
616.0355	0.120280
616.2642	0.117936
616.4929	0.114452
616.7216	0.110123
616.9503	0.107716
617.1790	0.108350
617.4077	0.108286
617.6365	0.109595
617.8652	0.109067
618.0940	0.107442
618.3227	0.105562
618.5515	0.100198
618.7803	0.094455
619.0091	0.092216
619.2379	0.091224
619.4667	0.086937
619.6956	0.087655
619.9244	0.090992
620.1533	0.094434
620.3821	0.096355
620.6110	0.091435
620.8399	0.085628
621.0688	0.076252
621.2977	0.074098
621.5266	0.071923
621.7556	0.075281
621.9845	0.080602
622.2135	0.081785
622.4424	0.083685
622.6714	0.084340
622.9004	0.085079
623.1294	0.086832
623.3584	0.088373
623.5874	0.089640
623.8164	0.086240
624.0454	0.087571
624.2745	0.084530
624.5035	0.087127
624.7326	0.089408
624.9617	0.088246
625.1908	0.084868
625.4199	0.080940
625.6490	0.079652
625.8781	0.079821
626.1072	0.076189
626.3364	0.074964
626.5655	0.071607
626.7947	0.071353
627.0238	0.067932
627.2530	0.070002
627.4822	0.070361
627.7114	0.067974
627.9406	0.066158
628.1698	0.063392
628.3991	0.058451
628.6283	0.059908
628.8576	0.058176
629.0868	0.060119
629.3161	0.062294
629.5454	0.062653
629.7747	0.059063
630.0040	0.059591
630.2333	0.060753
630.4626	0.058007
630.6920	0.057585
630.9213	0.055938
631.1507	0.054798
631.3801	0.055516
631.6094	0.053467
631.8388	0.052475
632.0682	0.053066
632.2976	0.051884
632.5271	0.047681
632.7565	0.047069
632.9859	0.042888
633.2154	0.044852
633.4448	0.044957
633.6743	0.044472
633.9038	0.045042
634.1333	0.046562
634.3628	0.044345
634.5923	0.040776
634.8218	0.041515
635.0514	0.041389
635.2809	0.040502
635.5105	0.038665
635.7400	0.039742
635.9696	0.042698
636.1992	0.042571
636.4288	0.046985
636.6584	0.045992
636.8880	0.046985
637.1177	0.044556
637.3473	0.043120
637.5770	0.041473
637.8066	0.038284
638.0363	0.040692
638.2660	0.041304
638.4957	0.042360
638.7254	0.040671
638.9551	0.043331
639.1848	0.042719
639.4145	0.041241
639.6443	0.035527
639.8740	0.040306
640.1038	0.035960
640.3336	0.036043
640.5633	0.037762
640.7931	0.035720
641.0229	0.035826
641.2528	0.034136
641.4826	0.033483
641.7124	0.031819
641.9423	0.028438
642.1721	0.031722
642.4020	0.030195
642.6319	0.028770
642.8617	0.027464
643.0916	0.029210
643.3216	0.030045
643.5515	0.029479
643.7814	0.028786
644.0113	0.029289
644.2413	0.028546
644.4712	0.026977
644.7012	0.027373
644.9312	0.027774
645.1612	0.026813
645.3912	0.028475
645.6212	0.026887
645.8512	0.025536
646.0812	0.027066
646.3113	0.024283
646.5413	0.024443
646.7714	0.025810
647.0015	0.023555
647.2316	0.022059
647.4616	0.024467
647.6918	0.024358
647.9219	0.026227
648.1520	0.029215
648.3821	0.030323
648.6123	0.033665
648.8424	0.034141
649.0726	0.032124
649.3028	0.033610
649.5329	0.034403
649.7631	0.033833
649.9933	0.029904
650.2236	0.030500
650.4538	0.031525
650.6840	0.030416
650.9143	0.029609
651.1445	0.028209
651.3748	0.027992
651.6051	0.028988
651.8354	0.032312
652.0657	0.028452
652.2960	0.028211
652.5263	0.034897
652.7566	0.030705
652.9870	0.031252
653.2173	0.030800
653.4477	0.031013
653.6780	0.032517
653.9084	0.031706
654.1388	0.034691
654.3692	0.034934
654.5996	0.035268
654.8300	0.039891
655.0605	0.063937
655.2909	0.183991
655.5213	0.513206
655.7518	0.937494
655.9823	1.000000
656.2128	1.000000
656.4433	1.000000
656.6738	1.000000
656.9043	1.000000
657.1348	0.856203
657.3653	0.705867
657.5959	0.604642
657.8264	0.524221
658.0570	0.484461
658.2875	0.446273
658.5181	0.405032
658.7487	0.375924
658.9793	0.367358
659.2099	0.330507
659.4406	0.257062
659.6712	0.170870
659.9018	0.103185
660.1325	0.060892
660.3632	0.040011
660.5938	0.032184
660.8245	0.026431
661.0552	0.026897
661.2859	0.023575
661.5166	0.022817
661.7474	0.022838
661.9781	0.023742
662.2088	0.022568
662.4396	0.021960
662.6704	0.023173
662.9011	0.021434
663.1319	0.022406
663.3627	0.021162
663.5935	0.021027
663.8243	0.021655
664.0552	0.021521
664.2860	0.023465
664.5168	0.022767
664.7477	0.024254
664.9786	0.022972
665.2094	0.023623
665.4403	0.024199
665.6712	0.024119
665.9021	0.021946
666.1330	0.025250
666.3640	0.022319
666.5949	0.021219
666.8259	0.022157
667.0568	0.020579
667.2878	0.021537
667.5188	0.022025
667.7497	0.021158
667.9807	0.021378
668.2117	0.020193
668.4428	0.021771
668.6738	0.020737
668.9048	0.021349
669.1359	0.019111
669.3669	0.020905
669.5980	0.020927
669.8291	0.021940
670.0602	0.022215
670.2913	0.020948
670.5224	0.020715
670.7535	0.022384
670.9846	0.022088
671.2157	0.023798
671.4469	0.026881
671.6781	0.030324
671.9092	0.027790
672.1404	0.031548
672.3716	0.034674
672.6028	0.035223
672.8340	0.034864
673.0652	0.033069
673.2964	0.030661
673.5277	0.030830
673.7589	0.030514
673.9902	0.030809
674.2214	0.029521
674.4527	0.026987
674.6840	0.026987
674.9153	0.027114
675.1466	0.025234
675.3779	0.026628
675.6093	0.025783
675.8406	0.026797
676.0719	0.025805
676.3033	0.026607
676.5347	0.024875
676.7661	0.024136
676.9974	0.023397
677.2288	0.023207
677.4602	0.026501
677.6917	0.025762
677.9231	0.027599
678.1545	0.027304
678.3860	0.028317
678.6174	0.030598
678.8489	0.028972
679.0804	0.031949
679.3119	0.033048
679.5434	0.035307
679.7749	0.034779
680.0064	0.034547
680.2379	0.036152
680.4694	0.035159
680.7010	0.034758
680.9325	0.033026
681.1641	0.033934
681.3957	0.037271
681.6273	0.037503
681.8589	0.034842
682.0905	0.033385
682.3221	0.032203
682.5537	0.032710
682.7854	0.030999
683.0170	0.030809
683.2487	0.031485
683.4803	0.030091
683.7120	0.031949
683.9437	0.032921
684.1754	0.033660
684.4071	0.034885
684.6388	0.038158
684.8705	0.037672
685.1023	0.040903
685.3340	0.042592
685.5658	0.043458
685.7975	0.045464
686.0293	0.044704
686.2611	0.043331
686.4929	0.043627
686.7247	0.044366
686.9565	0.042825
687.1883	0.044788
687.4202	0.044070
687.6520	0.041135
687.8838	0.039784
688.1157	0.040607
688.3476	0.039045
688.5795	0.038580
688.8114	0.038622
689.0433	0.036384
689.2752	0.039530
689.5071	0.036468
689.7390	0.034167
689.9710	0.034716
690.2029	0.033660
690.4349	0.034547
690.6669	0.033554
690.8988	0.035434
691.1308	0.036595
691.3628	0.038686
691.5948	0.036447
691.8269	0.036996
692.0589	0.041030
692.2909	0.038242
692.5230	0.037292
692.7550	0.036743
692.9871	0.038327
693.2192	0.040269
693.4513	0.038263
693.6834	0.039509
693.9155	0.037567
694.1476	0.036595
694.3797	0.033301
694.6119	0.034040
694.8440	0.033407
695.0762	0.035223
695.3083	0.034842
695.5405	0.031717
695.7727	0.031971
696.0049	0.030049
696.2371	0.029394
696.4693	0.031781
696.7016	0.036236
696.9338	0.038094
697.1660	0.041135
697.3983	0.038453
697.6306	0.036785
697.8628	0.037947
698.0951	0.035603
698.3274	0.037820
698.5597	0.037735
698.7920	0.037440
699.0243	0.034885
699.2567	0.035434
699.4890	0.035729
699.7214	0.033808
699.9537	0.034251
700.1861	0.030366
700.4185	0.031379
700.6509	0.031696
700.8833	0.030324
701.1157	0.028064
701.3481	0.027958
701.5806	0.027642
701.8130	0.028993
702.0454	0.028486
702.2779	0.030007
702.5104	0.029648
702.7429	0.030366
702.9753	0.029711
703.2078	0.028740
703.4403	0.027642
703.6729	0.029606
703.9054	0.025572
704.1379	0.029057
704.3705	0.029711
704.6030	0.026375
704.8356	0.024432
705.0682	0.025699
705.3008	0.025192
705.5334	0.024706
705.7660	0.025150
705.9986	0.026332
706.2312	0.030302
706.4638	0.029099
706.6965	0.035223
706.9291	0.035286
707.1618	0.036912
707.3945	0.039784
707.6272	0.035370
707.8599	0.039129
708.0926	0.037482
708.3253	0.035560
708.5580	0.036447
708.7907	0.036131
709.0235	0.036680
709.2562	0.032942
709.4890	0.033069
709.7217	0.035033
709.9545	0.033533
710.1873	0.032435
710.4201	0.036680
710.6529	0.035201
710.8857	0.034061
711.1186	0.032456
711.3514	0.032900
711.5842	0.030830
711.8171	0.031253
712.0500	0.029437
712.2828	0.028402
712.5157	0.028339
712.7486	0.030682
712.9815	0.029627
713.2144	0.029035
713.4474	0.031337
713.6803	0.035497
713.9132	0.034378
714.1462	0.033322
714.3791	0.035708
714.6121	0.033998
714.8451	0.034251
715.0781	0.032858
715.3111	0.035962
715.5441	0.034399
715.7771	0.033744
716.0102	0.031612
716.2432	0.030619
716.4762	0.029289
716.7093	0.030155
716.9424	0.027832
717.1754	0.029859
717.4085	0.027578
717.6416	0.026269
717.8747	0.029458
718.1078	0.030471
718.3410	0.028719
718.5741	0.027980
718.8072	0.028888
719.0404	0.027473
719.2736	0.030324
719.5067	0.030176
719.7399	0.031337
719.9731	0.029669
720.2063	0.027536
720.4395	0.028275
720.6727	0.030049
720.9060	0.026903
721.1392	0.030176
721.3725	0.029331
721.6057	0.029774
721.8390	0.030028
722.0723	0.030788
722.3055	0.029986
722.5388	0.026311
722.7721	0.027811
723.0055	0.026881
723.2388	0.027832
723.4721	0.027536
723.7055	0.027684
723.9388	0.028909
724.1722	0.029669
724.4056	0.027367
724.6389	0.025636
724.8723	0.030007
725.1057	0.030070
725.3391	0.032414
725.5726	0.032182
725.8060	0.034462
726.0394	0.033660
726.2729	0.032752
726.5063	0.032625
726.7398	0.031612
726.9733	0.033195
727.2068	0.029183
727.4403	0.031865
727.6738	0.031400
727.9073	0.031443
728.1408	0.033681
728.3743	0.036933
728.6079	0.035539
728.8414	0.034610
729.0750	0.033956
729.3086	0.035835
729.5421	0.036088
729.7757	0.038580
730.0093	0.036257
730.2429	0.035624
730.4766	0.039763
730.7102	0.038432
730.9438	0.041220
731.1775	0.041832
731.4111	0.041135
731.6448	0.041241
731.8785	0.041832
732.1122	0.041452
732.3458	0.039551
732.5795	0.039910
732.8133	0.042803
733.0470	0.039383
733.2807	0.044070
733.5145	0.042719
733.7482	0.045718
733.9820	0.049117
734.2157	0.051841
734.4495	0.051567
734.6833	0.050448
734.9171	0.048146
735.1509	0.048252
735.3847	0.047576
735.6185	0.049878
735.8524	0.050110
736.0862	0.048716
736.3201	0.049772
736.5539	0.046731
736.7878	0.048611
737.0217	0.049962
737.2556	0.048611
737.4895	0.047829
737.7234	0.046330
737.9573	0.044746
738.1912	0.042719
738.4252	0.040650
738.6591	0.038116
738.8931	0.042888
739.1271	0.042550
739.3610	0.045696
739.5950	0.048526
739.8290	0.045000
740.0630	0.042487
740.2970	0.043838
740.5310	0.040206
740.7651	0.040544
740.9991	0.038749
741.2332	0.036637
741.4672	0.035582
741.7013	0.032646
741.9354	0.034716
742.1695	0.035772
742.4036	0.033449
742.6377	0.035392
742.8718	0.035096
743.1059	0.032604
743.3400	0.031400
743.5742	0.031823
743.8083	0.031569
744.0425	0.030978
744.2767	0.028972
744.5108	0.031063
744.7450	0.030788
744.9792	0.030830
745.2134	0.027177
745.4477	0.026903
745.6819	0.029225
745.9161	0.027177
746.1504	0.029817
746.3846	0.027219
746.6189	0.026544
746.8532	0.028360
747.0874	0.028529
747.3217	0.031126
747.5560	0.032287
747.7903	0.030471
748.0247	0.031464
748.2590	0.028613
748.4933	0.027958
748.7277	0.029183
748.9620	0.028761
749.1964	0.032815
749.4308	0.031717
749.6652	0.035392
749.8995	0.034230
750.1339	0.037989
750.3684	0.037186
750.6028	0.039615
750.8372	0.039594
751.0717	0.040269
751.3061	0.035370
751.5406	0.041156
751.7750	0.041262
752.0095	0.040797
752.2440	0.040185
752.4785	0.038221
752.7130	0.037630
752.9475	0.035624
753.1820	0.038200
753.4166	0.038453
753.6511	0.040945
753.8856	0.041980
754.1202	0.042698
754.3548	0.039932
754.5894	0.041663
754.8239	0.038390
755.0585	0.040586
755.2931	0.043184
755.5278	0.043078
755.7624	0.042381
755.9970	0.044577
756.2317	0.045992
756.4663	0.047090
756.7010	0.048906
756.9356	0.051736
757.1703	0.051356
757.4050	0.057247
757.6397	0.060436
757.8744	0.060372
758.1091	0.059528
758.3438	0.056001
758.5786	0.053024
758.8133	0.053784
759.0481	0.054059
759.2828	0.055875
759.5176	0.059887
759.7524	0.058240
759.9872	0.058873
760.2220	0.060182
760.4568	0.064173
760.6916	0.063012
760.9264	0.062695
761.1613	0.061682
761.3961	0.059232
761.6310	0.054375
761.8658	0.053742
762.1007	0.051672
762.3356	0.049687
762.5705	0.048653
762.8054	0.048779
763.0403	0.048737
763.2752	0.051588
763.5101	0.050870
763.7450	0.049519
763.9800	0.047660
764.2149	0.050807
764.4499	0.057015
764.6849	0.057606
764.9198	0.058556
765.1548	0.058535
765.3898	0.057986
765.6248	0.053594
765.8599	0.052559
766.0949	0.050490
766.3299	0.045844
766.5650	0.045021
766.8000	0.041410
767.0351	0.039974
767.2701	0.039024
767.5052	0.038791
767.7403	0.041368
767.9754	0.042191
768.2105	0.041748
768.4456	0.044218
768.6808	0.047724
768.9159	0.049328
769.1510	0.046013
769.3862	0.044155
769.6214	0.043880
769.8565	0.045950
770.0917	0.043247
770.3269	0.045063
770.5621	0.046985
770.7973	0.047048
771.0325	0.047766
771.2677	0.049138
771.5030	0.046541
771.7382	0.045084
771.9735	0.042635
772.2087	0.040776
772.4440	0.040903
772.6793	0.040333
772.9146	0.040058
773.1499	0.040291
773.3852	0.037968
773.6205	0.039594
773.8558	0.037567
774.0911	0.036975
774.3265	0.035392
774.5618	0.033111
774.7972	0.031675
775.0326	0.030155
775.2679	0.031696
775.5033	0.029141
775.7387	0.029859
775.9741	0.027642
776.2095	0.025847
776.4450	0.026628
776.6804	0.024706
776.9158	0.024833
777.1513	0.025593
777.3868	0.024369
777.6222	0.025256
777.8577	0.024622
778.0932	0.025108
778.3287	0.025150
778.5642	0.027388
778.7997	0.027790
779.0352	0.028740
779.2707	0.031485
779.5063	0.029690
779.7418	0.031358
779.9774	0.029225
780.2130	0.027768
780.4485	0.029120
780.6841	0.028761
780.9197	0.031506
781.1553	0.032963
781.3909	0.035011
781.6265	0.036722
781.8622	0.033998
782.0978	0.035962
782.3335	0.036468
782.5691	0.035645
782.8048	0.035708
783.0405	0.033005
783.2761	0.034420
783.5118	0.034737
783.7475	0.035793
783.9832	0.035244
784.2190	0.032224
784.4547	0.031696
784.6904	0.029014
784.9262	0.026649
785.1619	0.028043
785.3977	0.028930
785.6335	0.029584
785.8692	0.029690
786.1050	0.029774
786.3408	0.028930
786.5766	0.029057
786.8124	0.025952
787.0483	0.027093
787.2841	0.026755
787.5199	0.029057
787.7558	0.029394
787.9917	0.028106
788.2275	0.031253
788.4634	0.030387
788.6993	0.030070
788.9352	0.033597
789.1711	0.029838
789.4070	0.028740
789.6429	0.028148
789.8789	0.028233
790.1148	0.027705
790.3507	0.024115
790.5867	0.025108
790.8227	0.025952
791.0586	0.023608
791.2946	0.023714
791.5306	0.024263
791.7666	0.025234
792.0026	0.023672
792.2387	0.021898
792.4747	0.022320
792.7107	0.022067
792.9468	0.022531
793.1828	0.021623
793.4189	0.020166
793.6550	0.023883
793.8910	0.027937
794.1271	0.029753
794.3632	0.030492
794.5993	0.030133
794.8355	0.033048
795.0716	0.032836
795.3077	0.035518
795.5439	0.030894
795.7800	0.029204
796.0162	0.025572
796.2523	0.026480
796.4885	0.024875
796.7247	0.021877
796.9609	0.021708
797.1971	0.022384
797.4333	0.023841
797.6695	0.023904
797.9058	0.022933
798.1420	0.022827
798.3783	0.022933
798.6145	0.022658
798.8508	0.024728
799.0871	0.023714
799.3233	0.021771
799.5596	0.022595
799.7959	0.020272
800.0322	0.020356
800.2686	0.021623
800.5049	0.019174
800.7412	0.019955
800.9776	0.019702
801.2139	0.019638
801.4503	0.019153
801.6867	0.019850
801.9230	0.018034
802.1594	0.017463
802.3958	0.015774
802.6322	0.017041
802.8686	0.017780
803.1051	0.018266
803.3415	0.017168
803.5779	0.018688
803.8144	0.018013
804.0508	0.018013
804.2873	0.018350
804.5238	0.015985
804.7603	0.017400
804.9968	0.018097
805.2333	0.016049
805.4698	0.016598
805.7063	0.018181
805.9428	0.020272
806.1794	0.021180
806.4159	0.020758
806.6525	0.024580
806.8890	0.025298
807.1256	0.022341
807.3622	0.021898
807.5988	0.023904
807.8354	0.024221
808.0720	0.021750
808.3086	0.024305
808.5452	0.021201
808.7818	0.023080
809.0185	0.023017
809.2551	0.022468
809.4918	0.020335
809.7284	0.020378
809.9651	0.018393
810.2018	0.021370
810.4385	0.018562
810.6752	0.019660
810.9119	0.019132
811.1486	0.017485
811.3853	0.018583
811.6221	0.017379
811.8588	0.016809
812.0956	0.018266
812.3323	0.015331
812.5691	0.015056
812.8059	0.014043
813.0427	0.016196
813.2795	0.015141
813.5163	0.017991
813.7531	0.016851
813.9899	0.018773
814.2267	0.018139
814.4636	0.020145
814.7004	0.016872
814.9373	0.016218
815.1742	0.016408
815.4110	0.016070
815.6479	0.015690
815.8848	0.013451
816.1217	0.014064
816.3586	0.015077
816.5955	0.013135
816.8324	0.014697
817.0694	0.016260
817.3063	0.013451
817.5433	0.014718
817.7802	0.016049
818.0172	0.015352
818.2542	0.014085
818.4912	0.013641
818.7282	0.012923
818.9652	0.013451
819.2022	0.012459
819.4392	0.012564
819.6762	0.012628
819.9133	0.012923
820.1503	0.011382
820.3874	0.013641
820.6244	0.015120
820.8615	0.015964
821.0986	0.016239
821.3357	0.015521
821.5727	0.015795
821.8099	0.014380
822.0470	0.014190
822.2841	0.014106
822.5212	0.012776
822.7584	0.013261
822.9955	0.013325
823.2327	0.012564
823.4698	0.011382
823.7070	0.010326
823.9442	0.012015
824.1814	0.011804
824.4186	0.012501
824.6558	0.010558
824.8930	0.010347
825.1302	0.013388
825.3675	0.013578
825.6047	0.016070
825.8419	0.013113
826.0792	0.012374
826.3165	0.013620
826.5537	0.012818
826.7910	0.011762
827.0283	0.012754
827.2656	0.012501
827.5029	0.014275
827.7402	0.014000
827.9776	0.013367
828.2149	0.013768
828.4522	0.012311
828.6896	0.012902
828.9270	0.014000
829.1643	0.013029
829.4017	0.012205
829.6391	0.010938
829.8765	0.010579
830.1139	0.010368
830.3513	0.011846
830.5887	0.010263
830.8261	0.009988
831.0636	0.011255
831.3010	0.009186
831.5385	0.008468
831.7759	0.008383
832.0134	0.006884
832.2509	0.009038
832.4884	0.007602
832.7259	0.009017
832.9634	0.009228
833.2009	0.009967
833.4384	0.009038
833.6759	0.012036
833.9135	0.009840
834.1510	0.010685
834.3886	0.011234
834.6261	0.011255
834.8637	0.012290
835.1013	0.010389
835.3389	0.011319
835.5765	0.011171
835.8141	0.009819
836.0517	0.009355
836.2893	0.008869
836.5269	0.008975
836.7646	0.008404
837.0022	0.007623
837.2399	0.007159
837.4775	0.005807
837.7152	0.006610
837.9529	0.006736
838.1906	0.007159
838.4283	0.006610
838.6660	0.007412
838.9037	0.006715
839.1414	0.007665
839.3791	0.007708
839.6169	0.006652
839.8546	0.007834
840.0924	0.007159
840.3302	0.007750
840.5679	0.006483
840.8057	0.006610
841.0435	0.008362
841.2813	0.007581
841.5191	0.006018
841.7569	0.006398
841.9947	0.004582
842.2326	0.006377
842.4704	0.004793
842.7082	0.007074
842.9461	0.005617
843.1840	0.004857
843.4218	0.003505
843.6597	0.005005
843.8976	0.005300
844.1355	0.005934
844.3734	0.005448
844.6113	0.005258
844.8492	0.005174
845.0872	0.005110
845.3251	0.005258
845.5631	0.004962
845.8010	0.006293
846.0390	0.007011
846.2770	0.004118
846.5149	0.006377
846.7529	0.005849
846.9909	0.006293
847.2289	0.004603
847.4669	0.005554
847.7050	0.004836
847.9430	0.005701
848.1810	0.003695
848.4191	0.005406
848.6571	0.003864
848.8952	0.004223
849.1333	0.004456
849.3713	0.005427
849.6094	0.005828
849.8475	0.004582
850.0856	0.004751
850.3237	0.005174
850.5619	0.003970
850.8000	0.005343
851.0381	0.003400
851.2763	0.004751
851.5144	0.005385
851.7526	0.005828
851.9908	0.004667
852.2289	0.006588
852.4671	0.007370
852.7053	0.008257
852.9435	0.009946
853.1817	0.012121
853.4200	0.013810
853.6582	0.013409
853.8964	0.014275
854.1347	0.015056
854.3729	0.014359
854.6112	0.014444
854.8495	0.013620
855.0877	0.013641
855.3260	0.012797
855.5643	0.010558
855.8026	0.013050
856.0409	0.013029
856.2792	0.012564
856.5176	0.011340
856.7559	0.012691
856.9942	0.011846
857.2326	0.011720
857.4710	0.012522
857.7093	0.010833
857.9477	0.010242
858.1861	0.010769
858.4245	0.010220
858.6629	0.011593
858.9013	0.009946
859.1397	0.007940
859.3781	0.008552
859.6166	0.009186
859.8550	0.008975
860.0935	0.007011
860.3319	0.008172
860.5704	0.008024
860.8089	0.008616
861.0473	0.005596
861.2858	0.006082
861.5243	0.006610
861.7628	0.008890
862.0013	0.006694
862.2399	0.006546
862.4784	0.005638
862.7169	0.006187
862.9555	0.005680
863.1940	0.006610
863.4326	0.006778
863.6712	0.006736
863.9098	0.005807
864.1483	0.008510
864.3869	0.006314
864.6255	0.006947
864.8642	0.004751
865.1028	0.004540
865.3414	0.005701
865.5800	0.006821
865.8187	0.003062
866.0573	0.005448
866.2960	0.003759
866.5347	0.003780
866.7733	0.005448
867.0120	0.006778
867.2507	0.004836
867.4894	0.006187
867.7281	0.004561
867.9669	0.005300
868.2056	0.006842
868.4443	0.005934
868.6831	0.003484
868.9218	0.005321
869.1606	0.005047
869.3993	0.004836
869.6381	0.004941
869.8769	0.003759
870.1157	0.005152
870.3545	0.003442
870.5933	0.006208
870.8321	0.005807
871.0709	0.006736
871.3097	0.006060
871.5486	0.005300
871.7874	0.005807
872.0263	0.003780
872.2651	0.004181
872.5040	0.005533
872.7429	0.003928
872.9818	0.003505
873.2207	0.005701
873.4596	0.004118
873.6985	0.004223
873.9374	0.005786
874.1763	0.004603
874.4153	0.005490
874.6542	0.005892
874.8932	0.004603
875.1321	0.008172
875.3711	0.004793
875.6101	0.005892
875.8491	0.005321
876.0880	0.005638
876.3270	0.004540
876.5661	0.004540
876.8051	0.005047
877.0441	0.005047
877.2831	0.006272
877.5222	0.005849
877.7612	0.006419
878.0003	0.005089
878.2393	0.006968
878.4784	0.007518
878.7175	0.007412
878.9566	0.007074
879.1957	0.008278
879.4348	0.006905
879.6739	0.008637
879.9130	0.007771
880.1521	0.008024
880.3913	0.008911
880.6304	0.008953
880.8696	0.007855
881.1087	0.007961
881.3479	0.006757
881.5871	0.007581
881.8262	0.007306
882.0654	0.006968
882.3046	0.006314
882.5438	0.005765
882.7831	0.005047
883.0223	0.005469
883.2615	0.006272
883.5007	0.006018
883.7400	0.005955
883.9792	0.004561
884.2185	0.006166
884.4578	0.006567
884.6971	0.006145
884.9363	0.006335
885.1756	0.006800
885.4149	0.007032
885.6542	0.007412
885.8936	0.007201
886.1329	0.005701
886.3722	0.005828
886.6116	0.007327
886.8509	0.007898
887.0903	0.004139
887.3296	0.005997
887.5690	0.005934
887.8084	0.004962
888.0478	0.004709
888.2872	0.005533
888.5266	0.003759
888.7660	0.005469
889.0054	0.004815
889.2448	0.005195
889.4843	0.004434
889.7237	0.005005
889.9632	0.004097
890.2026	0.004709
890.4421	0.004413
890.6816	0.005068
890.9211	0.005723
891.1606	0.005258
891.4001	0.004815
891.6396	0.004434
891.8791	0.005554
892.1186	0.004582
892.3581	0.004962
892.5977	0.005258
892.8372	0.005343
893.0768	0.005343
893.3163	0.004941
893.5559	0.006039
893.7955	0.004202
894.0351	0.003738
894.2747	0.005174
894.5143	0.004223
894.7539	0.004815
894.9935	0.004646
895.2331	0.004498
895.4727	0.005258
895.7124	0.004688
895.9520	0.005955
896.1917	0.003358
896.4314	0.004688
896.6710	0.005343
896.9107	0.005427
897.1504	0.003780
897.3901	0.006145
897.6298	0.004561
897.8695	0.005026
898.1092	0.004160
898.3489	0.005723
898.5887	0.005744
898.8284	0.004878
899.0682	0.004667
899.3079	0.004920
899.5477	0.002893
899.7875	0.004160
900.0272	0.001605
900.2670	0.002893
900.5068	0.001900
900.7466	0.005828
900.9864	0.004456
901.2263	0.003970
901.4661	0.003674
901.7059	0.004751
901.9458	0.004244
902.1856	0.005744
902.4255	0.002830
902.6654	0.005511
902.9052	0.006018
903.1451	0.005005
903.3850	0.002914
903.6249	0.003991
903.8648	0.005110
904.1047	0.002999
904.3446	0.004160
904.5846	0.003336
904.8245	0.003991
905.0644	0.005216
905.3044	0.006441
905.5444	0.006715
905.7843	0.005638
906.0243	0.005026
906.2643	0.004118
906.5043	0.004984
906.7443	0.003864
906.9843	0.003801
907.2243	0.004646
907.4643	0.005258
907.7043	0.004941
907.9444	0.004603
908.1844	0.003801
908.4245	0.003885
908.6645	0.002914
908.9046	0.004308
909.1447	0.004625
909.3847	0.004625
909.6248	0.003611
909.8649	0.004118
910.1050	0.003231
910.3452	0.002787
910.5853	0.002555
910.8254	0.004456
911.0655	0.004582
911.3057	0.004012
911.5458	0.003294
911.7860	0.004667
912.0262	0.002534
912.2663	0.004603
912.5065	0.002534
912.7467	0.004287
912.9869	0.003949
913.2271	0.002809
913.4673	0.001542
913.7075	0.003379
913.9478	0.003442
914.1880	0.002450
914.4283	0.001457
914.6685	0.003463
914.9088	0.003189
915.1490	0.003632
915.3893	0.002999
915.6296	0.003717
915.8699	0.002196
916.1102	0.003484
916.3505	0.002851
916.5908	0.005659
916.8311	0.003125
917.0714	0.003717
917.3118	0.002893
917.5521	0.003738
917.7925	0.003717
918.0328	0.004181
918.2732	0.004857
918.5136	0.003400
918.7539	0.002809
918.9943	0.003632
919.2347	0.004118
919.4751	0.003104
919.7155	0.002977
919.9560	0.002661
920.1964	0.003864
920.4368	0.004054
920.6773	0.003020
920.9177	0.003590
921.1582	0.003020
921.3986	0.003970
921.6391	0.002640
921.8796	0.002999
922.1201	0.002618
922.3606	0.004012
922.6011	0.002914
922.8416	0.002133
923.0821	0.002618
923.3226	0.003315
923.5631	0.004308
923.8037	0.003864
924.0442	0.003421
924.2848	0.003864
924.5254	0.002724
924.7659	0.001710
925.0065	0.002048
925.2471	0.003252
925.4877	0.003717
925.7283	0.002238
925.9689	0.002682
926.2095	0.004223
926.4501	0.000802
926.6908	0.002259
926.9314	0.001014
927.1720	0.002809
927.4127	0.002175
927.6533	0.002977
927.8940	0.002154
928.1347	0.003738
928.3754	0.002281
928.6161	0.000908
928.8568	0.002407
929.0975	0.002830
929.3382	0.001858
929.5789	0.003463
929.8196	0.000929
930.0604	0.003062
930.3011	0.002893
930.5419	0.002893
930.7826	0.002661
931.0234	0.002386
931.2642	0.003020
931.5049	0.001985
931.7457	0.001415
931.9865	0.003505
932.2273	0.002365
932.4681	0.001309
932.7089	0.002027
932.9498	0.003189
933.1906	0.002238
933.4314	0.003738
933.6723	0.002809
933.9131	0.003125
934.1540	0.002048
934.3949	0.002935
934.6358	0.002091
934.8766	0.002112
935.1175	0.002703
935.3584	0.002048
935.5993	0.000845
935.8403	0.003463
936.0812	0.002365
936.3221	0.000718
936.5630	0.000887
936.8040	0.000042
937.0449	0.001098
937.2859	0.000824
937.5269	0.001267
937.7678	0.002682
938.0088	0.002133
938.2498	0.002259
938.4908	0.002534
938.7318	0.002597
938.9728	0.001077
939.2138	0.001774
939.4549	0.001373
939.6959	0.001415
939.9369	0.001436
940.1780	0.001922
940.4190	0.000992
940.6601	0.000950
940.9012	0.001753
941.1422	0.002238
941.3833	0.000950
941.6244	0.000739
941.8655	0.001520
942.1066	0.000760
942.3477	0.000697
942.5889	0.000908
942.8300	0.003062
943.0711	0.000253
943.3123	0.001795
943.5534	0.002450
943.7946	0.001330
944.0357	0.001077
944.2769	0.001161
944.5181	0.002450
944.7593	0.001668
945.0005	0.001753
945.2417	0.001520
945.4829	0.002365
945.7241	0.000338
945.9653	0.003041
946.2066	0.001689
946.4478	0.000443
946.6891	0.002407
946.9303	-0.001119
947.1716	0.001373
947.4128	0.000528
947.6541	0.003041
947.8954	0.002259
948.1367	-0.000359
948.3780	0.000950
948.6193	-0.000190
948.8606	0.000887
949.1019	0.000887
949.3433	0.000063
949.5846	0.001014
949.8259	0.000929
950.0673	0.001119
950.3086	0.001922
950.5500	0.001161
950.7914	0.000887
951.0327	0.000106
951.2741	0.001098
951.5155	0.002281
951.7569	0.000359
951.9983	0.001373
952.2398	-0.000063
952.4812	0.000824
952.7226	0.001520
952.9640	0.002703
953.2055	0.002091
953.4469	0.001542
953.6884	0.000422
953.9299	-0.000063
954.1713	0.001668
954.4128	0.002661
954.6543	0.002914
954.8958	0.000971
955.1373	0.001584
955.3788	0.000232
955.6203	0.001542
955.8618	0.000570
956.1034	0.000739
956.3449	0.000887
956.5865	0.001161
956.8280	0.001204
957.0696	0.001605
957.3111	0.001542
957.5527	0.000042
957.7943	0.000338
958.0359	0.000570
958.2775	0.001753
958.5191	0.001668
958.7607	0.000781
959.0023	0.000866
959.2439	0.000528
959.4856	0.001288
959.7272	0.003294
959.9688	0.000232
960.2105	0.001225
960.4522	0.000422
960.6938	0.000929
960.9355	0.001351
961.1772	-0.000380
961.4189	0.000760
961.6606	0.000422
961.9023	0.000401
962.1440	0.001288
962.3857	0.001330
962.6274	-0.001753
962.8692	-0.000465
963.1109	0.001626
963.3527	-0.000401
963.5944	-0.000697
963.8362	-0.000148
964.0779	0.000612
964.3197	0.000655
964.5615	0.000296
964.8033	-0.000887
965.0451	0.000633
965.2869	0.001394
965.5287	0.000591
965.7705	0.000253
966.0123	0.001710
966.2542	0.000148
966.4960	0.000971
966.7379	0.000317
966.9797	0.000211
967.2216	0.000021
967.4634	0.000190
967.7053	0.001161
967.9472	0.002027
968.1891	0.000422
968.4310	-0.000021
968.6729	0.001056
968.9148	0.000887
969.1567	0.000950
969.3987	0.000824
969.6406	-0.000127
969.8825	0.001436
970.1245	0.000549
970.3664	0.000929
970.6084	0.000106
970.8504	-0.000021
971.0923	0.001077
971.3343	0.001689
971.5763	0.000275
971.8183	0.001753
972.0603	0.000549
972.3023	0.000824
972.5443	0.001056
972.7864	0.000866
973.0284	0.000992
973.2704	0.001837
973.5125	0.000633
973.7545	0.001732
973.9966	0.000232
974.2387	0.000380
974.4807	0.000148
974.7228	0.001816
974.9649	0.000486
975.2070	0.002217
975.4491	0.000063
975.6912	0.000866
975.9333	0.000401
976.1755	0.001605
976.4176	0.000655
976.6597	0.000443
976.9019	0.000169
977.1440	-0.000232
977.3862	0.000697
977.6283	0.000591
977.8705	-0.000042
978.1127	-0.000232
978.3549	0.000591
978.5971	-0.000591
978.8393	0.000781
979.0815	-0.000781
979.3237	-0.000106
979.5659	0.001330
979.8082	0.000063
980.0504	0.001077
980.2926	-0.000338
980.5349	0.000021
980.7771	0.001858
981.0194	0.000021
981.2617	0.000633
981.5040	0.000992
981.7462	0.000253
981.9885	0.000148
982.2308	0.000612
982.4731	0.000655
982.7155	0.000106
982.9578	0.000021
983.2001	-0.000528
983.4424	-0.000655
983.6848	0.000950
983.9271	0.001732
984.1695	-0.000697
984.4118	-0.000612
984.6542	-0.000591
984.8966	0.001710
985.1390	-0.000317
985.3814	0.000422
985.6238	0.000084
985.8662	0.000465
986.1086	-0.000169
986.3510	0.001077
986.5934	0.000422
986.8358	0.000781
987.0783	-0.001119
987.3207	0.000359
987.5632	-0.000591
987.8056	0.000042
988.0481	0.000612
988.2906	0.001436
988.5331	-0.000127
988.7756	0.000296
989.0180	0.000971
989.2605	0.000992
989.5031	0.000697
989.7456	0.001035
989.9881	0.000253
990.2306	0.000507
990.4732	-0.001014
990.7157	0.001288
990.9582	-0.000338
991.2008	0.000676
991.4434	0.000971
991.6859	0.000084
991.9285	-0.000528
992.1711	0.001689
992.4137	-0.001183
992.6563	0.000760
992.8989	0.000380
993.1415	0.000802
993.3841	-0.001204
993.6267	0.000232
993.8694	0.000612
994.1120	0.000676
994.3547	0.000317
994.5973	-0.000275
994.8400	-0.000971
995.0826	0.001204
995.3253	0.001689
995.5680	-0.000021
995.8107	0.000042
996.0534	-0.000824
996.2961	-0.000992
996.5388	0.000633
996.7815	-0.000528
997.0242	0.001774
997.2670	-0.000486
997.5097	0.000528
997.7524	-0.000866
997.9952	0.001732
998.2379	-0.000908
998.4807	-0.000591
998.7235	0.000063
998.9662	-0.000528
999.2090	0.000084
999.4518	-0.000084
999.6946	-0.000401
999.9374	-0.000528
1000.1802	0.000190
1000.4230	0.001183
1000.6659	0.000084
1000.9087	-0.000106
1001.1515	-0.000422
1001.3944	-0.001204
1001.6372	0.001584
1001.8801	0.000380
1002.1230	0.000000
1002.3658	0.000232
1002.6087	0.000443
1002.8516	0.000338
1003.0945	0.000000
1003.3374	-0.000422
1003.5803	0.001668
1003.8232	0.000190
1004.0661	0.000971
1004.3091	-0.000971
1004.5520	-0.000148
1004.7949	0.000633
1005.0379	0.001077
1005.2808	0.000887
1005.5238	-0.000486
1005.7667	0.000000
1006.0097	0.000929
1006.2527	0.001330
1006.4957	0.000401
1006.7387	0.000190
1006.9817	0.001183
1007.2247	0.001077
1007.4677	0.002091
1007.7107	0.000697
1007.9538	0.000802
1008.1968	0.000950
1008.4398	0.000971
1008.6829	-0.000929
1008.9259	-0.000443
1009.1690	0.000612
1009.4121	0.001415
1009.6551	-0.000148
1009.8982	-0.000760
1010.1413	0.000253
1010.3844	0.001288
1010.6275	0.001246
1010.8706	0.000908
1011.1137	-0.000760
1011.3568	-0.000992
1011.6000	0.000866
1011.8431	-0.000106
1012.0863	-0.000148
1012.3294	-0.000401
1012.5726	0.001225
1012.8157	0.000612
1013.0589	-0.000655
1013.3021	0.000591
1013.5452	-0.000232
1013.7884	0.000676
1014.0316	0.000465
1014.2748	-0.000422
1014.5180	0.000486
1014.7613	-0.000296
1015.0045	0.001457
1015.2477	0.000084
1015.4909	0.000063
1015.7342	0.000000
1015.9774	-0.000422
1016.2207	0.000486
1016.4640	-0.001309
1016.7072	0.000866
1016.9505	-0.000422
1017.1938	-0.000591
1017.4371	-0.001077
1017.6804	0.000507
1017.9237	0.000338
1018.1670	0.000781
1018.4103	-0.000211
1018.6536	-0.000760
1018.8969	0.001457
1019.1403	0.000549
1019.3836	0.001710
1019.6270	0.000084
1019.8703	-0.002006
1020.1137	0.000021
1020.3571	-0.000190
1020.6004	0.000570
1020.8438	0.000591
1021.0872	0.000338
1021.3306	0.000063
1021.5740	0.000549
1021.8174	-0.000232
1022.0608	-0.000591
1022.3042	-0.000739
1022.5477	-0.001626
1022.7911	0.000232
1023.0345	0.000232
