# Wavelength (nm)	Intensity (a.u.)
197.7802	0.000899
197.9842	-0.002463
198.1882	-0.001173
198.3922	0.000243
198.5963	-0.000962
198.8003	-0.000180
199.0044	0.000159
199.2085	-0.000391
199.4126	-0.000412
199.6168	-0.000433
199.8209	0.002061
200.0251	0.000243
200.2292	0.000264
200.4334	-0.001512
200.6376	0.000116
200.8418	0.000074
201.0461	0.002949
201.2503	-0.001237
201.4546	0.001512
201.6589	-0.001406
201.8631	0.002992
202.0674	-0.001258
202.2718	0.001343
202.4761	0.000328
202.6805	0.000793
202.8848	0.000116
203.0892	-0.001956
203.2936	0.001110
203.4980	-0.001702
203.7024	-0.000391
203.9069	0.002019
204.1113	-0.000053
204.3158	-0.000074
204.5203	0.000264
204.7248	-0.000264
204.9293	-0.000877
205.1338	0.001427
205.3384	-0.000624
205.5430	0.001173
205.7475	-0.001406
205.9521	-0.000518
206.1567	0.001808
206.3614	0.000011
206.5660	0.000539
206.7706	0.001195
206.9753	0.000814
207.1800	-0.001364
207.3847	0.000560
207.5894	-0.001216
207.7941	0.001152
207.9989	0.001195
208.2036	-0.000243
208.4084	-0.000243
208.6132	-0.000772
208.8180	0.000159
209.0228	0.000264
209.2276	0.001025
209.4325	-0.000243
209.6373	-0.000095
209.8422	-0.000349
210.0471	0.001025
210.2520	-0.000074
210.4569	0.000180
210.6618	0.001089
210.8668	-0.001681
211.0718	0.000328
211.2767	0.001068
211.4817	-0.000581
211.6867	0.000581
211.8918	-0.000856
212.0968	0.001047
212.3018	0.000201
212.5069	0.000814
212.7120	0.000983
212.9171	-0.000729
213.1222	0.001554
213.3273	-0.000539
213.5325	0.000074
213.7376	-0.002125
213.9428	0.000666
214.1480	0.000328
214.3532	-0.001660
214.5584	0.000856
214.7636	-0.001004
214.9689	0.000687
215.1741	-0.001131
215.3794	-0.000180
215.5847	0.000285
215.7900	-0.000899
215.9953	-0.000328
216.2007	0.000222
216.4060	-0.000899
216.6114	0.001237
216.8168	-0.000666
217.0222	-0.000222
217.2276	-0.000011
217.4330	0.000560
217.6384	0.000370
217.8439	0.002442
218.0494	0.000666
218.2548	0.001787
218.4603	-0.000476
218.6659	0.000603
218.8714	0.001406
219.0769	0.000793
219.2825	-0.000518
219.4881	0.000666
219.6936	-0.000539
219.8992	0.001110
220.1049	-0.002188
220.3105	0.000053
220.5161	-0.000581
220.7218	0.000370
220.9275	-0.001258
221.1332	0.000032
221.3389	0.000539
221.5446	-0.000032
221.7503	-0.000074
221.9561	0.001004
222.1618	-0.000687
222.3676	0.000243
222.5734	-0.001025
222.7792	-0.000560
222.9850	0.002209
223.1909	0.001216
223.3967	0.000074
223.6026	-0.000497
223.8085	-0.000920
224.0144	-0.000053
224.2203	0.000412
224.4262	0.000560
224.6322	-0.000328
224.8381	-0.000032
225.0441	0.001512
225.2501	-0.000159
225.4561	-0.000370
225.6621	0.000645
225.8681	-0.001850
226.0742	0.000920
226.2802	-0.001977
226.4863	0.000645
226.6924	-0.000433
226.8985	0.001131
227.1046	-0.000095
227.3107	-0.000877
227.5169	-0.000729
227.7230	0.000264
227.9292	-0.000307
228.1354	0.002019
228.3416	0.000285
228.5478	0.000751
228.7541	0.001385
228.9603	0.000539
229.1666	-0.001089
229.3729	0.000666
229.5791	-0.001892
229.7855	-0.002209
229.9918	-0.000624
230.1981	-0.000328
230.4045	0.001575
230.6108	0.000666
230.8172	-0.000391
231.0236	-0.000539
231.2300	-0.000687
231.4364	-0.001469
231.6429	0.000814
231.8493	0.000666
232.0558	-0.001956
232.2623	0.001321
232.4688	-0.000751
232.6753	0.000307
232.8818	0.000603
233.0884	-0.000159
233.2949	0.000899
233.5015	-0.000476
233.7081	-0.000962
233.9147	0.000624
234.1213	0.000560
234.3279	0.001850
234.5346	-0.001406
234.7413	-0.000074
234.9479	-0.000624
235.1546	-0.000497
235.3613	0.000497
235.5680	0.000835
235.7748	0.001660
235.9815	0.000983
236.1883	0.000835
236.3951	0.002019
236.6018	0.000349
236.8087	0.001343
237.0155	0.001300
237.2223	-0.000856
237.4292	0.000687
237.6360	0.000243
237.8429	0.000074
238.0498	0.000159
238.2567	0.000307
238.4636	0.000941
238.6706	-0.000285
238.8775	0.001131
239.0845	-0.000053
239.2915	0.000285
239.4985	-0.001596
239.7055	0.000116
239.9125	-0.000497
240.1195	0.000751
240.3266	-0.001321
240.5337	0.000180
240.7407	-0.000899
240.9478	0.001131
241.1549	0.000518
241.3621	0.000497
241.5692	0.000201
241.7764	-0.000053
241.9835	-0.000412
242.1907	-0.000581
242.3979	-0.000856
242.6051	0.001047
242.8124	0.000264
243.0196	0.000137
243.2269	-0.000412
243.4341	-0.000687
243.6414	-0.000581
243.8487	0.001998
244.0560	0.000518
244.2634	0.001427
244.4707	0.000856
244.6781	0.000032
244.8854	0.000180
245.0928	-0.001068
245.3002	-0.000920
245.5076	-0.001765
245.7151	0.000433
245.9225	-0.000053
246.1300	-0.001448
246.3375	0.001744
246.5449	-0.001533
246.7524	-0.000053
246.9600	-0.000180
247.1675	0.000751
247.3750	0.000539
247.5826	0.001533
247.7902	-0.001469
247.9978	0.001343
248.2054	0.000032
248.4130	-0.001004
248.6206	-0.001343
248.8283	-0.000137
249.0359	0.001364
249.2436	0.001533
249.4513	-0.000856
249.6590	-0.000751
249.8667	-0.000180
250.0745	-0.000920
250.2822	-0.000645
250.4900	-0.000243
250.6978	0.000137
250.9056	0.000708
251.1134	-0.000159
251.3212	0.000729
251.5290	0.000941
251.7369	0.000814
251.9447	0.000011
252.1526	0.000899
252.3605	-0.000053
252.5684	-0.000201
252.7763	-0.000666
252.9843	0.000391
253.1922	0.000116
253.4002	-0.000307
253.6082	-0.001977
253.8162	-0.001258
254.0242	-0.000645
254.2322	0.001998
254.4402	0.000751
254.6483	0.000729
254.8564	-0.000518
255.0644	0.000201
255.2725	0.000011
255.4806	-0.001110
255.6888	-0.000518
255.8969	0.000793
256.1051	-0.000518
256.3132	0.000011
256.5214	0.001279
256.7296	-0.000856
256.9378	-0.000560
257.1460	0.000877
257.3543	-0.000772
257.5625	-0.000011
257.7708	-0.001004
257.9791	-0.000751
258.1874	0.000666
258.3957	0.000116
258.6040	-0.001089
258.8124	0.000328
259.0207	0.001047
259.2291	-0.000433
259.4375	-0.001152
259.6459	0.000285
259.8543	-0.000137
260.0627	-0.000285
260.2711	-0.000835
260.4796	0.000370
260.6881	0.000307
260.8965	0.000285
261.1050	0.000433
261.3135	-0.000476
261.5221	-0.000243
261.7306	0.001469
261.9392	-0.000624
262.1477	0.001364
262.3563	0.001025
262.5649	-0.001533
262.7735	0.001829
262.9822	0.000412
263.1908	0.000497
263.3995	0.000751
263.6081	-0.001829
263.8168	-0.000307
264.0255	0.000053
264.2342	-0.000011
264.4429	-0.000412
264.6517	0.000222
264.8604	0.000074
265.0692	0.001681
265.2780	-0.000560
265.4868	0.000497
265.6956	0.000095
265.9044	0.002315
266.1133	0.000222
266.3221	0.000137
266.5310	-0.000264
266.7399	0.000116
266.9488	0.000645
267.1577	-0.000624
267.3666	-0.000560
267.5755	-0.000560
267.7845	0.000011
267.9935	0.000877
268.2024	0.000370
268.4114	0.001047
268.6205	0.001004
268.8295	0.001343
269.0385	-0.000772
269.2476	0.000328
269.4566	0.001448
269.6657	-0.000222
269.8748	-0.000476
270.0839	0.001216
270.2931	0.001173
270.5022	-0.000391
270.7114	-0.001639
270.9205	-0.000856
271.1297	-0.000560
271.3389	0.001131
271.5481	-0.000751
271.7573	-0.000603
271.9666	0.000159
272.1758	-0.000560
272.3851	-0.001702
272.5944	0.000518
272.8037	0.000835
273.0130	-0.001427
273.2223	-0.000751
273.4316	0.000032
273.6410	0.001469
273.8504	0.001406
274.0597	-0.000729
274.2691	-0.000666
274.4785	-0.000476
274.6880	-0.001110
274.8974	-0.000751
275.1069	0.000137
275.3163	-0.000180
275.5258	-0.000560
275.7353	-0.000941
275.9448	0.001025
276.1543	-0.000624
276.3639	-0.000497
276.5734	0.001343
276.7830	0.001258
276.9926	-0.000116
277.2022	0.000455
277.4118	-0.000814
277.6214	-0.000729
277.8310	-0.003267
278.0407	-0.000307
278.2503	-0.000328
278.4600	0.000412
278.6697	0.000708
278.8794	-0.000349
279.0891	0.000180
279.2989	0.001089
279.5086	-0.001702
279.7184	0.000285
279.9281	-0.000624
280.1379	0.000497
280.3477	-0.002231
280.5576	0.000433
280.7674	-0.000518
280.9772	0.000370
281.1871	-0.001660
281.3970	0.001575
281.6069	0.001512
281.8168	0.001025
282.0267	0.000053
282.2366	-0.000624
282.4466	-0.000962
282.6565	-0.000455
282.8665	-0.001427
283.0765	-0.000476
283.2865	-0.000011
283.4965	-0.000708
283.7065	-0.000645
283.9166	0.000772
284.1266	-0.000581
284.3367	0.000222
284.5468	-0.001617
284.7569	-0.001575
284.9670	-0.001364
285.1771	0.000391
285.3873	-0.000159
285.5974	0.001300
285.8076	0.001660
286.0178	0.000370
286.2280	0.001617
286.4382	0.000687
286.6484	-0.000307
286.8587	0.001385
287.0689	0.000116
287.2792	0.000772
287.4895	-0.001068
287.6998	0.000856
287.9101	0.001512
288.1204	0.001935
288.3308	-0.001258
288.5411	0.000687
288.7515	-0.000941
288.9619	0.000116
289.1723	-0.001152
289.3827	0.000349
289.5931	0.000687
289.8035	-0.001364
290.0140	-0.001279
290.2245	0.000751
290.4349	-0.000349
290.6454	0.000603
290.8559	-0.001173
291.0665	0.000011
291.2770	-0.001279
291.4875	0.001216
291.6981	-0.000328
291.9087	0.001216
292.1193	-0.001575
292.3299	-0.000307
292.5405	-0.001025
292.7511	-0.000920
292.9618	0.001279
293.1724	0.001892
293.3831	0.001512
293.5938	-0.000877
293.8045	-0.000180
294.0152	-0.000095
294.2260	0.000772
294.4367	-0.000624
294.6475	-0.001237
294.8582	0.000053
295.0690	-0.000772
295.2798	-0.000349
295.4906	0.000412
295.7015	0.000328
295.9123	-0.000032
296.1232	0.000159
296.3340	0.000687
296.5449	0.000687
296.7558	-0.000856
296.9667	0.000011
297.1777	0.000328
297.3886	0.000264
297.5995	0.000814
297.8105	0.000180
298.0215	0.001300
298.2325	-0.000116
298.4435	-0.000307
298.6545	0.000476
298.8656	-0.000920
299.0766	-0.001025
299.2877	-0.000137
299.4988	0.000264
299.7099	-0.000243
299.9210	0.001047
300.1321	0.001935
300.3432	0.002357
300.5544	0.000772
300.7655	-0.000137
300.9767	0.000391
301.1879	0.000581
301.3991	-0.001300
301.6103	-0.000180
301.8215	-0.001977
302.0328	0.000835
302.2441	-0.000159
302.4553	0.001512
302.6666	-0.000307
302.8779	-0.000222
303.0892	-0.000962
303.3006	0.000433
303.5119	0.000243
303.7233	0.000899
303.9346	0.001110
304.1460	-0.000201
304.3574	0.000222
304.5688	0.000497
304.7803	-0.001871
304.9917	0.000328
305.2031	-0.001639
305.4146	-0.000222
305.6261	0.001723
305.8376	0.001237
306.0491	0.000222
306.2606	0.000011
306.4722	-0.000877
306.6837	0.000328
306.8953	-0.000856
307.1069	-0.000285
307.3184	0.000518
307.5301	-0.001195
307.7417	-0.000835
307.9533	0.000645
308.1650	-0.000159
308.3766	0.001702
308.5883	0.000264
308.8000	0.003267
309.0117	0.001639
309.2234	-0.000137
309.4351	-0.000053
309.6469	-0.000772
309.8586	0.000137
310.0704	0.000095
310.2822	0.000222
310.4940	0.001364
310.7058	-0.000539
310.9176	0.000476
311.1295	0.000201
311.3413	0.000856
311.5532	0.000539
311.7651	0.001025
311.9770	0.001512
312.1889	0.000433
312.4008	-0.000137
312.6127	0.000920
312.8247	-0.000666
313.0366	0.000962
313.2486	-0.000518
313.4606	0.001343
313.6726	0.000095
313.8846	0.000180
314.0967	-0.001068
314.3087	0.000011
314.5208	0.001744
314.7328	0.000476
314.9449	0.000011
315.1570	0.000983
315.3692	0.000159
315.5813	0.000645
315.7934	-0.000264
316.0056	0.000814
316.2177	-0.000264
316.4299	-0.000455
316.6421	-0.000328
316.8543	-0.000433
317.0666	-0.001216
317.2788	0.000159
317.4911	-0.000349
317.7033	0.000349
317.9156	0.000201
318.1279	0.000899
318.3402	-0.000624
318.5525	-0.000180
318.7649	-0.000941
318.9772	-0.000962
319.1896	-0.000962
319.4019	-0.000391
319.6143	0.000603
319.8267	0.001427
320.0392	-0.000560
320.2516	-0.001681
320.4640	-0.001448
320.6765	0.000095
320.8890	-0.000581
321.1014	0.000053
321.3139	-0.000962
321.5265	0.003393
321.7390	0.000941
321.9515	0.000222
322.1641	-0.000518
322.3766	0.000285
322.5892	0.000328
322.8018	0.000899
323.0144	0.000687
323.2270	0.000476
323.4397	-0.002019
323.6523	0.000349
323.8650	0.001258
324.0777	0.000687
324.2904	0.000581
324.5031	0.000307
324.7158	-0.001004
324.9285	0.000581
325.1412	-0.000835
325.3540	0.000328
325.5668	0.000053
325.7796	0.000581
325.9924	0.000074
326.2052	-0.000983
326.4180	-0.001004
326.6308	0.000920
326.8437	-0.000899
327.0566	-0.000074
327.2694	0.000349
327.4823	-0.000137
327.6952	-0.000433
327.9082	0.000201
328.1211	0.000201
328.3340	-0.000793
328.5470	-0.000877
328.7600	-0.001406
328.9730	-0.000518
329.1860	0.000349
329.3990	-0.000180
329.6120	0.000222
329.8251	0.000032
330.0381	0.001512
330.2512	-0.000285
330.4643	0.000180
330.6774	0.001427
330.8905	0.000095
331.1036	0.000264
331.3167	-0.000814
331.5299	0.000941
331.7431	0.001300
331.9562	-0.000328
332.1694	0.000095
332.3826	-0.001364
332.5959	-0.001047
332.8091	-0.000243
333.0223	-0.000243
333.2356	0.000222
333.4489	-0.000666
333.6622	-0.000116
333.8755	0.000645
334.0888	-0.000307
334.3021	0.000095
334.5154	0.000412
334.7288	0.001681
334.9422	-0.000708
335.1555	0.000412
335.3689	0.001956
335.5823	0.001533
335.7958	0.000095
336.0092	0.000159
336.2227	-0.000243
336.4361	-0.000476
336.6496	-0.000539
336.8631	0.000899
337.0766	-0.000433
337.2901	-0.000497
337.5036	-0.000159
337.7172	0.001702
337.9307	-0.002040
338.1443	0.000137
338.3579	-0.000899
338.5715	0.000455
338.7851	-0.000433
338.9987	0.000095
339.2124	-0.001364
339.4260	0.000539
339.6397	-0.000687
339.8533	-0.001258
340.0670	-0.000814
340.2807	0.001131
340.4945	-0.000349
340.7082	0.001343
340.9219	-0.001660
341.1357	0.001385
341.3495	-0.001681
341.5633	0.001321
341.7771	-0.000497
341.9909	0.000983
342.2047	-0.001025
342.4185	0.000116
342.6324	-0.000455
342.8463	0.000116
343.0601	0.000772
343.2740	0.000708
343.4879	-0.000581
343.7019	-0.001237
343.9158	-0.000159
344.1297	-0.000053
344.3437	-0.001469
344.5577	-0.000433
344.7717	-0.001195
344.9857	0.000032
345.1997	-0.000941
345.4137	-0.001089
345.6277	0.000074
345.8418	-0.000962
346.0559	0.000201
346.2699	0.000370
346.4840	-0.001787
346.6981	-0.002231
346.9123	-0.000941
347.1264	0.000391
347.3406	-0.000328
347.5547	0.000137
347.7689	-0.000011
347.9831	-0.001321
348.1973	0.000624
348.4115	0.001173
348.6257	-0.001279
348.8400	0.001258
349.0542	-0.000180
349.2685	-0.000877
349.4828	0.000814
349.6971	0.000814
349.9114	0.000476
350.1257	0.000011
350.3400	0.000962
350.5544	0.001385
350.7687	0.000518
350.9831	-0.000687
351.1975	0.001808
351.4119	-0.000159
351.6263	0.000264
351.8407	-0.000729
352.0552	-0.000159
352.2696	0.000264
352.4841	0.000518
352.6986	-0.000074
352.9131	-0.000032
353.1276	0.002146
353.3421	0.001173
353.5566	0.001469
353.7712	-0.000581
353.9858	0.000751
354.2003	-0.000137
354.4149	-0.000011
354.6295	0.000920
354.8441	-0.000116
355.0588	0.001321
355.2734	-0.000751
355.4881	-0.000180
355.7027	0.000349
355.9174	-0.001047
356.1321	-0.001998
356.3468	-0.000011
356.5615	0.001279
356.7763	0.000285
356.9910	-0.002315
357.2058	0.001004
357.4206	0.001004
357.6353	-0.002336
357.8501	0.000560
358.0650	0.000243
358.2798	0.001110
358.4946	0.001025
358.7095	0.000687
358.9243	-0.000053
359.1392	0.000899
359.3541	-0.000285
359.5690	0.000645
359.7839	0.001554
359.9989	0.000180
360.2138	-0.001744
360.4288	-0.000180
360.6438	0.001025
360.8587	0.000328
361.0737	0.000053
361.2888	0.000391
361.5038	0.000201
361.7188	0.000793
361.9339	0.000433
362.1489	0.000412
362.3640	0.000349
362.5791	0.001448
362.7942	-0.000729
363.0093	0.000455
363.2245	0.001364
363.4396	-0.000053
363.6548	-0.000391
363.8699	0.002104
364.0851	0.000835
364.3003	-0.000201
364.5155	-0.000793
364.7308	0.001068
364.9460	0.000180
365.1612	0.000137
365.3765	-0.000433
365.5918	-0.000687
365.8071	0.000264
366.0224	0.000772
366.2377	-0.000666
366.4530	-0.000180
366.6684	0.000328
366.8837	0.000624
367.0991	0.000603
367.3145	0.000687
367.5299	-0.001300
367.7453	0.000877
367.9607	-0.001364
368.1761	-0.000095
368.3916	0.001195
368.6070	-0.000497
368.8225	-0.000116
369.0380	0.000137
369.2535	0.000285
369.4690	0.000307
369.6845	-0.000899
369.9001	0.000518
370.1156	-0.001702
370.3312	0.000370
370.5468	-0.000581
370.7624	-0.000180
370.9780	-0.000751
371.1936	0.001004
371.4092	-0.000581
371.6249	0.000328
371.8405	0.000560
372.0562	-0.000772
372.2719	-0.000201
372.4876	0.000729
372.7033	-0.001892
372.9190	0.000180
373.1348	-0.000433
373.3505	-0.000433
373.5663	-0.000053
373.7820	0.001300
373.9978	0.000011
374.2136	0.000074
374.4294	-0.000285
374.6453	-0.000877
374.8611	0.000285
375.0770	0.000941
375.2928	0.000180
375.5087	-0.000412
375.7246	0.000053
375.9405	-0.000814
376.1564	0.000222
376.3724	0.000412
376.5883	0.000497
376.8043	-0.000497
377.0203	0.000201
377.2362	-0.000518
377.4522	0.000518
377.6682	-0.000687
377.8843	0.000011
378.1003	0.000222
378.3164	-0.001343
378.5324	-0.000243
378.7485	-0.000687
378.9646	0.000624
379.1807	0.001025
379.3968	-0.000645
379.6129	0.001744
379.8291	0.000074
380.0452	-0.000708
380.2614	0.001321
380.4776	-0.002146
380.6938	-0.000349
380.9100	0.000497
381.1262	-0.001216
381.3424	0.000814
381.5587	-0.000116
381.7749	-0.000645
381.9912	0.001554
382.2075	0.000412
382.4238	0.000159
382.6401	-0.001047
382.8564	0.000243
383.0728	-0.001279
383.2891	0.000539
383.5055	-0.000159
383.7219	0.000497
383.9382	0.000581
384.1546	-0.000772
384.3711	-0.000708
384.5875	0.000222
384.8039	-0.000116
385.0204	-0.000624
385.2368	0.002019
385.4533	-0.000729
385.6698	-0.000285
385.8863	-0.000095
386.1028	-0.000687
386.3194	0.000666
386.5359	0.000201
386.7525	-0.000201
386.9690	0.000307
387.1856	-0.001639
387.4022	-0.000222
387.6188	0.000285
387.8355	-0.000476
388.0521	0.001089
388.2687	-0.000116
388.4854	-0.000159
388.7021	-0.000729
388.9188	0.000983
389.1355	-0.000433
389.3522	0.000201
389.5689	0.001195
389.7856	-0.000053
390.0024	0.000032
390.2192	-0.000116
390.4359	0.000074
390.6527	-0.000772
390.8695	0.000687
391.0863	-0.000899
391.3032	-0.000011
391.5200	-0.000264
391.7369	-0.000243
391.9537	-0.000159
392.1706	-0.001131
392.3875	-0.000243
392.6044	-0.000180
392.8213	0.000243
393.0383	0.000116
393.2552	-0.000687
393.4722	0.000116
393.6891	0.000581
393.9061	-0.001110
394.1231	-0.001300
394.3401	0.000180
394.5572	0.001512
394.7742	0.000328
394.9912	0.001089
395.2083	-0.000624
395.4254	0.000539
395.6425	-0.001025
395.8596	0.000011
396.0767	-0.000053
396.2938	-0.001004
396.5109	-0.000243
396.7281	-0.000941
396.9453	0.000074
397.1624	0.000856
397.3796	-0.000412
397.5968	0.000539
397.8140	-0.000243
398.0313	0.000835
398.2485	0.000349
398.4658	-0.001131
398.6830	-0.001448
398.9003	-0.001469
399.1176	0.000116
399.3349	0.001681
399.5522	-0.000624
399.7696	-0.000116
399.9869	-0.001216
400.2043	0.001152
400.4216	-0.001110
400.6390	-0.000645
400.8564	-0.001406
401.0738	-0.001533
401.2912	-0.000095
401.5087	0.000539
401.7261	0.001047
401.9436	0.000074
402.1610	-0.000518
402.3785	0.000074
402.5960	0.000645
402.8135	-0.000349
403.0310	-0.000391
403.2486	-0.001427
403.4661	-0.001617
403.6837	0.000539
403.9013	0.000497
404.1189	0.001216
404.3365	-0.001617
404.5541	0.000159
404.7717	-0.000222
404.9893	0.000137
405.2070	-0.000433
405.4246	-0.000793
405.6423	-0.000814
405.8600	-0.000899
406.0777	-0.001469
406.2954	0.001068
406.5131	-0.000497
406.7309	0.000877
406.9486	-0.000666
407.1664	0.001279
407.3842	-0.000011
407.6020	-0.000116
407.8198	0.000412
408.0376	-0.000814
408.2554	0.002061
408.4733	0.000011
408.6911	0.000772
408.9090	-0.000624
409.1269	0.001660
409.3448	-0.000349
409.5627	0.001173
409.7806	-0.002104
409.9985	-0.000581
410.2165	0.001216
410.4344	-0.002019
410.6524	-0.001173
410.8704	-0.000095
411.0884	-0.000729
411.3064	-0.000159
411.5244	-0.000011
411.7424	-0.000180
411.9605	-0.002548
412.1785	0.000370
412.3966	-0.000053
412.6147	0.000581
412.8328	0.000095
413.0509	0.000095
413.2690	0.000560
413.4871	0.000624
413.7053	-0.000032
413.9234	0.000772
414.1416	-0.000032
414.3598	-0.000687
414.5780	0.000835
414.7962	-0.000074
415.0144	-0.000772
415.2326	0.001744
415.4509	-0.000053
415.6692	-0.000560
415.8874	-0.000095
416.1057	0.000624
416.3240	-0.001744
416.5423	0.001131
416.7606	-0.001047
416.9790	0.000814
417.1973	0.001596
417.4157	-0.000835
417.6341	0.001089
417.8524	-0.000539
418.0708	-0.001343
418.2893	0.001723
418.5077	-0.000307
418.7261	0.000645
418.9446	-0.002463
419.1630	-0.000539
419.3815	0.001089
419.6000	-0.000328
419.8185	-0.002019
420.0370	-0.000814
420.2555	-0.001300
420.4741	0.000941
420.6926	0.000032
420.9112	-0.000243
421.1298	-0.000962
421.3483	0.000666
421.5669	-0.001829
421.7856	0.000328
422.0042	-0.001469
422.2228	0.000243
422.4415	0.000370
422.6601	-0.000201
422.8788	-0.000856
423.0975	-0.000772
423.3162	-0.001533
423.5349	-0.000455
423.7536	0.000603
423.9724	-0.001025
424.1911	-0.000581
424.4099	0.002040
424.6287	-0.001871
424.8475	0.000497
425.0663	0.000053
425.2851	0.000835
425.5039	0.006840
425.7228	0.000624
425.9416	-0.000391
426.1605	0.000243
426.3793	-0.000391
426.5982	0.000222
426.8171	0.000011
427.0361	-0.002125
427.2550	-0.002146
427.4739	0.000666
427.6929	-0.000793
427.9118	0.000201
428.1308	0.000624
428.3498	-0.000053
428.5688	0.000518
428.7878	-0.000137
429.0068	0.000285
429.2259	0.000814
429.4449	-0.001787
429.6640	0.000412
429.8831	0.000095
430.1022	-0.000581
430.3213	0.000920
430.5404	-0.000624
430.7595	0.000687
430.9787	0.000391
431.1978	0.001321
431.4170	0.002379
431.6362	0.000497
431.8553	-0.000074
432.0745	0.000095
432.2938	0.000074
432.5130	0.000687
432.7322	-0.001047
432.9515	-0.001554
433.1707	0.000116
433.3900	0.000328
433.6093	0.001406
433.8286	-0.001237
434.0479	-0.000708
434.2673	0.000560
434.4866	0.000603
434.7059	-0.000370
434.9253	0.000307
435.1447	-0.001258
435.3641	-0.001089
435.5835	-0.000095
435.8029	0.002315
436.0223	0.000307
436.2418	0.000687
436.4612	0.000222
436.6807	0.000560
436.9001	-0.001195
437.1196	-0.001068
437.3391	0.000201
437.5586	0.000518
437.7782	-0.000962
437.9977	0.001744
438.2173	0.000370
438.4368	0.000497
438.6564	-0.000201
438.8760	0.001152
439.0956	-0.000455
439.3152	-0.000095
439.5348	0.001279
439.7545	0.001152
439.9741	-0.000011
440.1938	-0.000180
440.4135	0.000708
440.6331	0.001533
440.8528	-0.000772
441.0725	-0.000835
441.2923	0.000053
441.5120	0.000539
441.7318	-0.000243
441.9515	0.001406
442.1713	-0.001279
442.3911	-0.000285
442.6109	-0.000349
442.8307	0.000074
443.0505	-0.001025
443.2703	0.002611
443.4902	-0.000941
443.7101	-0.000666
443.9299	-0.000328
444.1498	-0.001343
444.3697	-0.000941
444.5896	0.000455
444.8095	-0.001216
445.0295	0.001152
445.2494	0.000476
445.4694	-0.000349
445.6894	0.001068
445.9093	-0.000729
446.1293	0.000328
446.3493	0.004345
446.5694	0.000201
446.7894	0.000899
447.0094	-0.000349
447.2295	0.000011
447.4496	-0.000116
447.6696	-0.000814
447.8897	0.000243
448.1098	0.001977
448.3300	0.001110
448.5501	0.000920
448.7702	0.001913
448.9904	0.001427
449.2106	0.000116
449.4307	0.000518
449.6509	-0.000011
449.8711	-0.000687
450.0914	-0.000285
450.3116	0.000116
450.5318	-0.000074
450.7521	0.000772
450.9724	0.000941
451.1926	-0.000708
451.4129	-0.000074
451.6332	0.000180
451.8535	-0.000983
452.0739	-0.000222
452.2942	-0.001406
452.5146	0.000856
452.7349	0.000349
452.9553	-0.000603
453.1757	-0.000243
453.3961	0.000180
453.6165	0.000560
453.8369	-0.000603
454.0574	0.000835
454.2778	-0.000455
454.4983	0.000518
454.7188	0.000497
454.9393	-0.000624
455.1597	-0.000687
455.3803	0.000941
455.6008	-0.000412
455.8213	-0.001765
456.0419	-0.000708
456.2624	0.000624
456.4830	0.001216
456.7036	-0.001364
456.9242	0.001131
457.1448	-0.000983
457.3654	-0.001004
457.5860	0.000603
457.8067	0.000264
458.0274	-0.001237
458.2480	0.000497
458.4687	0.000518
458.6894	-0.000560
458.9101	0.000307
459.1308	0.000243
459.3516	-0.000687
459.5723	0.000116
459.7931	0.000328
460.0138	0.000645
460.2346	0.000137
460.4554	0.001427
460.6762	-0.001152
460.8970	-0.001406
461.1178	0.001681
461.3387	-0.000772
461.5595	-0.000708
461.7804	-0.001702
462.0013	0.000074
462.2222	0.000941
462.4431	0.000962
462.6640	-0.000349
462.8849	0.001448
463.1059	-0.000222
463.3268	0.000518
463.5478	-0.000899
463.7687	-0.000222
463.9897	-0.000877
464.2107	-0.000074
464.4317	-0.000941
464.6528	0.001427
464.8738	-0.000053
465.0948	-0.001575
465.3159	-0.000433
465.5370	0.000307
465.7581	0.000116
465.9792	0.000877
466.2003	-0.001300
466.4214	-0.000624
466.6425	-0.000729
466.8637	0.001195
467.0848	0.000603
467.3060	0.001279
467.5272	-0.001829
467.7484	-0.002104
467.9696	0.000285
468.1908	-0.000053
468.4120	0.000814
468.6333	-0.000645
468.8545	-0.001681
469.0758	-0.000328
469.2970	0.000751
469.5183	-0.001512
469.7396	-0.000116
469.9610	0.000095
470.1823	-0.000074
470.4036	-0.000053
470.6250	-0.000074
470.8463	-0.000539
471.0677	-0.000539
471.2891	-0.001047
471.5105	0.000116
471.7319	-0.000497
471.9533	-0.000222
472.1748	0.001025
472.3962	-0.000391
472.6177	-0.001660
472.8391	-0.001152
473.0606	-0.000243
473.2821	0.001343
473.5036	-0.001216
473.7251	-0.001829
473.9467	0.000201
474.1682	-0.000412
474.3898	-0.000941
474.6113	-0.000095
474.8329	0.001216
475.0545	-0.000391
475.2761	-0.000349
475.4977	-0.000222
475.7193	0.000666
475.9410	-0.001469
476.1626	-0.001216
476.3843	0.001808
476.6060	0.000624
476.8277	-0.001723
477.0494	-0.000772
477.2711	0.008658
477.4928	-0.000370
477.7145	-0.000328
477.9363	-0.000455
478.1580	-0.000243
478.3798	-0.001237
478.6016	0.001089
478.8234	-0.000518
479.0452	-0.000137
479.2670	0.000180
479.4888	-0.000032
479.7107	0.001512
479.9325	-0.000243
480.1544	0.000201
480.3763	0.000222
480.5982	-0.000560
480.8201	0.001491
481.0420	-0.000560
481.2639	-0.000645
481.4859	0.000581
481.7078	-0.000370
481.9298	-0.001596
482.1517	-0.001364
482.3737	-0.000518
482.5957	-0.000053
482.8177	-0.001173
483.0398	0.001491
483.2618	-0.000285
483.4838	0.000011
483.7059	-0.001110
483.9280	-0.001702
484.1501	-0.000243
484.3721	0.001617
484.5943	0.000201
484.8164	-0.001004
485.0385	-0.000433
485.2606	0.000433
485.4828	0.000285
485.7050	-0.000349
485.9271	0.000751
486.1493	0.000433
486.3715	0.000455
486.5937	-0.000814
486.8160	0.000920
487.0382	-0.000603
487.2605	0.001617
487.4827	0.000581
487.7050	0.000899
487.9273	-0.001533
488.1496	0.000159
488.3719	-0.000793
488.5942	0.000328
488.8165	-0.001047
489.0389	0.000581
489.2612	-0.001512
489.4836	-0.000053
489.7060	-0.000433
489.9284	0.000603
490.1508	-0.000518
490.3732	-0.001258
490.5956	-0.000920
490.8180	-0.000201
491.0405	0.000201
491.2630	0.000370
491.4854	-0.001195
491.7079	-0.000095
491.9304	-0.000497
492.1529	0.000624
492.3755	-0.000793
492.5980	0.001004
492.8205	-0.000835
493.0431	0.000772
493.2657	-0.000666
493.4882	0.001300
493.7108	-0.000645
493.9334	-0.000011
494.1561	-0.001554
494.3787	0.001787
494.6013	0.000243
494.8240	0.000687
495.0466	0.000497
495.2693	0.000032
495.4920	-0.000159
495.7147	0.000455
495.9374	-0.001110
496.1601	0.000180
496.3829	-0.000328
496.6056	0.000328
496.8284	-0.001871
497.0511	0.000560
497.2739	-0.000751
497.4967	-0.000116
497.7195	0.001639
497.9423	-0.000137
498.1652	-0.000581
498.3880	-0.001089
498.6109	0.000856
498.8337	0.001575
499.0566	-0.002125
499.2795	0.001639
499.5024	-0.000137
499.7253	0.000349
499.9482	-0.000729
500.1712	-0.001004
500.3941	-0.000370
500.6171	0.000962
500.8400	-0.000095
501.0630	-0.001216
501.2860	-0.000856
501.5090	0.000180
501.7320	-0.000497
501.9551	0.000264
502.1781	-0.000624
502.4012	0.001173
502.6242	0.001343
502.8473	-0.000539
503.0704	0.000159
503.2935	0.000285
503.5166	-0.000793
503.7397	0.000772
503.9628	-0.001279
504.1860	0.000116
504.4092	-0.000666
504.6323	0.000603
504.8555	-0.001300
505.0787	0.000307
505.3019	0.000412
505.5251	-0.000433
505.7483	0.001258
505.9716	-0.001300
506.1948	-0.000476
506.4181	0.000159
506.6414	0.001639
506.8647	-0.001427
507.0880	0.000793
507.3113	-0.000539
507.5346	-0.000518
507.7579	0.000497
507.9813	0.001004
508.2046	-0.001491
508.4280	0.001364
508.6514	-0.000285
508.8748	-0.001089
509.0982	0.000011
509.3216	0.001364
509.5450	0.000708
509.7685	-0.001279
509.9919	-0.000349
510.2154	0.000349
510.4388	-0.001829
510.6623	0.000032
510.8858	0.001068
511.1093	-0.000095
511.3329	0.000095
511.5564	-0.000137
511.7799	-0.000772
512.0035	0.001723
512.2270	0.000328
512.4506	-0.000539
512.6742	-0.000159
512.8978	0.000751
513.1214	-0.000455
513.3451	0.000095
513.5687	-0.000877
513.7923	0.000412
514.0160	0.001385
514.2397	-0.001660
514.4634	0.000856
514.6871	0.000793
514.9108	-0.000581
515.1345	-0.000264
515.3582	0.001258
515.5819	0.000962
515.8057	0.000941
516.0295	-0.000053
516.2532	-0.000180
516.4770	-0.001829
516.7008	0.000877
516.9246	-0.000349
517.1485	0.000962
517.3723	0.000222
517.5961	0.000328
517.8200	-0.000074
518.0439	0.000835
518.2677	-0.001639
518.4916	-0.000222
518.7155	0.000877
518.9395	0.001406
519.1634	0.000180
519.3873	0.000476
519.6113	0.000349
519.8352	-0.000349
520.0592	0.000328
520.2832	-0.000412
520.5072	0.001575
520.7312	-0.000116
520.9552	0.000307
521.1792	0.000455
521.4033	-0.000328
521.6273	0.000729
521.8514	-0.000243
522.0755	-0.000137
522.2996	0.000983
522.5237	-0.000581
522.7478	-0.001258
522.9719	-0.001300
523.1960	0.001004
523.4202	-0.000814
523.6443	-0.000307
523.8685	-0.000137
524.0927	0.000116
524.3169	-0.000941
524.5411	-0.000307
524.7653	-0.000708
524.9895	-0.000666
525.2138	-0.002061
525.4380	0.000433
525.6623	-0.002125
525.8865	-0.000772
526.1108	-0.000941
526.3351	0.001364
526.5594	-0.000053
526.7837	0.000476
527.0081	0.001892
527.2324	0.000793
527.4568	0.000370
527.6811	-0.001533
527.9055	-0.000899
528.1299	-0.000899
528.3543	-0.000222
528.5787	0.001871
528.8031	-0.000180
529.0276	0.001385
529.2520	-0.000095
529.4765	0.000433
529.7009	-0.001385
529.9254	0.000349
530.1499	0.000243
530.3744	0.000603
530.5989	0.000391
530.8234	0.001089
531.0480	0.000180
531.2725	0.001047
531.4971	-0.001089
531.7217	-0.000751
531.9462	0.000856
532.1708	0.001723
532.3954	0.000370
532.6200	0.000751
532.8447	0.000264
533.0693	0.000645
533.2940	-0.000307
533.5186	-0.000412
533.7433	-0.000983
533.9680	0.000116
534.1927	-0.001152
534.4174	0.000856
534.6421	0.000032
534.8668	-0.000433
535.0916	0.001491
535.3163	-0.000011
535.5411	-0.000518
535.7659	-0.000328
535.9907	-0.000328
536.2155	-0.001173
536.4403	-0.000285
536.6651	-0.000328
536.8899	-0.000095
537.1148	-0.000603
537.3396	-0.000729
537.5645	0.001913
537.7894	-0.001448
538.0143	0.000285
538.2392	0.000137
538.4641	0.001279
538.6890	0.000687
538.9139	-0.000074
539.1389	-0.000899
539.3638	0.002104
539.5888	0.000412
539.8138	0.000180
540.0388	0.000201
540.2638	0.000391
540.4888	-0.000856
540.7138	0.000708
540.9389	-0.000772
541.1639	-0.000772
541.3890	-0.001744
541.6140	0.001681
541.8391	0.001596
542.0642	0.000518
542.2893	0.000603
542.5144	0.001110
542.7396	0.001025
542.9647	0.000666
543.1899	-0.000666
543.4150	-0.000539
543.6402	0.000285
543.8654	-0.000243
544.0906	-0.000433
544.3158	-0.001469
544.5410	0.000751
544.7662	-0.000497
544.9915	0.000159
545.2167	0.001998
545.4420	-0.000772
545.6673	-0.000053
545.8926	-0.000095
546.1179	0.000391
546.3432	-0.000180
546.5685	-0.001998
546.7938	-0.000201
547.0192	-0.000455
547.2445	0.000772
547.4699	0.001195
547.6953	0.001491
547.9206	-0.000032
548.1460	-0.001829
548.3715	-0.000307
548.5969	-0.000687
548.8223	0.002632
549.0478	-0.000391
549.2732	0.000581
549.4987	0.000497
549.7242	-0.000222
549.9496	-0.000814
550.1751	-0.001195
550.4007	0.000370
550.6262	0.000116
550.8517	0.001004
551.0773	-0.000962
551.3028	0.001025
551.5284	0.003520
551.7540	-0.001321
551.9796	-0.000285
552.2052	-0.001237
552.4308	-0.000624
552.6564	-0.001829
552.8820	0.002527
553.1077	-0.001173
553.3333	-0.000264
553.5590	0.001660
553.7847	0.000814
554.0104	0.000412
554.2361	-0.000645
554.4618	-0.001491
554.6875	-0.000624
554.9132	0.000053
555.1390	-0.000053
555.3648	-0.001829
555.5905	0.000476
555.8163	-0.000201
556.0421	-0.000328
556.2679	-0.000708
556.4937	0.000476
556.7195	-0.001639
556.9454	-0.001321
557.1712	-0.000793
557.3971	-0.000095
557.6230	0.000666
557.8488	0.000243
558.0747	-0.000137
558.3006	-0.000729
558.5266	-0.000814
558.7525	0.000793
558.9784	-0.000687
559.2044	0.000074
559.4303	-0.000137
559.6563	0.001025
559.8823	-0.000983
560.1083	-0.000518
560.3343	0.000095
560.5603	0.001427
560.7863	-0.000285
561.0124	-0.000307
561.2384	-0.000751
561.4645	-0.001596
561.6905	-0.000328
561.9166	-0.000201
562.1427	-0.000074
562.3688	-0.000349
562.5949	0.000624
562.8211	0.000835
563.0472	0.000349
563.2733	0.000729
563.4995	-0.001258
563.7257	-0.000412
563.9519	-0.000116
564.1781	0.000497
564.4043	-0.000476
564.6305	0.000624
564.8567	-0.001195
565.0829	-0.000476
565.3092	-0.001110
565.5355	-0.000391
565.7617	-0.000180
565.9880	0.001089
566.2143	0.000095
566.4406	0.001512
566.6669	-0.000835
566.8932	0.000666
567.1196	-0.000941
567.3459	0.003541
567.5723	0.000497
567.7987	-0.000666
568.0250	0.000370
568.2514	-0.001491
568.4778	-0.001258
568.7043	0.001110
568.9307	-0.001321
569.1571	0.002336
569.3836	-0.000687
569.6100	-0.001554
569.8365	-0.000877
570.0630	-0.000095
570.2895	-0.000285
570.5160	-0.001660
570.7425	-0.001321
570.9690	0.000518
571.1956	-0.001110
571.4221	0.000835
571.6487	-0.000962
571.8752	0.000708
572.1018	-0.001237
572.3284	0.000159
572.5550	-0.000243
572.7816	0.000793
573.0082	0.000137
573.2349	0.000349
573.4615	-0.001744
573.6882	-0.000180
573.9149	0.000877
574.1415	-0.000856
574.3682	-0.000116
574.5949	0.002040
574.8216	-0.000687
575.0484	-0.000941
575.2751	0.000159
575.5018	0.001131
575.7286	-0.001385
575.9554	-0.000285
576.1821	0.000941
576.4089	0.000518
576.6357	0.000349
576.8626	0.000137
577.0894	-0.000053
577.3162	-0.000264
577.5431	-0.000793
577.7699	-0.000264
577.9968	0.001913
578.2237	-0.001131
578.4505	0.001681
578.6774	0.001258
578.9044	-0.001512
579.1313	0.000243
579.3582	-0.001195
579.5851	-0.000941
579.8121	0.000729
580.0391	-0.001406
580.2660	-0.000666
580.4930	-0.000201
580.7200	-0.000814
580.9470	-0.000899
581.1741	0.000920
581.4011	0.000856
581.6281	-0.000560
581.8552	-0.001089
582.0822	-0.000349
582.3093	0.000433
582.5364	0.001089
582.7635	-0.000920
582.9906	0.000581
583.2177	0.001343
583.4449	-0.001025
583.6720	0.001681
583.8991	0.000116
584.1263	-0.001068
584.3535	0.001089
584.5807	-0.001110
584.8079	0.000962
585.0351	-0.000539
585.2623	0.000856
585.4895	-0.001491
585.7167	0.001596
585.9440	-0.000962
586.1713	-0.000180
586.3985	-0.000899
586.6258	0.001004
586.8531	0.000370
587.0804	0.000835
587.3077	0.000116
587.5350	-0.000560
587.7624	0.000497
587.9897	-0.000476
588.2171	-0.000581
588.4445	0.001956
588.6718	-0.001131
588.8992	0.000962
589.1266	-0.000687
589.3540	-0.000666
589.5815	0.000560
589.8089	0.000201
590.0363	-0.000476
590.2638	0.000603
590.4913	-0.000137
590.7187	0.000011
590.9462	-0.000243
591.1737	0.000899
591.4012	-0.000433
591.6288	-0.000053
591.8563	-0.001406
592.0838	-0.000349
592.3114	0.000116
592.5389	0.001110
592.7665	-0.001321
592.9941	-0.000624
593.2217	-0.000581
593.4493	0.000856
593.6769	-0.000412
593.9046	0.001850
594.1322	-0.002400
594.3598	-0.000370
594.5875	-0.000581
594.8152	-0.000370
595.0429	0.001512
595.2705	0.000011
595.4983	0.000222
595.7260	-0.000476
595.9537	-0.000729
596.1814	0.001237
596.4092	-0.001279
596.6369	-0.001491
596.8647	-0.002188
597.0925	-0.000074
597.3203	-0.001448
597.5481	0.000180
597.7759	-0.000011
598.0037	0.001448
598.2315	-0.000180
598.4594	-0.000476
598.6872	-0.000370
598.9151	0.000074
599.1430	-0.000285
599.3709	0.001364
599.5988	0.000264
599.8267	0.000624
600.0546	-0.000349
600.2825	0.000412
600.5105	-0.000476
600.7384	-0.000518
600.9664	-0.000877
601.1944	0.000053
601.4223	0.000899
601.6503	0.001152
601.8783	0.000518
602.1064	-0.001004
602.3344	-0.000011
602.5624	-0.000222
602.7905	-0.000433
603.0185	-0.000877
603.2466	-0.001089
603.4747	-0.000666
603.7028	0.000370
603.9309	-0.000285
604.1590	-0.000772
604.3871	-0.000180
604.6152	-0.000011
604.8434	-0.000497
605.0715	-0.001321
605.2997	-0.000074
605.5279	0.001110
605.7561	-0.001343
605.9843	0.001068
606.2125	-0.001321
606.4407	-0.000243
606.6689	0.000095
606.8972	0.001237
607.1254	0.001110
607.3537	0.000116
607.5819	-0.000285
607.8102	-0.001639
608.0385	-0.000962
608.2668	0.001216
608.4951	-0.000011
608.7235	-0.000159
608.9518	0.000962
609.1801	0.000624
609.4085	-0.000433
609.6369	-0.000095
609.8653	0.000095
610.0936	-0.001068
610.3220	-0.000116
610.5505	-0.000899
610.7789	0.000603
611.0073	-0.000497
611.2357	0.000180
611.4642	-0.001258
611.6927	-0.000729
611.9211	0.000116
612.1496	0.000222
612.3781	-0.001681
612.6066	-0.001364
612.8351	0.000856
613.0637	0.000899
613.2922	0.000201
613.5208	0.001343
613.7493	-0.000074
613.9779	0.001300
614.2065	0.000941
614.4351	-0.001195
614.6637	0.000433
614.8923	0.002209
615.1209	-0.000476
615.3495	0.001343
615.5782	0.000328
615.8068	-0.000391
616.0355	0.000116
616.2642	0.001195
616.4929	-0.000137
616.7216	0.001152
616.9503	0.000581
617.1790	0.000116
617.4077	-0.001596
617.6365	0.000370
617.8652	-0.001427
618.0940	0.000814
618.3227	0.000962
618.5515	0.000497
618.7803	-0.001300
619.0091	0.000603
619.2379	0.000053
619.4667	0.000412
619.6956	-0.000624
619.9244	-0.000074
620.1533	0.001279
620.3821	-0.001004
620.6110	-0.001047
620.8399	0.000328
621.0688	0.000433
621.2977	0.000624
621.5266	0.000687
621.7556	-0.000708
621.9845	-0.001089
622.2135	0.001110
622.4424	0.000560
622.6714	-0.001406
622.9004	-0.000476
623.1294	0.001723
623.3584	-0.000264
623.5874	-0.000285
623.8164	0.000391
624.0454	0.000180
624.2745	-0.000159
624.5035	-0.000835
624.7326	-0.001406
624.9617	0.000053
625.1908	-0.001004
625.4199	-0.000349
625.6490	0.000264
625.8781	0.001596
626.1072	-0.001321
626.3364	-0.000729
626.5655	-0.000518
626.7947	-0.000412
627.0238	-0.000835
627.2530	0.000285
627.4822	-0.001681
627.7114	-0.000772
627.9406	-0.000370
628.1698	0.001173
628.3991	0.000455
628.6283	-0.000877
628.8576	-0.000328
629.0868	0.001195
629.3161	-0.000476
629.5454	0.000624
629.7747	0.001427
630.0040	-0.000222
630.2333	0.001195
630.4626	0.000011
630.6920	-0.000349
630.9213	0.000307
631.1507	-0.000962
631.3801	0.001110
631.6094	0.000349
631.8388	0.002527
632.0682	-0.000624
632.2976	0.001195
632.5271	-0.001702
632.7565	-0.000814
632.9859	-0.001047
633.2154	-0.000518
633.4448	-0.002231
633.6743	0.003816
633.9038	0.000539
634.1333	0.000455
634.3628	-0.000328
634.5923	-0.000518
634.8218	-0.000581
635.0514	-0.000116
635.2809	0.001787
635.5105	0.000920
635.7400	-0.001343
635.9696	-0.000941
636.1992	0.000645
636.4288	0.000433
636.6584	0.002442
636.8880	-0.000159
637.1177	0.002590
637.3473	0.001068
637.5770	0.001617
637.8066	-0.000560
638.0363	-0.000243
638.2660	0.001258
638.4957	0.000011
638.7254	-0.000095
638.9551	0.000412
639.1848	0.000391
639.4145	-0.000053
639.6443	0.000074
639.8740	0.001886
640.1038	-0.000159
640.3336	0.000355
640.5633	0.000245
640.7931	-0.000117
641.0229	-0.000494
641.2528	0.001387
641.4826	-0.000202
641.7124	-0.000692
641.9423	-0.000053
642.1721	0.001354
642.4020	-0.000628
642.6319	-0.000011
642.8617	0.000095
643.0916	-0.001361
643.3216	0.000443
643.5515	0.000657
643.7814	-0.000515
644.0113	-0.000198
644.2413	-0.000490
644.4712	-0.000324
644.7012	0.000704
644.9312	0.000011
645.1612	-0.000371
645.3912	-0.000594
645.6212	-0.000969
645.8512	0.002600
646.0812	-0.000190
646.3113	0.000636
646.5413	-0.000788
646.7714	0.000901
647.0015	-0.000234
647.2316	-0.001253
647.4616	-0.000345
647.6918	0.000791
647.9219	0.000476
648.1520	0.000847
648.3821	-0.000450
648.6123	0.000760
648.8424	0.000578
649.0726	0.001156
649.3028	-0.000054
649.5329	-0.002390
649.7631	-0.000651
649.9933	-0.000692
650.2236	-0.000769
650.4538	0.000726
650.6840	0.000201
650.9143	0.001266
651.1445	0.000075
651.3748	-0.000929
651.6051	-0.000414
651.8354	0.000394
652.0657	0.002032
652.2960	0.000053
652.5263	-0.001895
652.7566	-0.000567
652.9870	-0.000993
653.2173	0.000644
653.4477	-0.001842
653.6780	-0.000612
653.9084	0.001095
654.1388	0.001036
654.3692	0.000414
654.5996	-0.001807
654.8300	0.001572
655.0605	0.001506
655.2909	0.000955
655.5213	0.000248
655.7518	0.000032
655.9823	0.001318
656.2128	-0.000669
656.4433	0.002629
656.6738	-0.000797
656.9043	-0.000546
657.1348	0.000095
657.3653	0.000011
657.5959	-0.000607
657.8264	0.000645
658.0570	-0.001065
658.2875	0.001875
658.5181	-0.000474
658.7487	-0.000011
658.9793	-0.000751
659.2099	-0.000841
659.4406	-0.000714
659.6712	0.000461
659.9018	-0.000265
660.1325	0.001053
660.3632	-0.000638
660.5938	-0.000644
660.8245	0.002366
661.0552	-0.000941
661.2859	0.000456
661.5166	-0.000306
661.7474	0.000074
661.9781	0.000286
662.2088	-0.000435
662.4396	0.001036
662.6704	-0.000904
662.9011	0.001305
663.1319	-0.001276
663.3627	-0.000158
663.5935	0.000136
663.8243	0.001459
664.0552	-0.002468
664.2860	0.000177
664.5168	0.001785
664.7477	-0.000788
664.9786	0.000920
665.2094	0.000053
665.4403	-0.001577
665.6712	-0.001500
665.9021	0.000783
666.1330	0.001967
666.3640	-0.000158
666.5949	-0.000159
666.8259	-0.000622
667.0568	0.001241
667.2878	-0.001166
667.5188	0.001046
667.7497	0.000074
667.9807	-0.000332
668.2117	0.001143
668.4428	-0.001195
668.6738	-0.000835
668.9048	-0.000941
669.1359	0.000201
669.3669	-0.000159
669.5980	-0.001216
669.8291	-0.001427
670.0602	0.000243
670.2913	0.000560
670.5224	-0.000095
670.7535	0.001871
670.9846	-0.000116
671.2157	0.000412
671.4469	-0.001300
671.6781	0.001258
671.9092	-0.000476
672.1404	-0.000899
672.3716	0.000201
672.6028	0.001110
672.8340	-0.002844
673.0652	0.000708
673.2964	-0.000835
673.5277	-0.001195
673.7589	-0.000201
673.9902	-0.000772
674.2214	0.000941
674.4527	-0.001406
674.6840	0.000159
674.9153	-0.001956
675.1466	-0.001808
675.3779	-0.000455
675.6093	0.000983
675.8406	0.002463
676.0719	-0.000116
676.3033	0.000328
676.5347	-0.000328
676.7661	-0.000920
676.9974	-0.000053
677.2288	-0.000687
677.4602	-0.000053
677.6917	0.001279
677.9231	0.000116
678.1545	0.003605
678.3860	-0.001533
678.6174	-0.001617
678.8489	-0.000222
679.0804	0.000941
679.3119	-0.000391
679.5434	-0.000962
679.7749	-0.001596
680.0064	0.000137
680.2379	-0.000666
680.4694	-0.000497
680.7010	-0.001047
680.9325	-0.000370
681.1641	0.000729
681.3957	0.000285
681.6273	-0.000983
681.8589	0.001195
682.0905	-0.000687
682.3221	0.000201
682.5537	-0.000455
682.7854	-0.000370
683.0170	-0.000856
683.2487	-0.000708
683.4803	0.000307
683.7120	-0.000539
683.9437	-0.001639
684.1754	0.001533
684.4071	-0.000962
684.6388	-0.000137
684.8705	-0.002336
685.1023	-0.000518
685.3340	-0.000349
685.5658	0.000349
685.7975	-0.000920
686.0293	0.000180
686.2611	-0.000899
686.4929	0.000708
686.7247	-0.000603
686.9565	-0.001681
687.1883	-0.000476
687.4202	-0.000285
687.6520	0.001195
687.8838	-0.000518
688.1157	-0.001195
688.3476	-0.000603
688.5795	0.000222
688.8114	-0.000560
689.0433	-0.000095
689.2752	0.000603
689.5071	0.000476
689.7390	-0.000518
689.9710	0.000856
690.2029	-0.000137
690.4349	-0.001850
690.6669	0.000180
690.8988	0.000032
691.1308	0.002040
691.3628	0.000222
691.5948	0.000074
691.8269	0.000285
692.0589	0.000983
692.2909	-0.000687
692.5230	0.000201
692.7550	0.000116
692.9871	-0.001152
693.2192	0.001279
693.4513	-0.001216
693.6834	0.001047
693.9155	-0.000053
694.1476	-0.000349
694.3797	0.000201
694.6119	0.000433
694.8440	0.001427
695.0762	-0.002125
695.3083	-0.000476
695.5405	0.000412
695.7727	-0.000264
696.0049	-0.000285
696.2371	-0.001110
696.4693	0.001364
696.7016	-0.001617
696.9338	-0.000899
697.1660	0.000433
697.3983	0.001004
697.6306	-0.000687
697.8628	-0.000433
698.0951	0.000433
698.3274	-0.000349
698.5597	-0.001258
698.7920	0.005698
699.0243	0.001237
699.2567	0.000581
699.4890	-0.000116
699.7214	0.000159
699.9537	0.001491
700.1861	0.002188
700.4185	-0.000095
700.6509	-0.000814
700.8833	0.000920
701.1157	-0.000159
701.3481	-0.001512
701.5806	0.000455
701.8130	-0.000264
702.0454	0.000349
702.2779	-0.001089
702.5104	-0.000328
702.7429	-0.000729
702.9753	0.002104
703.2078	-0.001237
703.4403	0.000581
703.6729	-0.001448
703.9054	0.000285
704.1379	0.000349
704.3705	-0.000201
704.6030	0.000180
704.8356	0.001300
705.0682	-0.000560
705.3008	0.001195
705.5334	-0.001173
705.7660	0.000370
705.9986	0.000497
706.2312	0.000412
706.4638	0.000539
706.6965	0.001406
706.9291	-0.000116
707.1618	0.001300
707.3945	0.000793
707.6272	-0.000074
707.8599	-0.001469
708.0926	0.000264
708.3253	-0.001660
708.5580	-0.000962
708.7907	0.000729
709.0235	0.000624
709.2562	0.000983
709.4890	0.000095
709.7217	-0.001364
709.9545	-0.000603
710.1873	0.000497
710.4201	-0.002146
710.6529	-0.000412
710.8857	0.000624
711.1186	-0.000222
711.3514	-0.000137
711.5842	-0.001152
711.8171	0.000032
712.0500	-0.000180
712.2828	-0.000391
712.5157	0.000011
712.7486	-0.000011
712.9815	0.000708
713.2144	-0.000476
713.4474	-0.000835
713.6803	-0.000349
713.9132	-0.000222
714.1462	0.000624
714.3791	0.000307
714.6121	-0.000349
714.8451	-0.001364
715.0781	-0.001025
715.3111	0.001110
715.5441	0.001004
715.7771	0.000180
716.0102	0.000011
716.2432	-0.001300
716.4762	0.000962
716.7093	-0.001427
716.9424	-0.001258
717.1754	0.000032
717.4085	0.000476
717.6416	-0.001173
717.8747	-0.000264
718.1078	-0.001660
718.3410	-0.001004
718.5741	-0.000328
718.8072	-0.001195
719.0404	0.000011
719.2736	0.001364
719.5067	-0.000222
719.7399	-0.000159
719.9731	-0.000391
720.2063	0.000666
720.4395	-0.000729
720.6727	-0.000053
720.9060	-0.003457
721.1392	-0.001639
721.3725	-0.001195
721.6057	0.001068
721.8390	0.001343
722.0723	0.000835
722.3055	0.000349
722.5388	0.001216
722.7721	-0.000729
723.0055	0.001639
723.2388	-0.001364
723.4721	-0.000772
723.7055	-0.000920
723.9388	0.000962
724.1722	-0.000793
724.4056	0.000307
724.6389	-0.000772
724.8723	-0.001660
725.1057	0.000539
725.3391	-0.000349
725.5726	-0.001343
725.8060	-0.000095
726.0394	-0.000962
726.2729	-0.001025
726.5063	0.000412
726.7398	0.000391
726.9733	-0.000814
727.2068	-0.001089
727.4403	0.000349
727.6738	-0.000433
727.9073	0.000180
728.1408	0.001723
728.3743	0.001596
728.6079	0.000666
728.8414	-0.001871
729.0750	0.001237
729.3086	0.000624
729.5421	-0.000180
729.7757	0.000159
730.0093	-0.000074
730.2429	-0.002104
730.4766	0.000116
730.7102	-0.001469
730.9438	-0.000497
731.1775	0.000603
731.4111	-0.001427
731.6448	0.000137
731.8785	0.000856
732.1122	0.001554
732.3458	-0.000645
732.5795	-0.000856
732.8133	0.001068
733.0470	-0.001892
733.2807	0.002209
733.5145	0.000560
733.7482	-0.001047
733.9820	-0.001681
734.2157	-0.001195
734.4495	0.000581
734.6833	-0.001216
734.9171	0.000666
735.1509	0.000920
735.3847	-0.000687
735.6185	0.000328
735.8524	-0.001089
736.0862	0.000581
736.3201	0.000201
736.5539	0.000349
736.7878	-0.000772
737.0217	-0.000856
737.2556	-0.000011
737.4895	-0.000180
737.7234	-0.001617
737.9573	-0.000412
738.1912	-0.000159
738.4252	-0.000856
738.6591	-0.001512
738.8931	0.001765
739.1271	0.000391
739.3610	0.000581
739.5950	-0.000285
739.8290	-0.000772
740.0630	0.000412
740.2970	-0.000222
740.5310	0.000243
740.7651	0.001935
740.9991	-0.000011
741.2332	0.001533
741.4672	0.000856
741.7013	0.000624
741.9354	-0.000433
742.1695	0.001025
742.4036	-0.000772
742.6377	-0.000877
742.8718	-0.000116
743.1059	0.001216
743.3400	0.000729
743.5742	-0.000095
743.8083	0.000539
744.0425	0.000518
744.2767	-0.000180
744.5108	0.000539
744.7450	-0.000412
744.9792	0.003267
745.2134	-0.000201
745.4477	0.000370
745.6819	0.001469
745.9161	-0.000920
746.1504	0.000624
746.3846	0.001364
746.6189	0.000328
746.8532	0.000180
747.0874	-0.001596
747.3217	-0.000159
747.5560	0.000687
747.7903	0.000666
748.0247	-0.001469
748.2590	0.000560
748.4933	0.001025
748.7277	-0.000285
748.9620	-0.000307
749.1964	-0.000328
749.4308	-0.000412
749.6652	-0.000053
749.8995	-0.001554
750.1339	0.001596
750.3684	-0.000201
750.6028	-0.000180
750.8372	-0.000476
751.0717	0.000328
751.3061	-0.000962
751.5406	0.000349
751.7750	-0.000116
752.0095	0.002527
752.2440	-0.000772
752.4785	-0.000518
752.7130	-0.000603
752.9475	-0.001617
753.1820	0.000328
753.4166	0.000349
753.6511	-0.000433
753.8856	0.001004
754.1202	-0.000433
754.3548	0.000603
754.5894	0.001110
754.8239	-0.000603
755.0585	0.000201
755.2931	-0.000328
755.5278	0.000222
755.7624	-0.000180
755.9970	-0.000772
756.2317	-0.000941
756.4663	-0.001237
756.7010	-0.000983
756.9356	0.000159
757.1703	-0.000941
757.4050	-0.000180
757.6397	0.000687
757.8744	0.000349
758.1091	-0.000687
758.3438	-0.000645
758.5786	0.000687
758.8133	-0.001110
759.0481	0.001977
759.2828	-0.001110
759.5176	-0.000772
759.7524	-0.000856
759.9872	-0.002273
760.2220	0.000116
760.4568	-0.000856
760.6916	0.000201
760.9264	0.000772
761.1613	0.000074
761.3961	0.000328
761.6310	0.000053
761.8658	0.000433
762.1007	0.001173
762.3356	0.001068
762.5705	-0.000497
762.8054	-0.000687
763.0403	0.000581
763.2752	0.000941
763.5101	-0.000476
763.7450	0.000370
763.9800	-0.001110
764.2149	-0.000264
764.4499	0.000539
764.6849	-0.000011
764.9198	0.001152
765.1548	0.000497
765.3898	-0.001216
765.6248	-0.000011
765.8599	-0.001237
766.0949	-0.001237
766.3299	-0.001554
766.5650	-0.000476
766.8000	-0.001258
767.0351	-0.001448
767.2701	-0.000476
767.5052	-0.000264
767.7403	0.000032
767.9754	0.000285
768.2105	0.000983
768.4456	0.000539
768.6808	0.001491
768.9159	-0.001152
769.1510	-0.000053
769.3862	0.001575
769.6214	-0.000032
769.8565	0.000624
770.0917	-0.001237
770.3269	0.000328
770.5621	-0.001617
770.7973	0.001004
771.0325	0.000307
771.2677	-0.000264
771.5030	-0.001660
771.7382	-0.001131
771.9735	-0.000032
772.2087	-0.000729
772.4440	-0.000053
772.6793	-0.000243
772.9146	0.000603
773.1499	0.000497
773.3852	-0.001554
773.6205	-0.001385
773.8558	0.001089
774.0911	0.000624
774.3265	0.000285
774.5618	0.000751
774.7972	-0.000624
775.0326	0.000899
775.2679	0.001956
775.5033	0.000201
775.7387	0.000412
775.9741	-0.001004
776.2095	0.000983
776.4450	0.000941
776.6804	0.000349
776.9158	-0.001385
777.1513	0.000624
777.3868	-0.000751
777.6222	0.000412
777.8577	-0.000455
778.0932	-0.000920
778.3287	-0.000539
778.5642	0.000412
778.7997	-0.001787
779.0352	-0.001258
779.2707	0.000328
779.5063	-0.000011
779.7418	-0.000856
779.9774	0.000687
780.2130	0.000011
780.4485	0.000941
780.6841	-0.001004
780.9197	0.001491
781.1553	0.001173
781.3909	0.001343
781.6265	-0.000624
781.8622	0.000137
782.0978	-0.000856
782.3335	-0.000941
782.5691	-0.001427
782.8048	0.000180
783.0405	-0.001195
783.2761	-0.000349
783.5118	0.000116
783.7475	-0.000497
783.9832	0.001343
784.2190	0.001131
784.4547	-0.000053
784.6904	-0.000053
784.9262	-0.000264
785.1619	-0.000159
785.3977	0.001237
785.6335	0.000201
785.8692	-0.001364
786.1050	0.000032
786.3408	-0.000772
786.5766	0.001575
786.8124	0.001025
787.0483	-0.000729
787.2841	-0.001343
787.5199	0.000243
787.7558	0.001364
787.9917	0.000180
788.2275	-0.000793
788.4634	0.000455
788.6993	-0.002548
788.9352	-0.000243
789.1711	-0.000708
789.4070	0.000814
789.6429	0.001808
789.8789	0.000624
790.1148	-0.001131
790.3507	-0.000159
790.5867	0.000011
790.8227	-0.000222
791.0586	-0.001237
791.2946	0.000751
791.5306	0.000116
791.7666	-0.000433
792.0026	0.001364
792.2387	0.000666
792.4747	-0.000222
792.7107	-0.000222
792.9468	0.000624
793.1828	-0.000011
793.4189	-0.000560
793.6550	0.001554
793.8910	-0.000433
794.1271	0.000920
794.3632	0.000941
794.5993	-0.000307
794.8355	-0.000793
795.0716	0.000455
795.3077	0.001850
795.5439	-0.000877
795.7800	0.000285
796.0162	-0.000539
796.2523	-0.001406
796.4885	-0.000011
796.7247	0.000476
796.9609	0.001089
797.1971	0.001089
797.4333	0.001469
797.6695	0.000011
797.9058	0.000053
798.1420	-0.001004
798.3783	-0.000983
798.6145	0.000222
798.8508	0.000116
799.0871	0.001152
799.3233	-0.000433
799.5596	0.000433
799.7959	0.000159
800.0322	-0.000603
800.2686	0.001321
800.5049	0.000412
800.7412	0.000349
800.9776	0.000497
801.2139	0.000074
801.4503	-0.000666
801.6867	-0.000011
801.9230	-0.000412
802.1594	0.000264
802.3958	-0.002019
802.6322	-0.001702
802.8686	-0.000603
803.1051	0.000581
803.3415	0.000581
803.5779	-0.000497
803.8144	-0.000666
804.0508	-0.000729
804.2873	0.001343
804.5238	-0.000137
804.7603	-0.000983
804.9968	0.001047
805.2333	-0.000835
805.4698	0.000539
805.7063	-0.000835
805.9428	0.001469
806.1794	0.000180
806.4159	-0.000708
806.6525	0.000497
806.8890	0.000391
807.1256	0.000581
807.3622	-0.000053
807.5988	0.001004
807.8354	0.000455
808.0720	-0.000793
808.3086	0.000666
808.5452	-0.000476
808.7818	0.000624
809.0185	0.001279
809.2551	0.000645
809.4918	-0.001089
809.7284	0.001765
809.9651	0.000624
810.2018	0.000877
810.4385	-0.000751
810.6752	-0.000285
810.9119	-0.001343
811.1486	0.001427
811.3853	-0.000264
811.6221	-0.000962
811.8588	-0.001068
812.0956	0.000285
812.3323	0.000391
812.5691	-0.000011
812.8059	-0.000624
813.0427	0.000793
813.2795	0.000180
813.5163	-0.000116
813.7531	-0.000899
813.9899	-0.000581
814.2267	0.000962
814.4636	0.001004
814.7004	-0.001343
814.9373	0.000074
815.1742	0.000201
815.4110	0.000116
815.6479	-0.001300
815.8848	-0.000412
816.1217	0.000053
816.3586	0.001364
816.5955	0.000455
816.8324	0.000137
817.0694	-0.000349
817.3063	0.000603
817.5433	0.000032
817.7802	0.001216
818.0172	-0.000074
818.2542	0.000349
818.4912	-0.000412
818.7282	-0.001279
818.9652	0.000328
819.2022	0.000772
819.4392	0.001300
819.6762	-0.001364
819.9133	-0.000349
820.1503	0.000116
820.3874	0.000285
820.6244	-0.000095
820.8615	0.000032
821.0986	-0.002379
821.3357	-0.000899
821.5727	0.000645
821.8099	-0.000772
822.0470	-0.000074
822.2841	-0.001216
822.5212	0.000899
822.7584	-0.000349
822.9955	-0.000518
823.2327	-0.000243
823.4698	-0.000349
823.7070	0.000539
823.9442	-0.000666
824.1814	-0.000539
824.4186	-0.000941
824.6558	-0.000581
824.8930	-0.000433
825.1302	-0.000264
825.3675	0.001237
825.6047	0.000793
825.8419	0.000941
826.0792	-0.000983
826.3165	0.000349
826.5537	0.000793
826.7910	-0.001448
827.0283	0.000433
827.2656	-0.000751
827.5029	-0.000687
827.7402	0.001258
827.9776	0.001448
828.2149	-0.000497
828.4522	0.001321
828.6896	0.000053
828.9270	0.001152
829.1643	0.000433
829.4017	0.000370
829.6391	-0.000011
829.8765	0.000877
830.1139	-0.000074
830.3513	0.000476
830.5887	-0.000307
830.8261	0.002040
831.0636	-0.001681
831.3010	-0.000856
831.5385	-0.001089
831.7759	0.000433
832.0134	-0.000137
832.2509	-0.000391
832.4884	-0.000497
832.7259	-0.001279
832.9634	-0.000285
833.2009	-0.000159
833.4384	0.000159
833.6759	0.000856
833.9135	0.000751
834.1510	0.000074
834.3886	-0.000011
834.6261	-0.001047
834.8637	0.000011
835.1013	0.000180
835.3389	-0.000624
835.5765	-0.000729
835.8141	-0.002019
836.0517	0.001554
836.2893	-0.000222
836.5269	-0.000793
836.7646	0.000285
837.0022	0.001258
837.2399	0.001025
837.4775	-0.001406
837.7152	0.001343
837.9529	0.002400
838.1906	-0.000053
838.4283	0.002083
838.6660	-0.001258
838.9037	-0.000032
839.1414	-0.002442
839.3791	-0.000201
839.6169	-0.000307
839.8546	0.000497
840.0924	-0.001364
840.3302	0.001047
840.5679	-0.001237
840.8057	0.000307
841.0435	-0.001068
841.2813	0.001110
841.5191	-0.000116
841.7569	-0.000180
841.9947	-0.000201
842.2326	-0.000328
842.4704	0.000180
842.7082	-0.000243
842.9461	0.000751
843.1840	-0.000560
843.4218	-0.000032
843.6597	-0.000011
843.8976	0.000455
844.1355	-0.000074
844.3734	-0.000074
844.6113	0.000180
844.8492	-0.000539
845.0872	-0.000412
845.3251	0.000285
845.5631	0.000539
845.8010	0.000412
846.0390	0.000835
846.2770	-0.000264
846.5149	0.000433
846.7529	0.000497
846.9909	0.001469
847.2289	-0.000243
847.4669	0.000497
847.7050	0.000856
847.9430	-0.000159
848.1810	-0.000899
848.4191	-0.000349
848.6571	0.000137
848.8952	0.000433
849.1333	-0.001004
849.3713	0.001596
849.6094	-0.000412
849.8475	0.001469
850.0856	-0.001385
850.3237	0.001913
850.5619	-0.001448
850.8000	0.001258
851.0381	-0.000370
851.2763	-0.000497
851.5144	-0.001491
851.7526	-0.000941
851.9908	-0.001787
852.2289	-0.001491
852.4671	-0.000032
852.7053	-0.001089
852.9435	0.000476
853.1817	0.000856
853.4200	0.000053
853.6582	0.000666
853.8964	0.001448
854.1347	-0.000835
854.3729	-0.000349
854.6112	-0.000920
854.8495	-0.000011
855.0877	0.000222
855.3260	-0.000476
855.5643	-0.000899
855.8026	-0.002717
856.0409	0.000772
856.2792	-0.000349
856.5176	0.000666
856.7559	-0.000180
856.9942	0.000539
857.2326	-0.000159
857.4710	-0.000285
857.7093	0.000645
857.9477	0.000180
858.1861	-0.000095
858.4245	0.000243
858.6629	0.001406
858.9013	0.000095
859.1397	-0.000772
859.3781	-0.000455
859.6166	-0.001448
859.8550	0.000349
860.0935	-0.000264
860.3319	0.000645
860.5704	-0.000307
860.8089	0.001152
861.0473	0.000243
861.2858	-0.000201
861.5243	0.000560
861.7628	0.000285
862.0013	0.000307
862.2399	-0.000983
862.4784	-0.000581
862.7169	0.000391
862.9555	0.002357
863.1940	-0.000983
863.4326	-0.000011
863.6712	-0.000962
863.9098	-0.001195
864.1483	-0.000053
864.3869	0.001364
864.6255	-0.000793
864.8642	0.000159
865.1028	-0.000899
865.3414	-0.000476
865.5800	0.001004
865.8187	-0.000307
866.0573	0.000433
866.2960	-0.000285
866.5347	-0.000603
866.7733	-0.001089
867.0120	0.000328
867.2507	-0.000539
867.4894	-0.000645
867.7281	0.000201
867.9669	0.000539
868.2056	-0.000603
868.4443	0.000074
868.6831	-0.000645
868.9218	0.000476
869.1606	0.000159
869.3993	-0.000856
869.6381	-0.001004
869.8769	0.001173
870.1157	-0.000729
870.3545	0.001723
870.5933	0.000983
870.8321	0.000032
871.0709	-0.000391
871.3097	0.001068
871.5486	-0.000793
871.7874	0.000011
872.0263	0.000539
872.2651	-0.000645
872.5040	-0.000264
872.7429	0.000497
872.9818	0.000497
873.2207	0.001279
873.4596	-0.000349
873.6985	-0.000201
873.9374	-0.000856
874.1763	0.000433
874.4153	0.001364
874.6542	-0.000539
874.8932	-0.000476
875.1321	-0.000011
875.3711	-0.000645
875.6101	-0.000793
875.8491	0.000729
876.0880	0.001850
876.3270	-0.000920
876.5661	-0.000412
876.8051	-0.001448
877.0441	-0.000581
877.2831	0.000941
877.5222	-0.000201
877.7612	0.001808
878.0003	0.000433
878.2393	0.000455
878.4784	-0.000835
878.7175	0.000603
878.9566	-0.000264
879.1957	0.001723
879.4348	0.000285
879.6739	-0.000095
879.9130	-0.000180
880.1521	-0.000032
880.3913	0.000032
880.6304	-0.000476
880.8696	-0.000751
881.1087	0.000877
881.3479	0.000814
881.5871	0.000497
881.8262	-0.001596
882.0654	0.000074
882.3046	-0.000497
882.5438	0.000201
882.7831	-0.000708
883.0223	0.001237
883.2615	0.000032
883.5007	0.000497
883.7400	-0.000222
883.9792	0.000581
884.2185	-0.001533
884.4578	-0.000666
884.6971	-0.000095
884.9363	0.001935
885.1756	-0.000814
885.4149	-0.000053
885.6542	-0.001829
885.8936	0.000137
886.1329	0.000116
886.3722	0.000433
886.6116	-0.001427
886.8509	0.000920
887.0903	0.000412
887.3296	-0.000328
887.5690	-0.001533
887.8084	0.000455
888.0478	-0.000645
888.2872	0.000433
888.5266	-0.001575
888.7660	0.001512
889.0054	-0.000518
889.2448	-0.000899
889.4843	-0.000687
889.7237	-0.000412
889.9632	-0.000560
890.2026	0.000412
890.4421	-0.000603
890.6816	-0.000856
890.9211	0.000793
891.1606	-0.000159
891.4001	0.001406
891.6396	0.000053
891.8791	0.000264
892.1186	0.000962
892.3581	-0.000518
892.5977	0.000180
892.8372	0.000856
893.0768	0.000856
893.3163	0.002019
893.5559	-0.001152
893.7955	0.001047
894.0351	0.000729
894.2747	0.001237
894.5143	-0.000793
894.7539	-0.001237
894.9935	0.000264
895.2331	-0.000391
895.4727	-0.000941
895.7124	-0.002463
895.9520	0.001068
896.1917	-0.000370
896.4314	-0.000560
896.6710	-0.000518
896.9107	0.001089
897.1504	0.000349
897.3901	0.000455
897.6298	0.000116
897.8695	0.000856
898.1092	0.000666
898.3489	-0.000687
898.5887	0.000772
898.8284	0.002611
899.0682	-0.000412
899.3079	-0.000243
899.5477	0.000032
899.7875	-0.000285
900.0272	0.000116
900.2670	0.000751
900.5068	-0.000011
900.7466	0.001406
900.9864	-0.000328
901.2263	0.000370
901.4661	-0.000307
901.7059	0.000032
901.9458	-0.000476
902.1856	0.001047
902.4255	-0.001385
902.6654	-0.000349
902.9052	0.000307
903.1451	-0.001554
903.3850	0.000222
903.6249	0.000455
903.8648	-0.001364
904.1047	0.000983
904.3446	0.000095
904.5846	0.000349
904.8245	-0.000687
905.0644	-0.000433
905.3044	-0.001596
905.5444	0.000095
905.7843	-0.002040
906.0243	0.000201
906.2643	-0.000180
906.5043	-0.000095
906.7443	-0.002696
906.9843	0.001512
907.2243	0.000264
907.4643	0.000053
907.7043	-0.000285
907.9444	0.000349
908.1844	0.000328
908.4245	0.001512
908.6645	-0.000581
908.9046	-0.000814
909.1447	-0.000983
909.3847	0.001808
909.6248	0.000687
909.8649	0.000032
910.1050	0.000201
910.3452	-0.000011
910.5853	-0.000095
910.8254	0.000941
911.0655	-0.000412
911.3057	0.000391
911.5458	-0.000518
911.7860	0.000666
912.0262	0.000011
912.2663	0.000243
912.5065	-0.000539
912.7467	0.001385
912.9869	-0.000349
913.2271	0.000941
913.4673	0.000011
913.7075	0.001448
913.9478	-0.000687
914.1880	-0.000095
914.4283	-0.001300
914.6685	0.000349
914.9088	-0.000666
915.1490	-0.000433
915.3893	0.002675
915.6296	-0.001512
915.8699	-0.000560
916.1102	0.000666
916.3505	-0.001004
916.5908	0.000899
916.8311	-0.000307
917.0714	-0.000053
917.3118	-0.000560
917.5521	-0.001195
917.7925	0.000243
918.0328	0.000518
918.2732	0.000962
918.5136	0.000243
918.7539	-0.000180
918.9943	0.000920
919.2347	0.001025
919.4751	-0.000201
919.7155	-0.000243
919.9560	-0.000011
920.1964	-0.000370
920.4368	0.001300
920.6773	-0.000222
920.9177	-0.000856
921.1582	-0.001512
921.3986	-0.000328
921.6391	-0.000285
921.8796	-0.000729
922.1201	-0.001004
922.3606	0.001512
922.6011	-0.000899
922.8416	-0.001131
923.0821	0.000137
923.3226	-0.000666
923.5631	-0.001173
923.8037	-0.000307
924.0442	-0.001469
924.2848	-0.000074
924.5254	0.000032
924.7659	0.001744
925.0065	-0.001258
925.2471	-0.001173
925.4877	0.001321
925.7283	-0.000581
925.9689	0.001935
926.2095	-0.001025
926.4501	-0.001089
926.6908	-0.000835
926.9314	-0.000772
927.1720	-0.000159
927.4127	0.000539
927.6533	0.000539
927.8940	-0.000307
928.1347	-0.000285
928.3754	-0.000053
928.6161	-0.000518
928.8568	-0.000011
929.0975	0.002696
929.3382	-0.000814
929.5789	0.000011
929.8196	-0.000455
930.0604	-0.000180
930.3011	-0.000074
930.5419	0.000539
930.7826	0.000518
931.0234	0.001300
931.2642	-0.001469
931.5049	0.002379
931.7457	0.001258
931.9865	-0.002400
932.2273	-0.000201
932.4681	-0.000814
932.7089	0.000285
932.9498	-0.001004
933.1906	-0.000433
933.4314	0.000264
933.6723	-0.000814
933.9131	-0.000222
934.1540	0.001068
934.3949	0.000751
934.6358	0.000116
934.8766	-0.000285
935.1175	-0.001554
935.3584	-0.000370
935.5993	-0.000328
935.8403	-0.000433
936.0812	0.001131
936.3221	-0.000095
936.5630	-0.000412
936.8040	0.000433
937.0449	-0.000518
937.2859	0.001047
937.5269	-0.000391
937.7678	0.000983
938.0088	-0.000243
938.2498	0.000814
938.4908	0.000751
938.7318	0.000011
938.9728	-0.000180
939.2138	0.000053
939.4549	-0.000603
939.6959	-0.001617
939.9369	0.001068
940.1780	-0.001617
940.4190	-0.002505
940.6601	-0.001258
940.9012	-0.000137
941.1422	0.000201
941.3833	0.000645
941.6244	0.001131
941.8655	-0.000518
942.1066	0.000687
942.3477	0.001237
942.5889	0.000899
942.8300	0.000391
943.0711	0.000856
943.3123	-0.000729
943.5534	0.000835
943.7946	-0.000751
944.0357	-0.000687
944.2769	0.000328
944.5181	-0.000412
944.7593	-0.001512
945.0005	-0.000539
945.2417	-0.001829
945.4829	-0.000201
945.7241	0.001765
945.9653	0.000137
946.2066	-0.000011
946.4478	-0.001025
946.6891	0.001554
946.9303	0.000497
947.1716	0.000687
947.4128	0.000074
947.6541	-0.000074
947.8954	0.001152
948.1367	-0.001279
948.3780	0.001829
948.6193	-0.002083
948.8606	0.000285
949.1019	0.000476
949.3433	0.000941
949.5846	-0.000497
949.8259	-0.000349
950.0673	0.000751
950.3086	-0.000899
950.5500	0.000814
950.7914	0.001639
951.0327	-0.000433
951.2741	0.000307
951.5155	0.000856
951.7569	-0.000920
951.9983	-0.000476
952.2398	0.000053
952.4812	-0.001491
952.7226	-0.000793
952.9640	0.000116
953.2055	0.000687
953.4469	0.000201
953.6884	-0.001089
953.9299	0.002167
954.1713	-0.001152
954.4128	0.001152
954.6543	-0.002336
954.8958	-0.000137
955.1373	-0.001004
955.3788	-0.000328
955.6203	-0.000856
955.8618	-0.000518
956.1034	-0.000751
956.3449	0.002125
956.5865	0.001533
956.8280	0.000455
957.0696	-0.001004
957.3111	0.001427
957.5527	0.000560
957.7943	-0.001300
958.0359	0.000793
958.2775	0.001723
958.5191	0.001131
958.7607	-0.000159
959.0023	0.000624
959.2439	0.001004
959.4856	-0.001913
959.7272	-0.001364
959.9688	-0.001152
960.2105	-0.000053
960.4522	0.000560
960.6938	-0.000116
960.9355	0.000497
961.1772	-0.000349
961.4189	0.000307
961.6606	-0.000581
961.9023	-0.000476
962.1440	0.000624
962.3857	0.000412
962.6274	-0.000624
962.8692	0.001364
963.1109	-0.000856
963.3527	-0.000137
963.5944	0.000243
963.8362	-0.000772
964.0779	0.000074
964.3197	-0.000856
964.5615	0.001068
964.8033	-0.002548
965.0451	0.000455
965.2869	0.000962
965.5287	-0.000349
965.7705	-0.001152
966.0123	0.001512
966.2542	-0.000032
966.4960	-0.000814
966.7379	-0.000116
966.9797	0.001512
967.2216	0.000433
967.4634	-0.000645
967.7053	0.000032
967.9472	0.001364
968.1891	-0.000264
968.4310	-0.000793
968.6729	-0.000899
968.9148	-0.000666
969.1567	-0.000370
969.3987	0.000603
969.6406	-0.001448
969.8825	-0.000539
970.1245	-0.000793
970.3664	-0.000687
970.6084	0.000328
970.8504	0.000687
971.0923	-0.000941
971.3343	0.001216
971.5763	0.001131
971.8183	-0.000433
972.0603	-0.000560
972.3023	-0.000074
972.5443	-0.000983
972.7864	-0.000349
973.0284	0.000328
973.2704	0.001596
973.5125	0.001744
973.7545	-0.000476
973.9966	0.000497
974.2387	0.000497
974.4807	-0.001279
974.7228	-0.001047
974.9649	-0.000222
975.2070	0.000285
975.4491	0.000814
975.6912	-0.001258
975.9333	0.000264
976.1755	-0.000222
976.4176	0.000201
976.6597	-0.000814
976.9019	-0.000285
977.1440	0.000370
977.3862	0.000772
977.6283	0.001913
977.8705	-0.000835
978.1127	-0.000285
978.3549	-0.000856
978.5971	-0.000412
978.8393	0.001195
979.0815	0.000011
979.3237	-0.000264
979.5659	0.001406
979.8082	0.001025
980.0504	-0.001110
980.2926	0.000243
980.5349	-0.001681
980.7771	0.001089
981.0194	-0.002083
981.2617	0.000518
981.5040	-0.000476
981.7462	0.000159
981.9885	0.001152
982.2308	-0.002252
982.4731	-0.000285
982.7155	0.000264
982.9578	-0.000476
983.2001	-0.001892
983.4424	0.000814
983.6848	0.001512
983.9271	0.000729
984.1695	-0.000793
984.4118	0.000095
984.6542	0.001004
984.8966	-0.000645
985.1390	0.000307
985.3814	0.001047
985.6238	-0.002886
985.8662	0.000349
986.1086	0.000962
986.3510	0.000349
986.5934	0.001321
986.8358	0.001850
987.0783	0.001152
987.3207	-0.001343
987.5632	0.000222
987.8056	0.001512
988.0481	-0.000899
988.2906	0.001850
988.5331	-0.001913
988.7756	-0.000032
989.0180	-0.000180
989.2605	-0.000243
989.5031	-0.000370
989.7456	0.000349
989.9881	-0.000539
990.2306	0.000412
990.4732	-0.000645
990.7157	0.000941
990.9582	0.000603
991.2008	0.001110
991.4434	-0.000116
991.6859	-0.000011
991.9285	0.000222
992.1711	-0.000455
992.4137	-0.000983
992.6563	0.000708
992.8989	-0.002273
993.1415	0.000581
993.3841	-0.000159
993.6267	0.000328
993.8694	-0.001300
994.1120	-0.000349
994.3547	-0.000920
994.5973	-0.000095
994.8400	-0.001068
995.0826	-0.000095
995.3253	0.000285
995.5680	0.001427
995.8107	0.000011
996.0534	-0.000391
996.2961	0.000011
996.5388	-0.000074
996.7815	-0.001110
997.0242	0.000877
997.2670	0.000539
997.5097	-0.000793
997.7524	0.000539
997.9952	0.001385
998.2379	0.001321
998.4807	-0.000539
998.7235	-0.000285
998.9662	0.001935
999.2090	-0.000518
999.4518	0.000328
999.6946	-0.000793
999.9374	-0.001152
1000.1802	-0.000793
1000.4230	-0.000941
1000.6659	-0.000180
1000.9087	-0.000180
1001.1515	0.000687
1001.3944	-0.000814
1001.6372	-0.000264
1001.8801	0.001469
1002.1230	0.000708
1002.3658	0.000603
1002.6087	0.001469
1002.8516	0.000835
1003.0945	0.001131
1003.3374	-0.000116
1003.5803	-0.001850
1003.8232	-0.001702
1004.0661	-0.000011
1004.3091	-0.001152
1004.5520	0.000539
1004.7949	0.000814
1005.0379	0.000222
1005.2808	0.000772
1005.5238	-0.000455
1005.7667	-0.000433
1006.0097	0.000433
1006.2527	-0.001004
1006.4957	0.001195
1006.7387	-0.000032
1006.9817	-0.001512
1007.2247	-0.000328
1007.4677	-0.000793
1007.7107	-0.000349
1007.9538	0.000772
1008.1968	0.001723
1008.4398	0.000285
1008.6829	-0.001258
1008.9259	0.000095
1009.1690	0.000729
1009.4121	-0.001004
1009.6551	0.000476
1009.8982	-0.001110
1010.1413	-0.000137
1010.3844	0.001047
1010.6275	-0.000835
1010.8706	-0.001448
1011.1137	-0.001131
1011.3568	0.002125
1011.6000	0.000243
1011.8431	-0.000053
1012.0863	0.000201
1012.3294	0.001343
1012.5726	0.000328
1012.8157	0.000222
1013.0589	-0.002336
1013.3021	-0.000180
1013.5452	0.001935
1013.7884	0.000751
1014.0316	0.000708
1014.2748	-0.000222
1014.5180	-0.000476
1014.7613	0.002273
1015.0045	-0.000645
1015.2477	0.000180
1015.4909	0.000307
1015.7342	0.001279
1015.9774	0.000349
1016.2207	0.000920
1016.4640	-0.000011
1016.7072	0.001575
1016.9505	0.000539
1017.1938	0.001744
1017.4371	0.001448
1017.6804	0.000307
1017.9237	0.000772
1018.1670	-0.000391
1018.4103	0.000370
1018.6536	0.000011
1018.8969	0.000581
1019.1403	0.000708
1019.3836	0.000137
1019.6270	0.001258
1019.8703	-0.000497
1020.1137	0.001554
1020.3571	-0.000539
1020.6004	-0.000899
1020.8438	-0.000476
1021.0872	0.000941
1021.3306	-0.000518
1021.5740	0.000751
1021.8174	-0.004324
1022.0608	-0.002421
1022.3042	-0.002083
1022.5477	-0.002632
1022.7911	-0.003393
1023.0345	-0.003119
