# Wavelength (nm)	Intensity (a.u.)
197.7802	0.000202
197.9842	0.000371
198.1882	0.000329
198.3922	-0.000262
198.5963	-0.000093
198.8003	0.001088
199.0044	-0.000494
199.2085	0.000751
199.4126	0.001215
199.6168	0.001193
199.8209	-0.000072
200.0251	0.000012
200.2292	0.000392
200.4334	0.000434
200.6376	-0.000325
200.8418	0.000603
201.0461	0.000518
201.2503	0.000181
201.4546	0.001088
201.6589	-0.000051
201.8631	0.000308
202.0674	-0.001000
202.2718	0.000561
202.4761	-0.000156
202.6805	0.000919
202.8848	-0.000030
203.0892	0.000076
203.2936	0.000814
203.4980	0.001109
203.7024	0.000666
203.9069	0.002311
204.1113	0.000244
204.3158	-0.000135
204.5203	0.000582
204.7248	-0.000515
204.9293	-0.001169
205.1338	0.001215
205.3384	0.000877
205.5430	0.000160
205.7475	0.000434
205.9521	-0.000009
206.1567	-0.000220
206.3614	0.000476
206.5660	-0.000852
206.7706	-0.000156
206.9753	0.000202
207.1800	0.000518
207.3847	0.000518
207.5894	0.000624
207.7941	-0.000557
207.9989	-0.000030
208.2036	0.000540
208.4084	0.000793
208.6132	0.000687
208.8180	0.000392
209.0228	-0.000367
209.2276	0.001299
209.4325	-0.000473
209.6373	0.000772
209.8422	0.000856
210.0471	0.001151
210.2520	-0.000473
210.4569	0.000434
210.6618	-0.000515
210.8668	0.002016
211.0718	0.000687
211.2767	-0.000684
211.4817	-0.000030
211.6867	0.000202
211.8918	0.000033
212.0968	0.000983
212.3018	-0.000599
212.5069	0.001151
212.7120	0.001004
212.9171	-0.001021
213.1222	0.000202
213.3273	-0.000726
213.5325	0.000898
213.7376	0.000835
213.9428	-0.000325
214.1480	-0.000241
214.3532	0.000160
214.5584	0.000877
214.7636	-0.000747
214.9689	0.000708
215.1741	0.000708
215.3794	0.000413
215.5847	-0.000494
215.7900	0.000033
215.9953	0.001215
216.2007	0.001341
216.4060	0.000371
216.6114	0.000455
216.8168	-0.000156
217.0222	0.001236
217.2276	-0.000009
217.4330	-0.001000
217.6384	0.000244
217.8439	0.001679
218.0494	-0.000325
218.2548	0.000097
218.4603	-0.000009
218.6659	0.000392
218.8714	0.000413
219.0769	0.000666
219.2825	0.000624
219.4881	-0.000642
219.6936	0.000286
219.8992	-0.000515
220.1049	0.000983
220.3105	0.001531
220.5161	-0.000578
220.7218	0.001573
220.9275	-0.000831
221.1332	0.000772
221.3389	0.000898
221.5446	0.002459
221.7503	-0.000473
221.9561	0.000371
222.1618	-0.000747
222.3676	0.001594
222.5734	-0.000114
222.7792	0.000919
222.9850	0.000497
223.1909	0.000582
223.3967	0.000286
223.6026	0.001193
223.8085	0.001088
224.0144	0.000329
224.2203	-0.001274
224.4262	-0.000937
224.6322	0.000940
224.8381	0.000139
225.0441	0.000202
225.2501	0.001889
225.4561	-0.001359
225.6621	0.001046
225.8681	-0.001042
226.0742	0.000118
226.2802	0.000329
226.4863	-0.000241
226.6924	0.000392
226.8985	0.001257
227.1046	0.001088
227.3107	-0.000431
227.5169	0.001257
227.7230	0.000603
227.9292	-0.000304
228.1354	0.000202
228.3416	-0.000599
228.5478	0.001932
228.7541	-0.000705
228.9603	0.000054
229.1666	-0.000135
229.3729	0.001130
229.5791	0.000751
229.7855	0.000265
229.9918	0.000561
230.1981	0.000392
230.4045	0.001130
230.6108	0.000350
230.8172	0.000940
231.0236	0.000729
231.2300	-0.002012
231.4364	0.000497
231.6429	0.000076
231.8493	-0.000093
232.0558	0.000350
232.2623	0.000202
232.4688	-0.000156
232.6753	-0.000220
232.8818	0.001425
233.0884	0.001847
233.2949	0.000793
233.5015	0.000329
233.7081	0.001278
233.9147	-0.000051
234.1213	0.001025
234.3279	0.000983
234.5346	0.000139
234.7413	0.002607
234.9479	0.000835
235.1546	0.000582
235.3613	-0.000536
235.5680	0.001004
235.7748	0.000919
235.9815	0.000476
236.1883	-0.000937
236.3951	-0.000009
236.6018	0.000392
236.8087	0.001742
237.0155	0.000350
237.2223	0.001172
237.4292	0.000076
237.6360	0.001932
237.8429	-0.000620
238.0498	0.002037
238.2567	0.000413
238.4636	0.001278
238.6706	-0.000199
238.8775	0.001130
239.0845	-0.000072
239.2915	0.002100
239.4985	0.000308
239.7055	0.002100
239.9125	0.000983
240.1195	-0.000093
240.3266	-0.000156
240.5337	0.000329
240.7407	-0.000684
240.9478	0.001215
241.1549	0.000856
241.3621	0.000814
241.5692	0.000139
241.7764	0.002121
241.9835	0.000265
242.1907	-0.000178
242.3979	-0.000030
242.6051	0.000160
242.8124	0.000772
243.0196	0.000434
243.2269	-0.000156
243.4341	0.000666
243.6414	-0.000663
243.8487	0.000624
244.0560	0.001510
244.2634	0.001088
244.4707	0.000793
244.6781	0.000076
244.8854	-0.000051
245.0928	0.001594
245.3002	0.000286
245.5076	0.002079
245.7151	0.000308
245.9225	0.001046
246.1300	0.000118
246.3375	0.000350
246.5449	0.001299
246.7524	0.001425
246.9600	0.002332
247.1675	0.000244
247.3750	-0.000199
247.5826	0.000033
247.7902	0.000265
247.9978	0.000877
248.2054	-0.000895
248.4130	0.001109
248.6206	0.000223
248.8283	0.001278
249.0359	0.001784
249.2436	0.001215
249.4513	0.000033
249.6590	-0.000557
249.8667	0.000561
250.0745	0.000729
250.2822	-0.000346
250.4900	0.000645
250.6978	0.000202
250.9056	0.000434
251.1134	0.000434
251.3212	0.000118
251.5290	0.000392
251.7369	0.000434
251.9447	-0.000895
252.1526	-0.000431
252.3605	-0.000747
252.5684	-0.000367
252.7763	-0.000220
252.9843	-0.000178
253.1922	0.000624
253.4002	0.001172
253.6082	-0.000642
253.8162	-0.000557
254.0242	-0.000768
254.2322	0.001573
254.4402	0.000624
254.6483	0.001679
254.8564	-0.000030
255.0644	0.000118
255.2725	0.000708
255.4806	-0.000431
255.6888	0.000076
255.8969	0.000497
256.1051	0.001299
256.3132	0.000497
256.5214	0.001636
256.7296	0.000181
256.9378	0.001172
257.1460	0.000118
257.3543	0.000687
257.5625	0.001109
257.7708	0.000012
257.9791	0.000898
258.1874	-0.001570
258.3957	0.000708
258.6040	0.000582
258.8124	0.001763
259.0207	0.000139
259.2291	-0.000262
259.4375	0.000518
259.6459	0.000286
259.8543	-0.000135
260.0627	0.000012
260.2711	0.000160
260.4796	-0.000494
260.6881	0.000434
260.8965	0.000265
261.1050	-0.000515
261.3135	0.000582
261.5221	-0.000937
261.7306	-0.000367
261.9392	0.000645
262.1477	0.000603
262.3563	-0.001527
262.5649	0.001847
262.7735	-0.000241
262.9822	-0.000768
263.1908	-0.000578
263.3995	0.000350
263.6081	-0.000156
263.8168	-0.000156
264.0255	0.000877
264.2342	0.000329
264.4429	0.000054
264.6517	0.000729
264.8604	0.001004
265.0692	-0.000768
265.2780	0.000054
265.4868	-0.000051
265.6956	-0.000093
265.9044	0.001657
266.1133	-0.000578
266.3221	-0.000114
266.5310	-0.000135
266.7399	0.000392
266.9488	0.001004
267.1577	0.000518
267.3666	0.001172
267.5755	0.001046
267.7845	0.001679
267.9935	0.000835
268.2024	0.000708
268.4114	0.000708
268.6205	-0.000747
268.8295	0.001215
269.0385	0.000434
269.2476	0.001215
269.4566	0.000202
269.6657	0.000645
269.8748	0.000603
270.0839	0.001447
270.2931	-0.000768
270.5022	-0.000135
270.7114	-0.000410
270.9205	0.000751
271.1297	0.001215
271.3389	0.001067
271.5481	0.001362
271.7573	0.000265
271.9666	0.000054
272.1758	0.000708
272.3851	0.000582
272.5944	-0.000410
272.8037	0.000540
273.0130	0.000476
273.2223	-0.000283
273.4316	0.001742
273.6410	0.000350
273.8504	0.002164
274.0597	0.000961
274.2691	-0.000072
274.4785	0.000603
274.6880	0.001046
274.8974	-0.000431
275.1069	0.000392
275.3163	0.001742
275.5258	0.001278
275.7353	0.001025
275.9448	-0.000494
276.1543	-0.000051
276.3639	0.000708
276.5734	0.000687
276.7830	-0.000895
276.9926	0.001236
277.2022	0.000244
277.4118	0.000139
277.6214	0.000540
277.8310	-0.001211
278.0407	0.002649
278.2503	0.000286
278.4600	0.000983
278.6697	0.001278
278.8794	0.001932
279.0891	0.001531
279.2989	0.001172
279.5086	0.000729
279.7184	-0.000852
279.9281	0.001510
280.1379	0.000898
280.3477	0.001004
280.5576	0.000687
280.7674	0.000202
280.9772	0.000434
281.1871	0.000076
281.3970	0.001552
281.6069	-0.000304
281.8168	0.000223
282.0267	-0.000494
282.2366	0.001109
282.4466	-0.000072
282.6565	0.000181
282.8665	-0.000178
283.0765	0.000350
283.2865	0.000645
283.4965	0.001531
283.7065	-0.000388
283.9166	0.001636
284.1266	-0.001148
284.3367	0.000940
284.5468	-0.000557
284.7569	-0.000072
284.9670	0.000835
285.1771	0.000835
285.3873	0.000518
285.5974	0.001742
285.8076	0.000645
286.0178	-0.000452
286.2280	-0.000009
286.4382	-0.000051
286.6484	-0.000473
286.8587	0.001510
287.0689	0.000751
287.2792	-0.000747
287.4895	0.001067
287.6998	-0.000220
287.9101	0.000624
288.1204	0.000139
288.3308	-0.000178
288.5411	0.000919
288.7515	-0.000346
288.9619	0.000033
289.1723	0.000983
289.3827	-0.000030
289.5931	0.001721
289.8035	0.000265
290.0140	-0.000093
290.2245	0.001046
290.4349	-0.001548
290.6454	0.000772
290.8559	0.000265
291.0665	0.000919
291.2770	-0.000346
291.4875	0.001215
291.6981	0.000497
291.9087	0.000835
292.1193	-0.000810
292.3299	0.000476
292.5405	-0.000051
292.7511	-0.000156
292.9618	0.001679
293.1724	0.000181
293.3831	0.000392
293.5938	0.000181
293.8045	0.000434
294.0152	-0.000072
294.2260	-0.000325
294.4367	0.000877
294.6475	0.001341
294.8582	-0.000958
295.0690	0.001362
295.2798	0.000666
295.4906	-0.000114
295.7015	0.000729
295.9123	-0.000642
296.1232	0.001046
296.3340	-0.000156
296.5449	0.000476
296.7558	-0.000093
296.9667	0.001299
297.1777	0.000139
297.3886	0.001109
297.5995	0.000603
297.8105	-0.000642
298.0215	0.001215
298.2325	-0.000262
298.4435	-0.001127
298.6545	0.001341
298.8656	-0.000051
299.0766	0.000392
299.2877	0.000139
299.4988	0.000371
299.7099	-0.000642
299.9210	0.000434
300.1321	0.000455
300.3432	0.000983
300.5544	0.000033
300.7655	0.001425
300.9767	-0.000473
301.1879	0.002164
301.3991	0.000054
301.6103	0.000329
301.8215	0.000856
302.0328	0.000751
302.2441	-0.000473
302.4553	0.000139
302.6666	0.000961
302.8779	0.000708
303.0892	-0.000093
303.3006	0.001193
303.5119	-0.000156
303.7233	0.001067
303.9346	0.000118
304.1460	0.000392
304.3574	0.000961
304.5688	-0.000431
304.7803	0.000202
304.9917	0.001763
305.2031	0.000097
305.4146	0.001130
305.6261	0.000772
305.8376	0.000518
306.0491	-0.000916
306.2606	0.001341
306.4722	-0.000831
306.6837	0.001531
306.8953	0.001784
307.1069	0.000392
307.3184	-0.000178
307.5301	0.000160
307.7417	0.001046
307.9533	-0.000747
308.1650	0.000518
308.3766	0.002164
308.5883	0.000244
308.8000	0.001700
309.0117	-0.000431
309.2234	-0.000663
309.4351	-0.000051
309.6469	0.000666
309.8586	-0.000958
310.0704	-0.000304
310.2822	0.000097
310.4940	0.001636
310.7058	0.001088
310.9176	0.001531
311.1295	0.000265
311.3413	0.001826
311.5532	0.000434
311.7651	0.001088
311.9770	0.000434
312.1889	-0.000114
312.4008	-0.000009
312.6127	0.000708
312.8247	-0.000030
313.0366	0.001784
313.2486	-0.000515
313.4606	0.000518
313.6726	-0.000262
313.8846	0.000729
314.0967	0.000265
314.3087	0.000898
314.5208	0.000582
314.7328	-0.000072
314.9449	-0.001591
315.1570	0.000054
315.3692	0.000898
315.5813	0.000076
315.7934	0.000919
316.0056	0.000160
316.2177	0.001447
316.4299	0.000392
316.6421	-0.000663
316.8543	0.000286
317.0666	0.000308
317.2788	0.000244
317.4911	-0.000599
317.7033	0.000708
317.9156	0.000751
318.1279	0.000835
318.3402	0.000181
318.5525	0.000645
318.7649	-0.000051
318.9772	0.000076
319.1896	-0.000388
319.4019	0.000561
319.6143	0.000940
319.8267	0.000898
320.0392	-0.000852
320.2516	0.000561
320.4640	0.000561
320.6765	0.000919
320.8890	-0.000114
321.1014	0.000434
321.3139	0.000666
321.5265	0.000054
321.7390	-0.000410
321.9515	-0.000684
322.1641	0.000244
322.3766	0.000645
322.5892	0.000983
322.8018	0.000097
323.0144	0.000139
323.2270	0.001109
323.4397	-0.000452
323.6523	0.000392
323.8650	-0.000789
324.0777	0.001889
324.2904	0.000645
324.5031	0.000961
324.7158	-0.001127
324.9285	0.000940
325.1412	0.000308
325.3540	0.001447
325.5668	0.000687
325.7796	0.000687
325.9924	0.000139
326.2052	-0.000241
326.4180	-0.001253
326.6308	0.000160
326.8437	0.001594
327.0566	-0.000199
327.2694	-0.000536
327.4823	0.001805
327.6952	-0.000937
327.9082	-0.000367
328.1211	-0.000831
328.3340	0.000455
328.5470	0.000118
328.7600	0.000793
328.9730	0.000033
329.1860	0.000729
329.3990	-0.000578
329.6120	0.000603
329.8251	-0.001274
330.0381	0.000308
330.2512	0.000751
330.4643	0.001236
330.6774	0.000033
330.8905	-0.000388
331.1036	0.000160
331.3167	0.000708
331.5299	0.000814
331.7431	0.000265
331.9562	-0.000874
332.1694	0.000476
332.3826	-0.000431
332.5959	0.001025
332.8091	-0.000241
333.0223	0.000139
333.2356	0.000772
333.4489	0.000603
333.6622	-0.000178
333.8755	0.000687
334.0888	0.000687
334.3021	0.000624
334.5154	0.000244
334.7288	0.000202
334.9422	0.000687
335.1555	0.000413
335.3689	-0.000135
335.5823	-0.000072
335.7958	-0.000431
336.0092	0.000518
336.2227	-0.000199
336.4361	0.001130
336.6496	0.000139
336.8631	0.000308
337.0766	0.000054
337.2901	0.000877
337.5036	-0.001084
337.7172	0.000308
337.9307	0.001004
338.1443	-0.000747
338.3579	-0.000114
338.5715	0.000160
338.7851	0.000054
338.9987	0.001489
339.2124	-0.000620
339.4260	0.001130
339.6397	0.001362
339.8533	0.001341
340.0670	-0.000473
340.2807	-0.000494
340.4945	0.001425
340.7082	0.000076
340.9219	-0.000663
341.1357	0.001615
341.3495	-0.000789
341.5633	-0.000536
341.7771	0.000097
341.9909	0.001046
342.2047	-0.000895
342.4185	0.001552
342.6324	-0.000810
342.8463	0.001763
343.0601	0.001257
343.2740	-0.000051
343.4879	-0.000346
343.7019	0.000856
343.9158	0.000329
344.1297	0.000708
344.3437	0.000772
344.5577	0.001573
344.7717	-0.000051
344.9857	0.000350
345.1997	-0.000642
345.4137	-0.000304
345.6277	0.000561
345.8418	0.000350
346.0559	0.000054
346.2699	-0.001232
346.4840	-0.001485
346.6981	0.000202
346.9123	0.000793
347.1264	-0.000431
347.3406	0.000772
347.5547	0.000793
347.7689	0.000118
347.9831	0.001784
348.1973	-0.000831
348.4115	0.000139
348.6257	0.000097
348.8400	0.001742
349.0542	0.000603
349.2685	-0.000346
349.4828	-0.000241
349.6971	0.000518
349.9114	0.002691
350.1257	0.000582
350.3400	-0.001696
350.5544	-0.000072
350.7687	-0.000726
350.9831	-0.000874
351.1975	0.000919
351.4119	0.000497
351.6263	0.000012
351.8407	0.000582
352.0552	-0.000768
352.2696	0.000751
352.4841	0.000097
352.6986	0.000476
352.9131	-0.000114
353.1276	0.000687
353.3421	0.000708
353.5566	0.000919
353.7712	0.000244
353.9858	-0.000367
354.2003	-0.000199
354.4149	-0.000325
354.6295	-0.000536
354.8441	0.000540
355.0588	0.000729
355.2734	-0.000030
355.4881	0.000181
355.7027	0.000350
355.9174	-0.000431
356.1321	0.000729
356.3468	-0.000220
356.5615	0.000181
356.7763	0.000814
356.9910	0.001932
357.2058	0.000413
357.4206	0.001046
357.6353	-0.000093
357.8501	0.000582
358.0650	0.000223
358.2798	0.000708
358.4946	0.000540
358.7095	0.001763
358.9243	0.001004
359.1392	-0.000009
359.3541	-0.000620
359.5690	0.001594
359.7839	-0.000262
359.9989	0.000708
360.2138	0.001025
360.4288	-0.000388
360.6438	0.000286
360.8587	0.000835
361.0737	-0.000388
361.2888	0.000455
361.5038	-0.001042
361.7188	0.000012
361.9339	0.000729
362.1489	0.000856
362.3640	0.000033
362.5791	0.001025
362.7942	0.000856
363.0093	0.000286
363.2245	-0.001021
363.4396	0.001742
363.6548	0.000772
363.8699	-0.000852
364.0851	-0.001570
364.3003	0.000708
364.5155	-0.000578
364.7308	0.001151
364.9460	0.000624
365.1612	0.001046
365.3765	0.000012
365.5918	-0.000325
365.8071	0.000687
366.0224	0.000308
366.2377	0.000540
366.4530	0.000603
366.6684	0.000012
366.8837	0.000708
367.0991	-0.000283
367.3145	0.001826
367.5299	0.000540
367.7453	0.000898
367.9607	-0.000599
368.1761	-0.000494
368.3916	-0.001021
368.6070	0.001362
368.8225	0.000160
369.0380	-0.000473
369.2535	-0.000072
369.4690	-0.000367
369.6845	-0.000135
369.9001	0.000582
370.1156	0.000076
370.3312	0.001278
370.5468	-0.000958
370.7624	0.000540
370.9780	-0.000220
371.1936	0.000244
371.4092	0.000244
371.6249	-0.000304
371.8405	0.000772
372.0562	0.000455
372.2719	0.000076
372.4876	0.001383
372.7033	-0.000916
372.9190	-0.000072
373.1348	0.000033
373.3505	-0.000009
373.5663	-0.000072
373.7820	0.000708
373.9978	-0.000663
374.2136	0.002037
374.4294	-0.000156
374.6453	0.001826
374.8611	0.000329
375.0770	0.000181
375.2928	0.000645
375.5087	0.000413
375.7246	0.000160
375.9405	-0.000452
376.1564	-0.000726
376.3724	0.000835
376.5883	0.000329
376.8043	0.000645
377.0203	0.001172
377.2362	0.000392
377.4522	-0.000220
377.6682	0.001088
377.8843	0.000033
378.1003	0.000308
378.3164	-0.000220
378.5324	0.001341
378.7485	0.000244
378.9646	0.001004
379.1807	0.001046
379.3968	0.000751
379.6129	0.000033
379.8291	0.001236
380.0452	0.000961
380.2614	0.002417
380.4776	0.000940
380.6938	0.001299
380.9100	-0.001169
381.1262	0.000392
381.3424	0.000012
381.5587	0.001573
381.7749	0.000877
381.9912	0.001025
382.2075	0.000687
382.4238	0.001447
382.6401	0.000961
382.8564	0.000919
383.0728	0.001236
383.2891	0.000540
383.5055	0.001193
383.7219	0.001004
383.9382	0.001025
384.1546	0.001151
384.3711	0.000434
384.5875	0.001404
384.8039	0.002269
385.0204	0.000961
385.2368	0.000413
385.4533	0.000054
385.6698	-0.000937
385.8863	0.001700
386.1028	0.001151
386.3194	0.002037
386.5359	0.001130
386.7525	0.000856
386.9690	0.000708
387.1856	0.001088
387.4022	0.000751
387.6188	0.002100
387.8355	0.001636
388.0521	0.000793
388.2687	0.000729
388.4854	0.001784
388.7021	0.000097
388.9188	0.003640
389.1355	0.001215
389.3522	0.003007
389.5689	0.001615
389.7856	0.002881
390.0024	0.003935
390.2192	0.002881
390.4359	0.002881
390.6527	0.002712
390.8695	0.002965
391.0863	0.002902
391.3032	0.003513
391.5200	0.005095
391.7369	0.003619
391.9537	0.005011
392.1706	0.003619
392.3875	0.005053
392.6044	0.003745
392.8213	0.006234
393.0383	0.006023
393.2552	0.005855
393.4722	0.007436
393.6891	0.004674
393.9061	0.006909
394.1231	0.006783
394.3401	0.006762
394.5572	0.006340
394.7742	0.007415
394.9912	0.007394
395.2083	0.006298
395.4254	0.008111
395.6425	0.007373
395.8596	0.008407
396.0767	0.009187
396.2938	0.008934
396.5109	0.007289
396.7281	0.007668
396.9453	0.009714
397.1624	0.009482
397.3796	0.007985
397.5968	0.012667
397.8140	0.009503
398.0313	0.010368
398.2485	0.010052
398.4658	0.011570
398.6830	0.013933
398.9003	0.013933
399.1176	0.012077
399.3349	0.012435
399.5522	0.014249
399.7696	0.014439
399.9869	0.013806
400.2043	0.014565
400.4216	0.014650
400.6390	0.014354
400.8564	0.013279
401.0738	0.014629
401.2912	0.014945
401.5087	0.013469
401.7261	0.014017
401.9436	0.014165
402.1610	0.014544
402.3785	0.015325
402.5960	0.014565
402.8135	0.015219
403.0310	0.016464
403.2486	0.016421
403.4661	0.015177
403.6837	0.016253
403.9013	0.016021
404.1189	0.017455
404.3365	0.016527
404.5541	0.016928
404.7717	0.018341
404.9893	0.017455
405.2070	0.020007
405.4246	0.018974
405.6423	0.020070
405.8600	0.017729
406.0777	0.017624
406.2954	0.017371
406.5131	0.017160
406.7309	0.018045
406.9486	0.016590
407.1664	0.017982
407.3842	0.018256
407.6020	0.019332
407.8198	0.018636
408.0376	0.019859
408.2554	0.020745
408.4733	0.020323
408.6911	0.020598
408.9090	0.020471
409.1269	0.018678
409.3448	0.018995
409.5627	0.019796
409.7806	0.018910
409.9985	0.019501
410.2165	0.016949
410.4344	0.019775
410.6524	0.019163
410.8704	0.019627
411.0884	0.020745
411.3064	0.019606
411.5244	0.020028
411.7424	0.019037
411.9605	0.019248
412.1785	0.020176
412.3966	0.021631
412.6147	0.021800
412.8328	0.022496
413.0509	0.020977
413.2690	0.022496
413.4871	0.021631
413.7053	0.022264
413.9234	0.021125
414.1416	0.022454
414.3598	0.020661
414.5780	0.021905
414.7962	0.021905
415.0144	0.019163
415.2326	0.021589
415.4509	0.021019
415.6692	0.020830
415.8874	0.021209
416.1057	0.023508
416.3240	0.022222
416.5423	0.021631
416.7606	0.021125
416.9790	0.021947
417.1973	0.021631
417.4157	0.021800
417.6341	0.022897
417.8524	0.020598
418.0708	0.020935
418.2893	0.022981
418.5077	0.023909
418.7261	0.022348
418.9446	0.022707
419.1630	0.023276
419.3815	0.021272
419.6000	0.023361
419.8185	0.022601
420.0370	0.024120
420.2555	0.023297
420.4741	0.025828
420.6926	0.024415
420.9112	0.025786
421.1298	0.027326
421.3483	0.026735
421.5669	0.027853
421.7856	0.028338
422.0042	0.026883
422.2228	0.027726
422.4415	0.026250
422.6601	0.024035
422.8788	0.025617
423.0975	0.026756
423.3162	0.025427
423.5349	0.026419
423.7536	0.025048
423.9724	0.025153
424.1911	0.025153
424.4099	0.023255
424.6287	0.025069
424.8475	0.023361
425.0663	0.023719
425.2851	0.024900
425.5039	0.026145
425.7228	0.024035
425.9416	0.022475
426.1605	0.022011
426.3793	0.022158
426.5982	0.023318
426.8171	0.022601
427.0361	0.022011
427.2550	0.024183
427.4739	0.025744
427.6929	0.023972
427.9118	0.024816
428.1308	0.024668
428.3498	0.024985
428.5688	0.023719
428.7878	0.023909
429.0068	0.023803
429.2259	0.025364
429.4449	0.026229
429.6640	0.026988
429.8831	0.026777
430.1022	0.027347
430.3213	0.027916
430.5404	0.027136
430.7595	0.027305
430.9787	0.026166
431.1978	0.024394
431.4170	0.025786
431.6362	0.024183
431.8553	0.023234
432.0745	0.021568
432.2938	0.022728
432.5130	0.022981
432.7322	0.021652
432.9515	0.023614
433.1707	0.021926
433.3900	0.020851
433.6093	0.022686
433.8286	0.026714
434.0479	0.027009
434.2673	0.025132
434.4866	0.025491
434.7059	0.024394
434.9253	0.023107
435.1447	0.022643
435.3641	0.023719
435.5835	0.023361
435.8029	0.022770
436.0223	0.021842
436.2418	0.024331
436.4612	0.025406
436.6807	0.024584
436.9001	0.025681
437.1196	0.023002
437.3391	0.022475
437.5586	0.022158
437.7782	0.021483
437.9977	0.023593
438.2173	0.020619
438.4368	0.023424
438.6564	0.024162
438.8760	0.025807
439.0956	0.024310
439.3152	0.022306
439.5348	0.025132
439.7545	0.022179
439.9741	0.021336
440.1938	0.022875
440.4135	0.021378
440.6331	0.023318
440.8528	0.022707
441.0725	0.023993
441.2923	0.028359
441.5120	0.027178
441.7318	0.026440
441.9515	0.025470
442.1713	0.027790
442.3911	0.025955
442.6109	0.023951
442.8307	0.024478
443.0505	0.024900
443.2703	0.024837
443.4902	0.027326
443.7101	0.025744
443.9299	0.026693
444.1498	0.025955
444.3697	0.025596
444.5896	0.024478
444.8095	0.025153
445.0295	0.024373
445.2494	0.025174
445.4694	0.024499
445.6894	0.024035
445.9093	0.024204
446.1293	0.023867
446.3493	0.025301
446.5694	0.024057
446.7894	0.023951
447.0094	0.023107
447.2295	0.024478
447.4496	0.023571
447.6696	0.024415
447.8897	0.023466
448.1098	0.023318
448.3300	0.022201
448.5501	0.022960
448.7702	0.021483
448.9904	0.022433
449.2106	0.021357
449.4307	0.022053
449.6509	0.020745
449.8711	0.020956
450.0914	0.021589
450.3116	0.019838
450.5318	0.020323
450.7521	0.018214
450.9724	0.018868
451.1926	0.019206
451.4129	0.019754
451.6332	0.019459
451.8535	0.020260
452.0739	0.018974
452.2942	0.020408
452.5146	0.017328
452.7349	0.018383
452.9553	0.018404
453.1757	0.017413
453.3961	0.017729
453.6165	0.017919
453.8369	0.018214
454.0574	0.016801
454.2778	0.016147
454.4983	0.016443
454.7188	0.017813
454.9393	0.016400
455.1597	0.015979
455.3803	0.016738
455.6008	0.018299
455.8213	0.017371
456.0419	0.016295
456.2624	0.015156
456.4830	0.015873
456.7036	0.014945
456.9242	0.016548
457.1448	0.015810
457.3654	0.018320
457.5860	0.017349
457.8067	0.017054
458.0274	0.018130
458.2480	0.014586
458.4687	0.017160
458.6894	0.018214
458.9101	0.016907
459.1308	0.016021
459.3516	0.015831
459.5723	0.016042
459.7931	0.015725
460.0138	0.015810
460.2346	0.017096
460.4554	0.014755
460.6762	0.015156
460.8970	0.016084
461.1178	0.013869
461.3387	0.014544
461.5595	0.014249
461.7804	0.013954
462.0013	0.012583
462.2222	0.012372
462.4431	0.012562
462.6640	0.013237
462.8849	0.012288
463.1059	0.012309
463.3268	0.014249
463.5478	0.013806
463.7687	0.013110
463.9897	0.011570
464.2107	0.013827
464.4317	0.013658
464.6528	0.013975
464.8738	0.013827
465.0948	0.014481
465.3159	0.011233
465.5370	0.013384
465.7581	0.012984
465.9792	0.012773
466.2003	0.014144
466.4214	0.011908
466.6425	0.013131
466.8637	0.011866
467.0848	0.011760
467.3060	0.011001
467.5272	0.008892
467.7484	0.010474
467.9696	0.010832
468.1908	0.010157
468.4120	0.010052
468.6333	0.009904
468.8545	0.009778
469.0758	0.009946
469.2970	0.008829
469.5183	0.007816
469.7396	0.008365
469.9610	0.008660
470.1823	0.008154
470.4036	0.009377
470.6250	0.009103
470.8463	0.007226
471.0677	0.008133
471.2891	0.007542
471.5105	0.008934
471.7319	0.008702
471.9533	0.007436
472.1748	0.007879
472.3962	0.007858
472.6177	0.008027
472.8391	0.008386
473.0606	0.007605
473.2821	0.007879
473.5036	0.008512
473.7251	0.009356
473.9467	0.007289
474.1682	0.007226
474.3898	0.006066
474.6113	0.008871
474.8329	0.007479
475.0545	0.007436
475.2761	0.008301
475.4977	0.006487
475.7193	0.007584
475.9410	0.007605
476.1626	0.007605
476.3843	0.006171
476.6060	0.008217
476.8277	0.006593
477.0494	0.006994
477.2711	0.005981
477.4928	0.005644
477.7145	0.006698
477.9363	0.006508
478.1580	0.006234
478.3798	0.008069
478.6016	0.006487
478.8234	0.007099
479.0452	0.005834
479.2670	0.007078
479.4888	0.006783
479.7107	0.005559
479.9325	0.006508
480.1544	0.005876
480.3763	0.006129
480.5982	0.008470
480.8201	0.005812
481.0420	0.007162
481.2639	0.004484
481.4859	0.006719
481.7078	0.004800
481.9298	0.005517
482.1517	0.007415
482.3737	0.005876
482.5957	0.004210
482.8177	0.004716
483.0398	0.005791
483.2618	0.005749
483.4838	0.004273
483.7059	0.006698
483.9280	0.005412
484.1501	0.004800
484.3721	0.004758
484.5943	0.006403
484.8164	0.005496
485.0385	0.006951
485.2606	0.004737
485.4828	0.005538
485.7050	0.011233
485.9271	0.017244
486.1493	0.017476
486.3715	0.013785
486.5937	0.011887
486.8160	0.009989
487.0382	0.007711
487.2605	0.006846
487.4827	0.005981
487.7050	0.006171
487.9273	0.006213
488.1496	0.003535
488.3719	0.003492
488.5942	0.004146
488.8165	0.003872
489.0389	0.006087
489.2612	0.004378
489.4836	0.005201
489.7060	0.002839
489.9284	0.003134
490.1508	0.003556
490.3732	0.004969
490.5956	0.005116
490.8180	0.004083
491.0405	0.005264
491.2630	0.003872
491.4854	0.003303
491.7079	0.004210
491.9304	0.003281
492.1529	0.004863
492.3755	0.002691
492.5980	0.003535
492.8205	0.002459
493.0431	0.004399
493.2657	0.003218
493.4882	0.003745
493.7108	0.003577
493.9334	0.004484
494.1561	0.003071
494.3787	0.003007
494.6013	0.003745
494.8240	0.004125
495.0466	0.001974
495.2693	0.002649
495.4920	0.003239
495.7147	0.004146
495.9374	0.004210
496.1601	0.004716
496.3829	0.003408
496.6056	0.004800
496.8284	0.003429
497.0511	0.003556
497.2739	0.003113
497.4967	0.002860
497.7195	0.003197
497.9423	0.003914
498.1652	0.003471
498.3880	0.003007
498.6109	0.003260
498.8337	0.002944
499.0566	0.002986
499.2795	0.002100
499.5024	0.003092
499.7253	0.003471
499.9482	0.003028
500.1712	0.002817
500.3941	0.002206
500.6171	0.003408
500.8400	0.002459
501.0630	0.003640
501.2860	0.003830
501.5090	0.003935
501.7320	0.001932
501.9551	0.002058
502.1781	0.001721
502.4012	0.001341
502.6242	0.003598
502.8473	0.002522
503.0704	0.003556
503.2935	0.003724
503.5166	0.002839
503.7397	0.003197
503.9628	0.003092
504.1860	0.003535
504.4092	0.002353
504.6323	0.002839
504.8555	0.002417
505.0787	0.003260
505.3019	0.001974
505.5251	0.002649
505.7483	0.002480
505.9716	0.002375
506.1948	0.002100
506.4181	0.002564
506.6414	0.001615
506.8647	0.004020
507.0880	0.003218
507.3113	0.003071
507.5346	0.001636
507.7579	0.002332
507.9813	0.002585
508.2046	0.002691
508.4280	0.002459
508.6514	0.001953
508.8748	0.002712
509.0982	0.003640
509.3216	0.001679
509.5450	0.003113
509.7685	0.002058
509.9919	0.003197
510.2154	0.002143
510.4388	0.000286
510.6623	0.003366
510.8858	0.002459
511.1093	0.001700
511.3329	0.001700
511.5564	0.003239
511.7799	0.002501
512.0035	0.003028
512.2270	0.002543
512.4506	0.002585
512.6742	0.003176
512.8978	0.001784
513.1214	0.004188
513.3451	0.001763
513.5687	0.003809
513.7923	0.002037
514.0160	0.002079
514.2397	0.002944
514.4634	0.002121
514.6871	0.001868
514.9108	0.002185
515.1345	0.003071
515.3582	0.003303
515.5819	0.002501
515.8057	0.003260
516.0295	0.001004
516.2532	0.002839
516.4770	0.001721
516.7008	0.002986
516.9246	0.001531
517.1485	0.002860
517.3723	0.001489
517.5961	0.003197
517.8200	0.003239
518.0439	0.003049
518.2677	0.002100
518.4916	0.002164
518.7155	0.002649
518.9395	0.001594
519.1634	0.002459
519.3873	0.002269
519.6113	0.003345
519.8352	0.003387
520.0592	0.003893
520.2832	0.001721
520.5072	0.003914
520.7312	0.002881
520.9552	0.001953
521.1792	0.002691
521.4033	0.002944
521.6273	0.001953
521.8514	0.002311
522.0755	0.002501
522.2996	0.002733
522.5237	0.001573
522.7478	0.002037
522.9719	0.000983
523.1960	0.003281
523.4202	0.002649
523.6443	0.003450
523.8685	0.002944
524.0927	0.002543
524.3169	0.002585
524.5411	0.002986
524.7653	0.003028
524.9895	0.003767
525.2138	0.004505
525.4380	0.003028
525.6623	0.003281
525.8865	0.003281
526.1108	0.003092
526.3351	0.003176
526.5594	0.003366
526.7837	0.003492
527.0081	0.001468
527.2324	0.002459
527.4568	0.002459
527.6811	0.003830
527.9055	0.003071
528.1299	0.003682
528.3543	0.004484
528.5787	0.002902
528.8031	0.003408
529.0276	0.004589
529.2520	0.004104
529.4765	0.003830
529.7009	0.003935
529.9254	0.005391
530.1499	0.002607
530.3744	0.003767
530.5989	0.003830
530.8234	0.004188
531.0480	0.003345
531.2725	0.005222
531.4971	0.003767
531.7217	0.007162
531.9462	0.004420
532.1708	0.004969
532.3954	0.003450
532.6200	0.005053
532.8447	0.004294
533.0693	0.003745
533.2940	0.005960
533.5186	0.005580
533.7433	0.005517
533.9680	0.005074
534.1927	0.005391
534.4174	0.006698
534.6421	0.005665
534.8668	0.006530
535.0916	0.005791
535.3163	0.006234
535.5411	0.004463
535.7659	0.006002
535.9907	0.006508
536.2155	0.007331
536.4403	0.005517
536.6651	0.005960
536.8899	0.005897
537.1148	0.006087
537.3396	0.007458
537.5645	0.007247
537.7894	0.007289
538.0143	0.007015
538.2392	0.006994
538.4641	0.008491
538.6890	0.006656
538.9139	0.008639
539.1389	0.008006
539.3638	0.008723
539.5888	0.008807
539.8138	0.009546
540.0388	0.009124
540.2638	0.008048
540.4888	0.007753
540.7138	0.009061
540.9389	0.009693
541.1639	0.009124
541.3890	0.009356
541.6140	0.009503
541.8391	0.009735
542.0642	0.009820
542.2893	0.010031
542.5144	0.012477
542.7396	0.011402
542.9647	0.011486
543.1899	0.010326
543.4150	0.011423
543.6402	0.010347
543.8654	0.011549
544.0906	0.011317
544.3158	0.013785
544.5410	0.012604
544.7662	0.014038
544.9915	0.010242
545.2167	0.014291
545.4420	0.012477
545.6673	0.014418
545.8926	0.009862
546.1179	0.013806
546.3432	0.011423
546.5685	0.012730
546.7938	0.012034
547.0192	0.011718
547.2445	0.012477
547.4699	0.014776
547.6953	0.014481
547.9206	0.015831
548.1460	0.014924
548.3715	0.016611
548.5969	0.016021
548.8223	0.016885
549.0478	0.015557
549.2732	0.016147
549.4987	0.014797
549.7242	0.014523
549.9496	0.014333
550.1751	0.015662
550.4007	0.015029
550.6262	0.016042
550.8517	0.015008
551.0773	0.014882
551.3028	0.015979
551.5284	0.015493
551.7540	0.014080
551.9796	0.017624
552.2052	0.018277
552.4308	0.018720
552.6564	0.019163
552.8820	0.019627
553.1077	0.019248
553.3333	0.018573
553.5590	0.018952
553.7847	0.020977
554.0104	0.019037
554.2361	0.019733
554.4618	0.017392
554.6875	0.019227
554.9132	0.016211
555.1390	0.018952
555.3648	0.019944
555.5905	0.020724
555.8163	0.020682
556.0421	0.023213
556.2679	0.020787
556.4937	0.022032
556.7195	0.022201
556.9454	0.021673
557.1712	0.020049
557.3971	0.021631
557.6230	0.020682
557.8488	0.021399
558.0747	0.021842
558.3006	0.021483
558.5266	0.020197
558.7525	0.020787
558.9784	0.021568
559.2044	0.021104
559.4303	0.019691
559.6563	0.021673
559.8823	0.020893
560.1083	0.025048
560.3343	0.023150
560.5603	0.026672
560.7863	0.024921
561.0124	0.029245
561.2384	0.029772
561.4645	0.029477
561.6905	0.027157
561.9166	0.028148
562.1427	0.026145
562.3688	0.028549
562.5949	0.027241
562.8211	0.028380
563.0472	0.028380
563.2733	0.028444
563.4995	0.030468
563.7257	0.030869
563.9519	0.030532
564.1781	0.031017
564.4043	0.030574
564.6305	0.030384
564.8567	0.031692
565.0829	0.034497
565.3092	0.033780
565.5355	0.034349
565.7617	0.032852
565.9880	0.031291
566.2143	0.031375
566.4406	0.035087
566.6669	0.034434
566.8932	0.036036
567.1196	0.037829
567.3459	0.041794
567.5723	0.043376
567.7987	0.046751
568.0250	0.047194
568.2514	0.047595
568.4778	0.048333
568.7043	0.055525
568.9307	0.057339
569.1571	0.058879
569.3836	0.062527
569.6100	0.071913
569.8365	0.078873
570.0630	0.084990
570.2895	0.085728
570.5160	0.083556
570.7425	0.085116
570.9690	0.088449
571.1956	0.102601
571.4221	0.101779
571.6487	0.105174
571.8752	0.106313
572.1018	0.108443
572.3284	0.111776
572.5550	0.104795
572.7816	0.096485
573.0082	0.093975
573.2349	0.103213
573.4615	0.113885
573.6882	0.117724
573.9149	0.127658
574.1415	0.129303
574.3682	0.134048
574.5949	0.139954
574.8216	0.142527
575.0484	0.141220
575.2751	0.143856
575.5018	0.145164
575.7286	0.132213
575.9554	0.128354
576.1821	0.129619
576.4089	0.132867
576.6357	0.140228
576.8626	0.148264
577.0894	0.151786
577.3162	0.152735
577.5431	0.155857
577.7699	0.172857
577.9968	0.204114
578.2237	0.193020
578.4505	0.184837
578.6774	0.172013
578.9044	0.162606
579.1313	0.154570
579.3582	0.155372
579.5851	0.163429
579.8121	0.162859
580.0391	0.169145
580.2660	0.172604
580.4930	0.167605
580.7200	0.163555
580.9470	0.164146
581.1741	0.198926
581.4011	0.241868
581.6281	0.263191
581.8552	0.260175
582.0822	0.259922
582.3093	0.247689
582.5364	0.234212
582.7635	0.209324
582.9906	0.195720
583.2177	0.183761
583.4449	0.167900
583.6720	0.157523
583.8991	0.148222
584.1263	0.153389
584.3535	0.156701
584.5807	0.159907
584.8079	0.171781
585.0351	0.184457
585.2623	0.189835
585.4895	0.190827
585.7167	0.192219
585.9440	0.186081
586.1713	0.175303
586.3985	0.164758
586.6258	0.162880
586.8531	0.166255
587.0804	0.174101
587.3077	0.182053
587.5350	0.182242
587.7624	0.188359
587.9897	0.177876
588.2171	0.167204
588.4445	0.161952
588.6718	0.161594
588.8992	0.151175
589.1266	0.141894
589.3540	0.132994
589.5815	0.132108
589.8089	0.128860
590.0363	0.132446
590.2638	0.122026
590.4913	0.121309
590.7187	0.114581
590.9462	0.112134
591.1737	0.103867
591.4012	0.106630
591.6288	0.107241
591.8563	0.107579
592.0838	0.102601
592.3114	0.104837
592.5389	0.123524
592.7665	0.147631
592.9941	0.165686
593.2217	0.166023
593.4493	0.163766
593.6769	0.162374
593.9046	0.156912
594.1322	0.149614
594.3598	0.142148
594.5875	0.137697
594.8152	0.149783
595.0429	0.156827
595.2705	0.162058
595.4983	0.155056
595.7260	0.146028
595.9537	0.136706
596.1814	0.129851
596.4092	0.119306
596.6369	0.113758
596.8647	0.116711
597.0925	0.118610
597.3203	0.121478
597.5481	0.122554
597.7759	0.120993
598.0037	0.116184
598.2315	0.108317
598.4594	0.113969
598.6872	0.125401
598.9151	0.141620
599.1430	0.152546
599.3709	0.151386
599.5988	0.142675
599.8267	0.142949
600.0546	0.146492
600.2825	0.148517
600.5105	0.152166
600.7384	0.147463
600.9664	0.148222
601.1944	0.150774
601.4223	0.151807
601.6503	0.143223
601.8783	0.138330
602.1064	0.134344
602.3344	0.132277
602.5624	0.132699
602.7905	0.138878
603.0185	0.142401
603.2466	0.143856
603.4747	0.151133
603.7028	0.154423
603.9309	0.147083
604.1590	0.142949
604.3871	0.134639
604.6152	0.130885
604.8434	0.128016
605.0715	0.123186
605.2997	0.126877
605.5279	0.133479
605.7561	0.137043
605.9843	0.141747
606.2125	0.137676
606.4407	0.131180
606.6689	0.128459
606.8972	0.124515
607.1254	0.126139
607.3537	0.127320
607.5819	0.129366
607.8102	0.124431
608.0385	0.124283
608.2668	0.118504
608.4951	0.115087
608.7235	0.119263
608.9518	0.116332
609.1801	0.113379
609.4085	0.106398
609.6369	0.105364
609.8653	0.111396
610.0936	0.119200
610.3220	0.125675
610.5505	0.118314
610.7789	0.115151
611.0073	0.109477
611.2357	0.114307
611.4642	0.109814
611.6927	0.109414
611.9211	0.110806
612.1496	0.108675
612.3781	0.103234
612.6066	0.105216
612.8351	0.103993
613.0637	0.104710
613.2922	0.106651
613.5208	0.102728
613.7493	0.100007
613.9779	0.101947
614.2065	0.101125
614.4351	0.104035
614.6637	0.098552
614.8923	0.102411
615.1209	0.104056
615.3495	0.105955
615.5782	0.107220
615.8068	0.105027
616.0355	0.102179
616.2642	0.095071
616.4929	0.091486
616.7216	0.088575
616.9503	0.089377
617.1790	0.089440
617.4077	0.087563
617.6365	0.089651
617.8652	0.089166
618.0940	0.088217
618.3227	0.083049
618.5515	0.081404
618.7803	0.079548
619.0091	0.074317
619.2379	0.072904
619.4667	0.072567
619.6956	0.073453
619.9244	0.075456
620.1533	0.077418
620.3821	0.079717
620.6110	0.076532
620.8399	0.069593
621.0688	0.064911
621.2977	0.060608
621.5266	0.059722
621.7556	0.062106
621.9845	0.064784
622.2135	0.066408
622.4424	0.068517
622.6714	0.069445
622.9004	0.067083
623.1294	0.072715
623.3584	0.072187
623.5874	0.071006
623.8164	0.071238
624.0454	0.069361
624.2745	0.069867
624.5035	0.071407
624.7326	0.072736
624.9617	0.073179
625.1908	0.070542
625.4199	0.067231
625.6490	0.064594
625.8781	0.063476
626.1072	0.060988
626.3364	0.061895
626.5655	0.056706
626.7947	0.055715
627.0238	0.055567
627.2530	0.056769
627.4822	0.058393
627.7114	0.056790
627.9406	0.052361
628.1698	0.051665
628.3991	0.051581
628.6283	0.046477
628.8576	0.046392
629.0868	0.045422
629.3161	0.048122
629.5454	0.051349
629.7747	0.050695
630.0040	0.050421
630.2333	0.046160
630.4626	0.046392
630.6920	0.047742
630.9213	0.046582
631.1507	0.041584
631.3801	0.043165
631.6094	0.041288
631.8388	0.040592
632.0682	0.042554
632.2976	0.041436
632.5271	0.039411
632.7565	0.040297
632.9859	0.035108
633.2154	0.036058
633.4448	0.035910
633.6743	0.034370
633.9038	0.033948
634.1333	0.034666
634.3628	0.035172
634.5923	0.034876
634.8218	0.033231
635.0514	0.033674
635.2809	0.031354
635.5105	0.030257
635.7400	0.033252
635.9696	0.034328
636.1992	0.033042
636.4288	0.036986
636.6584	0.036269
636.8880	0.036901
637.1177	0.036036
637.3473	0.034434
637.5770	0.031312
637.8066	0.032472
638.0363	0.034096
638.2660	0.036100
638.4957	0.036184
638.7254	0.033716
638.9551	0.034075
639.1848	0.033189
639.4145	0.031649
639.6443	0.031008
639.8740	0.030174
640.1038	0.029418
640.3336	0.031231
640.5633	0.029161
640.7931	0.028708
641.0229	0.027846
641.2528	0.027580
641.4826	0.028199
641.7124	0.026635
641.9423	0.026572
642.1721	0.025487
642.4020	0.023443
642.6319	0.025148
642.8617	0.024347
643.0916	0.023104
643.3216	0.022126
643.5515	0.024483
643.7814	0.021754
644.0113	0.022826
644.2413	0.022381
644.4712	0.023217
644.7012	0.020686
644.9312	0.021475
645.1612	0.020631
645.3912	0.020913
645.6212	0.022044
645.8512	0.021701
646.0812	0.021168
646.3113	0.020770
646.5413	0.020487
646.7714	0.020196
647.0015	0.018208
647.2316	0.020785
647.4616	0.020903
647.6918	0.020720
647.9219	0.019958
648.1520	0.025572
648.3821	0.027739
648.6123	0.025841
648.8424	0.029519
649.0726	0.029424
649.3028	0.027483
649.5329	0.028836
649.7631	0.027349
649.9933	0.026867
650.2236	0.023496
650.4538	0.021963
650.6840	0.022459
650.9143	0.023896
651.1445	0.021867
651.3748	0.023733
651.6051	0.022701
651.8354	0.023990
652.0657	0.023995
652.2960	0.025211
652.5263	0.027671
652.7566	0.026799
652.9870	0.022604
653.2173	0.025827
653.4477	0.025295
653.6780	0.025400
653.9084	0.024914
654.1388	0.028120
654.3692	0.028493
654.5996	0.028688
654.8300	0.031981
655.0605	0.045670
655.2909	0.127520
655.5213	0.376050
655.7518	0.774392
655.9823	1.000000
656.2128	1.000000
656.4433	1.000000
656.6738	1.000000
656.9043	0.886387
657.1348	0.704354
657.3653	0.571305
657.5959	0.488999
657.8264	0.429950
658.0570	0.390396
658.2875	0.353072
658.5181	0.318447
658.7487	0.297743
658.9793	0.284702
659.2099	0.231558
659.4406	0.160153
659.6712	0.097248
659.9018	0.057323
660.1325	0.035948
660.3632	0.026473
660.5938	0.023163
660.8245	0.019087
661.0552	0.018927
661.2859	0.018571
661.5166	0.018740
661.7474	0.018869
661.9781	0.018564
662.2088	0.017986
662.4396	0.018878
662.6704	0.017366
662.9011	0.017291
663.1319	0.015850
663.3627	0.018030
663.5935	0.016684
663.8243	0.017726
664.0552	0.017872
664.2860	0.019139
664.5168	0.019233
664.7477	0.018407
664.9786	0.018233
665.2094	0.018590
665.4403	0.018640
665.6712	0.019666
665.9021	0.020620
666.1330	0.019042
666.3640	0.016816
666.5949	0.018591
666.8259	0.017578
667.0568	0.017815
667.2878	0.016240
667.5188	0.017881
667.7497	0.017584
667.9807	0.017991
668.2117	0.017294
668.4428	0.016907
668.6738	0.017160
668.9048	0.017877
669.1359	0.016105
669.3669	0.018024
669.5980	0.017307
669.8291	0.017244
670.0602	0.018657
670.2913	0.018510
670.5224	0.017982
670.7535	0.019838
670.9846	0.016696
671.2157	0.017286
671.4469	0.022116
671.6781	0.023002
671.9092	0.023508
672.1404	0.028422
672.3716	0.027073
672.6028	0.028971
672.8340	0.026946
673.0652	0.028169
673.2964	0.026356
673.5277	0.025660
673.7589	0.024710
673.9902	0.024289
674.2214	0.023782
674.4527	0.023107
674.6840	0.020492
674.9153	0.022074
675.1466	0.022011
675.3779	0.022517
675.6093	0.022137
675.8406	0.021167
676.0719	0.019902
676.3033	0.021842
676.5347	0.018552
676.7661	0.020576
676.9974	0.017223
677.2288	0.019691
677.4602	0.020724
677.6917	0.023044
677.9231	0.022369
678.1545	0.022854
678.3860	0.022643
678.6174	0.023424
678.8489	0.025512
679.0804	0.026145
679.3119	0.024816
679.5434	0.025280
679.7749	0.027052
680.0064	0.026145
680.2379	0.028950
680.4694	0.029203
680.7010	0.029013
680.9325	0.027199
681.1641	0.027916
681.3957	0.029182
681.6273	0.026841
681.8589	0.028275
682.0905	0.027115
682.3221	0.027305
682.5537	0.024225
682.7854	0.021905
683.0170	0.023867
683.2487	0.023571
683.4803	0.023150
683.7120	0.024921
683.9437	0.025069
684.1754	0.026398
684.4071	0.027452
684.6388	0.031038
684.8705	0.031312
685.1023	0.031628
685.3340	0.033316
685.5658	0.036669
685.7975	0.037112
686.0293	0.036585
686.2611	0.034982
686.4929	0.036479
686.7247	0.034539
686.9565	0.035699
687.1883	0.035024
687.4202	0.034159
687.6520	0.035108
687.8838	0.033020
688.1157	0.032324
688.3476	0.033738
688.5795	0.030743
688.8114	0.028275
689.0433	0.028718
689.2752	0.029793
689.5071	0.028338
689.7390	0.028718
689.9710	0.026798
690.2029	0.027136
690.4349	0.026609
690.6669	0.027262
690.8988	0.025744
691.1308	0.027811
691.3628	0.029519
691.5948	0.030553
691.8269	0.029836
692.0589	0.031185
692.2909	0.031523
692.5230	0.030068
692.7550	0.029878
692.9871	0.029899
693.2192	0.031354
693.4513	0.030616
693.6834	0.032620
693.9155	0.029266
694.1476	0.030532
694.3797	0.027094
694.6119	0.025681
694.8440	0.028612
695.0762	0.026503
695.3083	0.028549
695.5405	0.027916
695.7727	0.024289
696.0049	0.025217
696.2371	0.023550
696.4693	0.024331
696.7016	0.028317
696.9338	0.032303
697.1660	0.031565
697.3983	0.033695
697.6306	0.032409
697.8628	0.032788
698.0951	0.032050
698.3274	0.030447
698.5597	0.030637
698.7920	0.031354
699.0243	0.028612
699.2567	0.027178
699.4890	0.027916
699.7214	0.026798
699.9537	0.026609
700.1861	0.026039
700.4185	0.024963
700.6509	0.025491
700.8833	0.024816
701.1157	0.024099
701.3481	0.022348
701.5806	0.021568
701.8130	0.021736
702.0454	0.023867
702.2779	0.023044
702.5104	0.025554
702.7429	0.026039
702.9753	0.024795
703.2078	0.022833
703.4403	0.024710
703.6729	0.021884
703.9054	0.023150
704.1379	0.022032
704.3705	0.022032
704.6030	0.019459
704.8356	0.019290
705.0682	0.019796
705.3008	0.020344
705.5334	0.019100
705.7660	0.018446
705.9986	0.019986
706.2312	0.020323
706.4638	0.024099
706.6965	0.026166
706.9291	0.028064
707.1618	0.030194
707.3945	0.032135
707.6272	0.030342
707.8599	0.031417
708.0926	0.031291
708.3253	0.032113
708.5580	0.030004
708.7907	0.028528
709.0235	0.026229
709.2562	0.026503
709.4890	0.026145
709.7217	0.027600
709.9545	0.026398
710.1873	0.027136
710.4201	0.027705
710.6529	0.028296
710.8857	0.028380
711.1186	0.027052
711.3514	0.025322
711.5842	0.025554
711.8171	0.023086
712.0500	0.023867
712.2828	0.022897
712.5157	0.021968
712.7486	0.023719
712.9815	0.022897
713.2144	0.023403
713.4474	0.024078
713.6803	0.026271
713.9132	0.026967
714.1462	0.027305
714.3791	0.027642
714.6121	0.026651
714.8451	0.026545
715.0781	0.027705
715.3111	0.028190
715.5441	0.027621
715.7771	0.028275
716.0102	0.023719
716.2432	0.023466
716.4762	0.023571
716.7093	0.024331
716.9424	0.022897
717.1754	0.021821
717.4085	0.023550
717.6416	0.022433
717.8747	0.022306
718.1078	0.023761
718.3410	0.023297
718.5741	0.023234
718.8072	0.021821
719.0404	0.024900
719.2736	0.024563
719.5067	0.024394
719.7399	0.023192
719.9731	0.020513
720.2063	0.019902
720.4395	0.022601
720.6727	0.023171
720.9060	0.024647
721.1392	0.024310
721.3725	0.024605
721.6057	0.023255
721.8390	0.022390
722.0723	0.022875
722.3055	0.023276
722.5388	0.023150
722.7721	0.020534
723.0055	0.021589
723.2388	0.022475
723.4721	0.022454
723.7055	0.022032
723.9388	0.021589
724.1722	0.021800
724.4056	0.020344
724.6389	0.021209
724.8723	0.022116
725.1057	0.022158
725.3391	0.026967
725.5726	0.026988
725.8060	0.027115
726.0394	0.026946
726.2729	0.029161
726.5063	0.026187
726.7398	0.027494
726.9733	0.025449
727.2068	0.027684
727.4403	0.025533
727.6738	0.025238
727.9073	0.026693
728.1408	0.027220
728.3743	0.027431
728.6079	0.027874
728.8414	0.026356
729.0750	0.027621
729.3086	0.027769
729.5421	0.028401
729.7757	0.030595
730.0093	0.031059
730.2429	0.028064
730.4766	0.032345
730.7102	0.031860
730.9438	0.034602
731.1775	0.035467
731.4111	0.033295
731.6448	0.035108
731.8785	0.034602
732.1122	0.033295
732.3458	0.031987
732.5795	0.034518
732.8133	0.034708
733.0470	0.032725
733.2807	0.035720
733.5145	0.033632
733.7482	0.034834
733.9820	0.037429
734.2157	0.038652
734.4495	0.040255
734.6833	0.041478
734.9171	0.039791
735.1509	0.038525
735.3847	0.037956
735.6185	0.038167
735.8524	0.039390
736.0862	0.038504
736.3201	0.038357
736.5539	0.039432
736.7878	0.038968
737.0217	0.040466
737.2556	0.039411
737.4895	0.037893
737.7234	0.036543
737.9573	0.037365
738.1912	0.034096
738.4252	0.032324
738.6591	0.034581
738.8931	0.034855
739.1271	0.034391
739.3610	0.036395
739.5950	0.036564
739.8290	0.035298
740.0630	0.035383
740.2970	0.034265
740.5310	0.033231
740.7651	0.033506
740.9991	0.032198
741.2332	0.029140
741.4672	0.028844
741.7013	0.027916
741.9354	0.028106
742.1695	0.025491
742.4036	0.025596
742.6377	0.028697
742.8718	0.027958
743.1059	0.025596
743.3400	0.025385
743.5742	0.025217
743.8083	0.026018
744.0425	0.025174
744.2767	0.024478
744.5108	0.023550
744.7450	0.025849
744.9792	0.023487
745.2134	0.022011
745.4477	0.021715
745.6819	0.021167
745.9161	0.021504
746.1504	0.023803
746.3846	0.024457
746.6189	0.022875
746.8532	0.021715
747.0874	0.023107
747.3217	0.024774
747.5560	0.027157
747.7903	0.025976
748.0247	0.026440
748.2590	0.022243
748.4933	0.021673
748.7277	0.023550
748.9620	0.023593
749.1964	0.025491
749.4308	0.025512
749.6652	0.026904
749.8995	0.028676
750.1339	0.032430
750.3684	0.030890
750.6028	0.033105
750.8372	0.033674
751.0717	0.032261
751.3061	0.031122
751.5406	0.033274
751.7750	0.033653
752.0095	0.033358
752.2440	0.032324
752.4785	0.032852
752.7130	0.030173
752.9475	0.028844
753.1820	0.028169
753.4166	0.029372
753.6511	0.030827
753.8856	0.034370
754.1202	0.033906
754.3548	0.032324
754.5894	0.032535
754.8239	0.031924
755.0585	0.033147
755.2931	0.034391
755.5278	0.033316
755.7624	0.035783
755.9970	0.034961
756.2317	0.034729
756.4663	0.037070
756.7010	0.040508
756.9356	0.041225
757.1703	0.042912
757.4050	0.045654
757.6397	0.048459
757.8744	0.047848
758.1091	0.047932
758.3438	0.044241
758.5786	0.043376
758.8133	0.043165
759.0481	0.044768
759.2828	0.045633
759.5176	0.045823
759.7524	0.046920
759.9872	0.049451
760.2220	0.051265
760.4568	0.049598
760.6916	0.051834
760.9264	0.052003
761.1613	0.048966
761.3961	0.048480
761.6310	0.044136
761.8658	0.042701
762.1007	0.040824
762.3356	0.040719
762.5705	0.039727
762.8054	0.040023
763.0403	0.040276
763.2752	0.039770
763.5101	0.040571
763.7450	0.039432
763.9800	0.040761
764.2149	0.041077
764.4499	0.041773
764.6849	0.044789
764.9198	0.047721
765.1548	0.047616
765.3898	0.046561
765.6248	0.044684
765.8599	0.042090
766.0949	0.042364
766.3299	0.037154
766.5650	0.035636
766.8000	0.033590
767.0351	0.031987
767.2701	0.031860
767.5052	0.028528
767.7403	0.030110
767.9754	0.031755
768.2105	0.033801
768.4456	0.035994
768.6808	0.036965
768.9159	0.040613
769.1510	0.039137
769.3862	0.037302
769.6214	0.037534
769.8565	0.035446
770.0917	0.036247
770.3269	0.035446
770.5621	0.036775
770.7973	0.036627
771.0325	0.039221
771.2677	0.038736
771.5030	0.038146
771.7382	0.036880
771.9735	0.035340
772.2087	0.032788
772.4440	0.032514
772.6793	0.031544
772.9146	0.031692
773.1499	0.033716
773.3852	0.030679
773.6205	0.031987
773.8558	0.030616
774.0911	0.029857
774.3265	0.026166
774.5618	0.025069
774.7972	0.025048
775.0326	0.024584
775.2679	0.025406
775.5033	0.023571
775.7387	0.022369
775.9741	0.022032
776.2095	0.022137
776.4450	0.022074
776.6804	0.020787
776.9158	0.019923
777.1513	0.019944
777.3868	0.018510
777.6222	0.018657
777.8577	0.018467
778.0932	0.019079
778.3287	0.020893
778.5642	0.023571
778.7997	0.020598
779.0352	0.026566
779.2707	0.024753
779.5063	0.025681
779.7418	0.025027
779.9774	0.025069
780.2130	0.024141
780.4485	0.023276
780.6841	0.021336
780.9197	0.024858
781.1553	0.025976
781.3909	0.028380
781.6265	0.027980
781.8622	0.028106
782.0978	0.027220
782.3335	0.028633
782.5691	0.027748
782.8048	0.028001
783.0405	0.026735
783.2761	0.025259
783.5118	0.027431
783.7475	0.028233
783.9832	0.027937
784.2190	0.025238
784.4547	0.023192
784.6904	0.022011
784.9262	0.023276
785.1619	0.022411
785.3977	0.022179
785.6335	0.023972
785.8692	0.023698
786.1050	0.023550
786.3408	0.024120
786.5766	0.023424
786.8124	0.020745
787.0483	0.021315
787.2841	0.021779
787.5199	0.022306
787.7558	0.022960
787.9917	0.022728
788.2275	0.024963
788.4634	0.023867
788.6993	0.024267
788.9352	0.027009
789.1711	0.024837
789.4070	0.023171
789.6429	0.022622
789.8789	0.022918
790.1148	0.020893
790.3507	0.021758
790.5867	0.020429
790.8227	0.019670
791.0586	0.018552
791.2946	0.020408
791.5306	0.019670
791.7666	0.019648
792.0026	0.017877
792.2387	0.016780
792.4747	0.017202
792.7107	0.018552
792.9468	0.018573
793.1828	0.017455
793.4189	0.016885
793.6550	0.018594
793.8910	0.020218
794.1271	0.024099
794.3632	0.027389
794.5993	0.026566
794.8355	0.026419
795.0716	0.025512
795.3077	0.025427
795.5439	0.026229
795.7800	0.024879
796.0162	0.021188
796.2523	0.021272
796.4885	0.019163
796.7247	0.018151
796.9609	0.016253
797.1971	0.017497
797.4333	0.018868
797.6695	0.018784
797.9058	0.019100
798.1420	0.017265
798.3783	0.017792
798.6145	0.018277
798.8508	0.019100
799.0871	0.018510
799.3233	0.017181
799.5596	0.018172
799.7959	0.016970
800.0322	0.017054
800.2686	0.017033
800.5049	0.015409
800.7412	0.015493
800.9776	0.014966
801.2139	0.015768
801.4503	0.016569
801.6867	0.015831
801.9230	0.013637
802.1594	0.012752
802.3958	0.013194
802.6322	0.012309
802.8686	0.014818
803.1051	0.014502
803.3415	0.014755
803.5779	0.014228
803.8144	0.014565
804.0508	0.015536
804.2873	0.012667
804.5238	0.012815
804.7603	0.014101
804.9968	0.013827
805.2333	0.013785
805.4698	0.014439
805.7063	0.015936
805.9428	0.016105
806.1794	0.016822
806.4159	0.020534
806.6525	0.019880
806.8890	0.018678
807.1256	0.017982
807.3622	0.020049
807.5988	0.018552
807.8354	0.017877
808.0720	0.019016
808.3086	0.018931
808.5452	0.015936
808.7818	0.017961
809.0185	0.018130
809.2551	0.016337
809.4918	0.016801
809.7284	0.017687
809.9651	0.016696
810.2018	0.016885
810.4385	0.014165
810.6752	0.017497
810.9119	0.015957
811.1486	0.017729
811.3853	0.016021
811.6221	0.014376
811.8588	0.013047
812.0956	0.012224
812.3323	0.011824
812.5691	0.013068
812.8059	0.010917
813.0427	0.012288
813.2795	0.011106
813.5163	0.014586
813.7531	0.013490
813.9899	0.013131
814.2267	0.016885
814.4636	0.013743
814.7004	0.015156
814.9373	0.014565
815.1742	0.013658
815.4110	0.012583
815.6479	0.012730
815.8848	0.010938
816.1217	0.010031
816.3586	0.010769
816.5955	0.012878
816.8324	0.012752
817.0694	0.013216
817.3063	0.010748
817.5433	0.010895
817.7802	0.011338
818.0172	0.012583
818.2542	0.010284
818.4912	0.010347
818.7282	0.010221
818.9652	0.010115
819.2022	0.010136
819.4392	0.011064
819.6762	0.010010
819.9133	0.010368
820.1503	0.009820
820.3874	0.011570
820.6244	0.011381
820.8615	0.014249
821.0986	0.014101
821.3357	0.011317
821.5727	0.013426
821.8099	0.011739
822.0470	0.010832
822.2841	0.011106
822.5212	0.010242
822.7584	0.011106
822.9955	0.010094
823.2327	0.009546
823.4698	0.009166
823.7070	0.008639
823.9442	0.010052
824.1814	0.007436
824.4186	0.011592
824.6558	0.008786
824.8930	0.009525
825.1302	0.009503
825.3675	0.010474
825.6047	0.008976
825.8419	0.011676
826.0792	0.009820
826.3165	0.008196
826.5537	0.011676
826.7910	0.008850
827.0283	0.011697
827.2656	0.012435
827.5029	0.010305
827.7402	0.010558
827.9776	0.009862
828.2149	0.010263
828.4522	0.010031
828.6896	0.008512
828.9270	0.008533
829.1643	0.011064
829.4017	0.010853
829.6391	0.009609
829.8765	0.011064
830.1139	0.010052
830.3513	0.008786
830.5887	0.009208
830.8261	0.007943
831.0636	0.006635
831.3010	0.006825
831.5385	0.006319
831.7759	0.007331
832.0134	0.006867
832.2509	0.005960
832.4884	0.006677
832.7259	0.007711
832.9634	0.007584
833.2009	0.006888
833.4384	0.006445
833.6759	0.007943
833.9135	0.007964
834.1510	0.008765
834.3886	0.007922
834.6261	0.007415
834.8637	0.008807
835.1013	0.008491
835.3389	0.007247
835.5765	0.009103
835.8141	0.007858
836.0517	0.007183
836.2893	0.007732
836.5269	0.007816
836.7646	0.008597
837.0022	0.005665
837.2399	0.007162
837.4775	0.006213
837.7152	0.006487
837.9529	0.005454
838.1906	0.006192
838.4283	0.005138
838.6660	0.003281
838.9037	0.004927
839.1414	0.004210
839.3791	0.006002
839.6169	0.005306
839.8546	0.006909
840.0924	0.005623
840.3302	0.005348
840.5679	0.005728
840.8057	0.006888
841.0435	0.006825
841.2813	0.006192
841.5191	0.007162
841.7569	0.004821
841.9947	0.004568
842.2326	0.006171
842.4704	0.003830
842.7082	0.004526
842.9461	0.004020
843.1840	0.005074
843.4218	0.002902
843.6597	0.004674
843.8976	0.003197
844.1355	0.004863
844.3734	0.004294
844.6113	0.004273
844.8492	0.004188
845.0872	0.003914
845.3251	0.004695
845.5631	0.004948
845.8010	0.006066
846.0390	0.005306
846.2770	0.004125
846.5149	0.004357
846.7529	0.003661
846.9909	0.004294
847.2289	0.003281
847.4669	0.004948
847.7050	0.004315
847.9430	0.004484
848.1810	0.004568
848.4191	0.004800
848.6571	0.003956
848.8952	0.005580
849.1333	0.004652
849.3713	0.003366
849.6094	0.002944
849.8475	0.004041
850.0856	0.004294
850.3237	0.004674
850.5619	0.001805
850.8000	0.004294
851.0381	0.004062
851.2763	0.004083
851.5144	0.003176
851.7526	0.003471
851.9908	0.004231
852.2289	0.005222
852.4671	0.006108
852.7053	0.006909
852.9435	0.009293
853.1817	0.010031
853.4200	0.011676
853.6582	0.012013
853.8964	0.010769
854.1347	0.011634
854.3729	0.010094
854.6112	0.012245
854.8495	0.011022
855.0877	0.010221
855.3260	0.010368
855.5643	0.008723
855.8026	0.009356
856.0409	0.010199
856.2792	0.009588
856.5176	0.010621
856.7559	0.009883
856.9942	0.010284
857.2326	0.008997
857.4710	0.009588
857.7093	0.007837
857.9477	0.009145
858.1861	0.009377
858.4245	0.006319
858.6629	0.008491
858.9013	0.008111
859.1397	0.006972
859.3781	0.006129
859.6166	0.007162
859.8550	0.007183
860.0935	0.005918
860.3319	0.006192
860.5704	0.007226
860.8089	0.006255
861.0473	0.005306
861.2858	0.004568
861.5243	0.006171
861.7628	0.004674
862.0013	0.005412
862.2399	0.006276
862.4784	0.004927
862.7169	0.005201
862.9555	0.003049
863.1940	0.005327
863.4326	0.006023
863.6712	0.006909
863.9098	0.006635
864.1483	0.005032
864.3869	0.006466
864.6255	0.004969
864.8642	0.005327
865.1028	0.004442
865.3414	0.004610
865.5800	0.004927
865.8187	0.004695
866.0573	0.004020
866.2960	0.004062
866.5347	0.002817
866.7733	0.003303
867.0120	0.004378
867.2507	0.005728
867.4894	0.003809
867.7281	0.004357
867.9669	0.005876
868.2056	0.005412
868.4443	0.004167
868.6831	0.003956
868.9218	0.003366
869.1606	0.004231
869.3993	0.004210
869.6381	0.003492
869.8769	0.004252
870.1157	0.003935
870.3545	0.003345
870.5933	0.004357
870.8321	0.005159
871.0709	0.004758
871.3097	0.005812
871.5486	0.004231
871.7874	0.004842
872.0263	0.005159
872.2651	0.004442
872.5040	0.002649
872.7429	0.001889
872.9818	0.002375
873.2207	0.005264
873.4596	0.002775
873.6985	0.003556
873.9374	0.003745
874.1763	0.004526
874.4153	0.006361
874.6542	0.005749
874.8932	0.003977
875.1321	0.003071
875.3711	0.006087
875.6101	0.004378
875.8491	0.004463
876.0880	0.005391
876.3270	0.004484
876.5661	0.003281
876.8051	0.005095
877.0441	0.005159
877.2831	0.005116
877.5222	0.003767
877.7612	0.005011
878.0003	0.005306
878.2393	0.005095
878.4784	0.006593
878.7175	0.005707
878.9566	0.005770
879.1957	0.006234
879.4348	0.006994
879.6739	0.006635
879.9130	0.005011
880.1521	0.007415
880.3913	0.005138
880.6304	0.006677
880.8696	0.008133
881.1087	0.006508
881.3479	0.005327
881.5871	0.004716
881.8262	0.005918
882.0654	0.005665
882.3046	0.004842
882.5438	0.006044
882.7831	0.004631
883.0223	0.004842
883.2615	0.005602
883.5007	0.005644
883.7400	0.004674
883.9792	0.006424
884.2185	0.004969
884.4578	0.004357
884.6971	0.003935
884.9363	0.006508
885.1756	0.004420
885.4149	0.006087
885.6542	0.006087
885.8936	0.005053
886.1329	0.007247
886.3722	0.005749
886.6116	0.005538
886.8509	0.005180
887.0903	0.004210
887.3296	0.004927
887.5690	0.003556
887.8084	0.004716
888.0478	0.003788
888.2872	0.003745
888.5266	0.004990
888.7660	0.004505
889.0054	0.004062
889.2448	0.004420
889.4843	0.003028
889.7237	0.003724
889.9632	0.005095
890.2026	0.002754
890.4421	0.002353
890.6816	0.003977
890.9211	0.004631
891.1606	0.003028
891.4001	0.003767
891.6396	0.004104
891.8791	0.003535
892.1186	0.004969
892.3581	0.002501
892.5977	0.003977
892.8372	0.003999
893.0768	0.004210
893.3163	0.003703
893.5559	0.002543
893.7955	0.003640
894.0351	0.004674
894.2747	0.003872
894.5143	0.002037
894.7539	0.002944
894.9935	0.002564
895.2331	0.002923
895.4727	0.002375
895.7124	0.003788
895.9520	0.006129
896.1917	0.002923
896.4314	0.003767
896.6710	0.002691
896.9107	0.003218
897.1504	0.003745
897.3901	0.004821
897.6298	0.004294
897.8695	0.004906
898.1092	0.004568
898.3489	0.003893
898.5887	0.003408
898.8284	0.003851
899.0682	0.003914
899.3079	0.004484
899.5477	0.004041
899.7875	0.003999
900.0272	0.003134
900.2670	0.003450
900.5068	0.003977
900.7466	0.004104
900.9864	0.003830
901.2263	0.004231
901.4661	0.003535
901.7059	0.002438
901.9458	0.003387
902.1856	0.003745
902.4255	0.003092
902.6654	0.003492
902.9052	0.003387
903.1451	0.003176
903.3850	0.003745
903.6249	0.004062
903.8648	0.002269
904.1047	0.004083
904.3446	0.004547
904.5846	0.004125
904.8245	0.003324
905.0644	0.003366
905.3044	0.003893
905.5444	0.003007
905.7843	0.005391
906.0243	0.004294
906.2643	0.004210
906.5043	0.005032
906.7443	0.003598
906.9843	0.004927
907.2243	0.002965
907.4643	0.004399
907.7043	0.003682
907.9444	0.002670
908.1844	0.004315
908.4245	0.002269
908.6645	0.003155
908.9046	0.002986
909.1447	0.003935
909.3847	0.004273
909.6248	0.002649
909.8649	0.003366
910.1050	0.003218
910.3452	0.002607
910.5853	0.003556
910.8254	0.002459
911.0655	0.002206
911.3057	0.002585
911.5458	0.003999
911.7860	0.002522
912.0262	0.002775
912.2663	0.002712
912.5065	0.003028
912.7467	0.004716
912.9869	0.001172
913.2271	0.004231
913.4673	0.001657
913.7075	0.003535
913.9478	0.003134
914.1880	0.003155
914.4283	0.002649
914.6685	0.001489
914.9088	0.003661
915.1490	0.004231
915.3893	0.002417
915.6296	0.003429
915.8699	0.003703
916.1102	0.003218
916.3505	0.001657
916.5908	0.003661
916.8311	0.001573
917.0714	0.002754
917.3118	0.003324
917.5521	0.003429
917.7925	0.002607
918.0328	0.004125
918.2732	0.002860
918.5136	0.005011
918.7539	0.002543
918.9943	0.004231
919.2347	0.001805
919.4751	0.001784
919.7155	0.002396
919.9560	0.003492
920.1964	0.002459
920.4368	0.003345
920.6773	0.002733
920.9177	0.002607
921.1582	0.002564
921.3986	0.002733
921.6391	0.002480
921.8796	0.003408
922.1201	0.003028
922.3606	0.002100
922.6011	0.003492
922.8416	0.002311
923.0821	0.001383
923.3226	0.002628
923.5631	0.001700
923.8037	0.001911
924.0442	0.002375
924.2848	0.002079
924.5254	0.002121
924.7659	0.002100
925.0065	0.002796
925.2471	0.001447
925.4877	0.002522
925.7283	0.003408
925.9689	0.001573
926.2095	0.002944
926.4501	0.001847
926.6908	0.003071
926.9314	0.001299
927.1720	0.001172
927.4127	0.002164
927.6533	0.001911
927.8940	0.000898
928.1347	0.002965
928.3754	0.001320
928.6161	0.003071
928.8568	0.003281
929.0975	0.001193
929.3382	0.000814
929.5789	0.002965
929.8196	0.002121
930.0604	0.000983
930.3011	0.002143
930.5419	0.002775
930.7826	0.000582
931.0234	0.001742
931.2642	0.000835
931.5049	0.001742
931.7457	0.002585
931.9865	0.002396
932.2273	0.001679
932.4681	0.001889
932.7089	0.001531
932.9498	0.002396
933.1906	0.001615
933.4314	0.002206
933.6723	0.001911
933.9131	0.003324
934.1540	0.001299
934.3949	0.001784
934.6358	0.002375
934.8766	0.002881
935.1175	0.002817
935.3584	0.002100
935.5993	0.001953
935.8403	0.001594
936.0812	0.002037
936.3221	0.002522
936.5630	0.000793
936.8040	0.001278
937.0449	0.000856
937.2859	0.002585
937.5269	0.000160
937.7678	0.001889
938.0088	0.001130
938.2498	0.000772
938.4908	0.001215
938.7318	0.001257
938.9728	0.001299
939.2138	0.001236
939.4549	0.000940
939.6959	0.002353
939.9369	0.001088
940.1780	0.002965
940.4190	0.000076
940.6601	0.001236
940.9012	0.001468
941.1422	0.000097
941.3833	0.001404
941.6244	0.001425
941.8655	0.002037
942.1066	0.001046
942.3477	0.001594
942.5889	0.001362
942.8300	0.001805
943.0711	0.000455
943.3123	0.000076
943.5534	-0.000304
943.7946	0.002480
944.0357	0.002923
944.2769	0.002079
944.5181	0.001847
944.7593	0.002269
945.0005	0.001278
945.2417	0.002164
945.4829	0.001995
945.7241	0.000814
945.9653	-0.000072
946.2066	0.000265
946.4478	0.000181
946.6891	0.001257
946.9303	0.001700
947.1716	0.001889
947.4128	0.000603
947.6541	-0.000030
947.8954	-0.000135
948.1367	0.001341
948.3780	0.001130
948.6193	0.002691
948.8606	0.002670
949.1019	0.003809
949.3433	0.000371
949.5846	0.000540
949.8259	-0.000473
950.0673	0.000708
950.3086	-0.000431
950.5500	0.002164
950.7914	0.000434
951.0327	0.001447
951.2741	0.001763
951.5155	0.001299
951.7569	0.000118
951.9983	0.002396
952.2398	0.001215
952.4812	0.001615
952.7226	0.002459
952.9640	0.000624
953.2055	0.001657
953.4469	0.000476
953.6884	0.001172
953.9299	0.001425
954.1713	0.000540
954.4128	0.001594
954.6543	0.001341
954.8958	0.001447
955.1373	0.001362
955.3788	0.002396
955.6203	0.001320
955.8618	-0.000473
956.1034	0.001172
956.3449	0.000666
956.5865	-0.000473
956.8280	0.001109
957.0696	-0.000220
957.3111	0.000940
957.5527	0.001362
957.7943	0.001025
958.0359	0.001172
958.2775	0.001088
958.5191	0.000518
958.7607	0.001172
959.0023	0.000139
959.2439	0.001257
959.4856	0.000708
959.7272	0.001215
959.9688	0.002585
960.2105	0.000139
960.4522	0.001531
960.6938	0.000919
960.9355	0.000772
961.1772	0.000835
961.4189	0.000329
961.6606	0.000561
961.9023	0.001636
962.1440	0.000919
962.3857	0.000434
962.6274	0.000751
962.8692	0.001025
963.1109	0.000244
963.3527	0.001236
963.5944	0.000835
963.8362	0.000856
964.0779	0.000308
964.3197	0.001130
964.5615	0.000877
964.8033	0.001826
965.0451	0.000434
965.2869	0.000624
965.5287	0.001004
965.7705	0.001172
966.0123	0.000308
966.2542	-0.000220
966.4960	0.000898
966.7379	0.001046
966.9797	0.000835
967.2216	-0.000009
967.4634	0.001679
967.7053	0.000772
967.9472	0.000329
968.1891	0.000582
968.4310	0.000097
968.6729	0.000772
968.9148	0.000434
969.1567	0.000793
969.3987	0.001594
969.6406	0.000814
969.8825	0.001425
970.1245	0.000687
970.3664	0.000898
970.6084	-0.000346
970.8504	0.000054
971.0923	0.000603
971.3343	0.001383
971.5763	0.000983
971.8183	0.000497
972.0603	0.000877
972.3023	-0.000199
972.5443	0.000244
972.7864	0.000814
973.0284	-0.000705
973.2704	0.001362
973.5125	-0.001274
973.7545	0.001932
973.9966	-0.000431
974.2387	0.001383
974.4807	0.000033
974.7228	0.000223
974.9649	-0.000831
975.2070	0.001510
975.4491	0.000919
975.6912	0.000033
975.9333	0.000139
976.1755	0.000497
976.4176	0.001468
976.6597	-0.000114
976.9019	0.000329
977.1440	0.000076
977.3862	0.000603
977.6283	0.001868
977.8705	0.001679
978.1127	0.000497
978.3549	-0.000367
978.5971	0.000835
978.8393	0.001257
979.0815	-0.000410
979.3237	0.000054
979.5659	0.000223
979.8082	0.000540
980.0504	0.001046
980.2926	-0.001084
980.5349	0.001489
980.7771	0.000603
981.0194	0.001257
981.2617	0.001193
981.5040	0.000118
981.7462	0.000202
981.9885	-0.000494
982.2308	0.000624
982.4731	0.000497
982.7155	-0.002244
982.9578	0.000666
983.2001	0.000223
983.4424	0.000666
983.6848	0.000835
983.9271	0.001299
984.1695	0.001721
984.4118	-0.000304
984.6542	-0.000620
984.8966	0.000856
985.1390	0.000835
985.3814	0.001004
985.6238	0.000772
985.8662	0.000329
986.1086	0.001004
986.3510	0.001742
986.5934	0.000814
986.8358	0.001974
987.0783	-0.000346
987.3207	0.000624
987.5632	0.000329
987.8056	0.001257
988.0481	0.000497
988.2906	0.000076
988.5331	0.000666
988.7756	0.001088
989.0180	0.001004
989.2605	0.001088
989.5031	0.000751
989.7456	-0.000452
989.9881	-0.000705
990.2306	0.001193
990.4732	-0.001042
990.7157	-0.000178
990.9582	-0.001211
991.2008	0.000097
991.4434	0.000223
991.6859	0.000645
991.9285	0.002037
992.1711	0.000392
992.4137	0.000371
992.6563	0.001067
992.8989	0.000877
993.1415	-0.000726
993.3841	0.000940
993.6267	-0.000388
993.8694	0.000286
994.1120	0.001278
994.3547	-0.000241
994.5973	0.001004
994.8400	-0.000916
995.0826	0.000054
995.3253	0.001615
995.5680	0.000308
995.8107	-0.000135
996.0534	0.000308
996.2961	-0.001000
996.5388	0.001447
996.7815	0.001236
997.0242	0.000877
997.2670	0.001510
997.5097	0.000181
997.7524	-0.000536
997.9952	0.001109
998.2379	0.000350
998.4807	-0.000241
998.7235	-0.000114
998.9662	0.001067
999.2090	-0.000726
999.4518	-0.000220
999.6946	0.000772
999.9374	-0.000009
1000.1802	0.000645
1000.4230	-0.000473
1000.6659	0.001215
1000.9087	0.000940
1001.1515	0.000118
1001.3944	-0.000093
1001.6372	-0.000009
1001.8801	-0.000937
1002.1230	-0.000367
1002.3658	0.001447
1002.6087	0.000033
1002.8516	0.000012
1003.0945	0.000518
1003.3374	0.001700
1003.5803	0.000582
1003.8232	-0.000852
1004.0661	-0.000536
1004.3091	0.000286
1004.5520	0.000708
1004.7949	-0.000578
1005.0379	0.001299
1005.2808	0.000308
1005.5238	0.000076
1005.7667	0.000476
1006.0097	0.000666
1006.2527	0.001383
1006.4957	0.001109
1006.7387	-0.000304
1006.9817	-0.000072
1007.2247	0.000603
1007.4677	0.000455
1007.7107	0.000434
1007.9538	0.001742
1008.1968	0.001109
1008.4398	-0.000262
1008.6829	0.001784
1008.9259	0.001468
1009.1690	-0.000262
1009.4121	-0.000051
1009.6551	0.001025
1009.8982	-0.000030
1010.1413	-0.000220
1010.3844	0.001067
1010.6275	0.000814
1010.8706	0.001278
1011.1137	-0.000072
1011.3568	0.000160
1011.6000	-0.000199
1011.8431	0.000392
1012.0863	0.000097
1012.3294	-0.000642
1012.5726	0.000244
1012.8157	0.000181
1013.0589	-0.001106
1013.3021	0.000202
1013.5452	-0.000642
1013.7884	0.000561
1014.0316	0.000624
1014.2748	-0.000135
1014.5180	0.001278
1014.7613	0.001088
1015.0045	0.000223
1015.2477	0.000729
1015.4909	-0.000684
1015.7342	0.001404
1015.9774	0.000603
1016.2207	0.000033
1016.4640	-0.000852
1016.7072	0.000729
1016.9505	-0.000726
1017.1938	0.001362
1017.4371	-0.001190
1017.6804	0.000476
1017.9237	0.000139
1018.1670	-0.000536
1018.4103	-0.000874
1018.6536	0.001025
1018.8969	0.000308
1019.1403	0.000054
1019.3836	-0.000705
1019.6270	0.001974
1019.8703	-0.000199
1020.1137	0.001109
1020.3571	-0.000747
1020.6004	-0.000515
1020.8438	0.001995
1021.0872	0.001320
1021.3306	-0.000452
1021.5740	0.000624
1021.8174	0.000097
1022.0608	0.001151
1022.3042	-0.001422
1022.5477	-0.000831
1022.7911	-0.000768
1023.0345	-0.000262
