# Wavelength (nm)	Intensity (a.u.)
197.7802	0.001790
197.9842	0.000989
198.1882	0.000420
198.3922	0.000842
198.5963	0.001938
198.8003	-0.000086
199.0044	0.001537
199.2085	0.000989
199.4126	0.002402
199.6168	0.000378
199.8209	0.000842
200.0251	-0.000445
200.2292	0.001432
200.4334	0.001137
200.6376	0.000314
200.8418	0.001348
201.0461	0.002064
201.2503	0.001095
201.4546	0.000378
201.6589	0.001811
201.8631	0.001474
202.0674	0.000040
202.2718	0.001263
202.4761	0.000673
202.6805	-0.000023
202.8848	0.001938
203.0892	0.000209
203.2936	0.000799
203.4980	-0.000255
203.7024	0.000378
203.9069	0.000968
204.1113	0.000799
204.3158	0.001326
204.5203	-0.000613
204.7248	0.001010
204.9293	-0.000107
205.1338	0.001727
205.3384	0.001137
205.5430	0.001137
205.7475	0.000694
205.9521	0.000757
206.1567	0.000546
206.3614	-0.000213
206.5660	0.000820
206.7706	0.000968
206.9753	0.001537
207.1800	0.000715
207.3847	0.000441
207.5894	-0.000887
207.7941	0.000989
207.9989	-0.000234
208.2036	0.001727
208.4084	0.000546
208.6132	0.000546
208.8180	-0.000149
209.0228	0.001179
209.2276	0.000673
209.4325	0.000462
209.6373	0.001411
209.8422	0.001390
210.0471	0.001516
210.2520	0.001558
210.4569	0.001052
210.6618	0.002107
210.8668	0.002064
211.0718	0.000631
211.2767	0.000884
211.4817	-0.000845
211.6867	0.000462
211.8918	-0.000297
212.0968	0.001369
212.3018	0.001390
212.5069	0.000842
212.7120	0.001010
212.9171	0.001179
213.1222	0.001158
213.3273	0.000104
213.5325	0.000546
213.7376	0.001263
213.9428	-0.000276
214.1480	0.000884
214.3532	-0.000866
214.5584	0.001221
214.7636	0.000546
214.9689	0.000525
215.1741	0.001179
215.3794	0.001095
215.5847	0.001432
215.7900	0.000146
215.9953	0.000420
216.2007	0.001116
216.4060	0.000083
216.6114	0.001664
216.8168	0.001326
217.0222	0.001769
217.2276	0.001073
217.4330	0.001158
217.6384	-0.000487
217.8439	0.000504
218.0494	0.000230
218.2548	0.000778
218.4603	-0.000044
218.6659	0.001348
218.8714	0.000314
219.0769	0.000441
219.2825	0.001031
219.4881	0.000336
219.6936	-0.000508
219.8992	-0.000445
220.1049	0.000483
220.3105	0.000884
220.5161	-0.000318
220.7218	0.001601
220.9275	0.000968
221.1332	0.001305
221.3389	0.000104
221.5446	-0.000002
221.7503	0.000251
221.9561	0.000188
222.1618	0.000019
222.3676	0.000019
222.5734	0.000525
222.7792	0.001221
222.9850	0.001811
223.1909	0.001537
223.3967	0.001010
223.6026	0.001453
223.8085	0.000188
224.0144	0.001221
224.2203	0.000926
224.4262	0.000652
224.6322	0.001411
224.8381	-0.000487
225.0441	0.000652
225.2501	0.000420
225.4561	0.000399
225.6621	0.000757
225.8681	0.001348
226.0742	0.000652
226.2802	0.001263
226.4863	0.001579
226.6924	0.000968
226.8985	0.001811
227.1046	-0.000634
227.3107	0.000104
227.5169	0.000631
227.7230	0.000251
227.9292	0.000251
228.1354	0.000652
228.3416	-0.000107
228.5478	-0.000065
228.7541	0.000483
228.9603	0.001390
229.1666	0.000378
229.3729	0.000019
229.5791	0.000104
229.7855	0.000884
229.9918	-0.000634
230.1981	0.000251
230.4045	0.001495
230.6108	0.002128
230.8172	0.000905
231.0236	0.000715
231.2300	-0.000086
231.4364	0.000968
231.6429	-0.000908
231.8493	0.000947
232.0558	0.000293
232.2623	0.001263
232.4688	0.002402
232.6753	0.001832
232.8818	0.001432
233.0884	0.000989
233.2949	0.000631
233.5015	0.000378
233.7081	0.001010
233.9147	0.001305
234.1213	0.001095
234.3279	0.000293
234.5346	0.001052
234.7413	0.001179
234.9479	0.001411
235.1546	0.002486
235.3613	0.000736
235.5680	0.001116
235.7748	0.001727
235.9815	0.000652
236.1883	0.000251
236.3951	0.000251
236.6018	0.000104
236.8087	0.001221
237.0155	-0.000044
237.2223	0.000230
237.4292	-0.000550
237.6360	0.002001
237.8429	0.001179
238.0498	0.001474
238.2567	0.001221
238.4636	-0.000023
238.6706	0.000589
238.8775	0.002823
239.0845	0.000146
239.2915	0.002402
239.4985	0.000125
239.7055	-0.000107
239.9125	0.000483
240.1195	0.002254
240.3266	0.000420
240.5337	0.001242
240.7407	0.000715
240.9478	0.001832
241.1549	0.001558
241.3621	0.001263
241.5692	0.001622
241.7764	0.000736
241.9835	0.000610
242.1907	0.000610
242.3979	0.001411
242.6051	0.000799
242.8124	-0.000318
243.0196	0.000230
243.2269	0.001052
243.4341	0.001622
243.6414	0.000125
243.8487	0.001221
244.0560	0.000610
244.2634	-0.000213
244.4707	0.000462
244.6781	0.000926
244.8854	0.001263
245.0928	0.000167
245.3002	0.002254
245.5076	0.000546
245.7151	0.000968
245.9225	0.000525
246.1300	0.001052
246.3375	0.001073
246.5449	-0.000276
246.7524	0.000736
246.9600	0.001263
247.1675	0.000884
247.3750	0.000884
247.5826	0.001052
247.7902	0.001116
247.9978	0.000357
248.2054	0.000061
248.4130	0.001116
248.6206	0.000251
248.8283	0.000884
249.0359	0.002022
249.2436	0.001706
249.4513	0.001474
249.6590	0.001010
249.8667	0.000525
250.0745	-0.000170
250.2822	0.000378
250.4900	0.001137
250.6978	0.000462
250.9056	-0.000887
251.1134	0.000525
251.3212	0.001601
251.5290	0.000884
251.7369	0.000483
251.9447	0.001158
252.1526	0.001769
252.3605	0.002107
252.5684	0.000884
252.7763	0.001242
252.9843	0.001095
253.1922	0.001073
253.4002	0.002423
253.6082	0.000293
253.8162	0.000272
254.0242	0.000230
254.2322	0.001917
254.4402	-0.000529
254.6483	0.001179
254.8564	0.000652
255.0644	0.000842
255.2725	-0.000149
255.4806	0.002296
255.6888	0.001200
255.8969	0.001685
256.1051	0.001179
256.3132	-0.000192
256.5214	0.000989
256.7296	0.000884
256.9378	-0.000339
257.1460	-0.000192
257.3543	0.000842
257.5625	0.000589
257.7708	0.001284
257.9791	0.001917
258.1874	0.000863
258.3957	0.001052
258.6040	0.001453
258.8124	0.000799
259.0207	0.000209
259.2291	0.000378
259.4375	0.000926
259.6459	0.000989
259.8543	0.000905
260.0627	0.000441
260.2711	0.000842
260.4796	0.001390
260.6881	0.000863
260.8965	0.000778
261.1050	-0.000086
261.3135	0.001643
261.5221	0.001305
261.7306	0.002254
261.9392	0.001685
262.1477	0.000968
262.3563	-0.000360
262.5649	0.000989
262.7735	0.001896
262.9822	0.001095
263.1908	0.000736
263.3995	0.001664
263.6081	0.000188
263.8168	0.001832
264.0255	0.000842
264.2342	0.002507
264.4429	-0.000676
264.6517	0.001832
264.8604	0.001369
265.0692	0.001474
265.2780	0.000968
265.4868	0.002317
265.6956	0.001369
265.9044	0.001579
266.1133	0.001263
266.3221	0.001242
266.5310	-0.000192
266.7399	0.001095
266.9488	0.000567
267.1577	0.001263
267.3666	-0.001035
267.5755	0.001179
267.7845	0.001200
267.9935	0.000736
268.2024	0.000610
268.4114	0.001432
268.6205	0.000272
268.8295	0.000125
269.0385	0.000736
269.2476	0.000884
269.4566	0.000420
269.6657	0.001432
269.8748	-0.000128
270.0839	0.000125
270.2931	0.000652
270.5022	0.001896
270.7114	0.000293
270.9205	0.002128
271.1297	0.000968
271.3389	0.001664
271.5481	0.000504
271.7573	0.000631
271.9666	0.002022
272.1758	-0.000192
272.3851	0.000462
272.5944	0.001917
272.8037	0.000357
273.0130	0.001242
273.2223	-0.000529
273.4316	0.001242
273.6410	0.000040
273.8504	0.000947
274.0597	0.001959
274.2691	0.001917
274.4785	0.001116
274.6880	0.001326
274.8974	0.001179
275.1069	0.002170
275.3163	0.000778
275.5258	0.000441
275.7353	0.000272
275.9448	0.000525
276.1543	0.000968
276.3639	0.000040
276.5734	0.000441
276.7830	0.001305
276.9926	0.000842
277.2022	0.001432
277.4118	0.001832
277.6214	0.001284
277.8310	-0.000044
278.0407	-0.000571
278.2503	0.000863
278.4600	0.001706
278.6697	0.001221
278.8794	0.000631
279.0891	0.000820
279.2989	0.001095
279.5086	-0.000149
279.7184	0.000546
279.9281	0.000525
280.1379	-0.000023
280.3477	0.000736
280.5576	0.001811
280.7674	-0.000107
280.9772	0.001854
281.1871	0.000357
281.3970	0.000209
281.6069	-0.000613
281.8168	0.001495
282.0267	0.000441
282.2366	-0.000128
282.4466	0.000947
282.6565	0.000884
282.8665	0.001558
283.0765	0.000083
283.2865	0.001537
283.4965	0.001179
283.7065	-0.000255
283.9166	0.001179
284.1266	0.000631
284.3367	0.002887
284.5468	-0.000086
284.7569	0.000926
284.9670	-0.000044
285.1771	0.001854
285.3873	0.000673
285.5974	0.000673
285.8076	-0.001225
286.0178	0.001769
286.2280	0.000293
286.4382	0.001073
286.6484	0.000019
286.8587	0.001305
287.0689	0.001095
287.2792	-0.000698
287.4895	0.000209
287.6998	0.000631
287.9101	0.000230
288.1204	0.000778
288.3308	0.001516
288.5411	0.001200
288.7515	0.001263
288.9619	0.000589
289.1723	0.003076
289.3827	0.001010
289.5931	-0.000592
289.8035	-0.000192
290.0140	0.000989
290.2245	0.001811
290.4349	0.000926
290.6454	0.001158
290.8559	0.001242
291.0665	0.000905
291.2770	0.000757
291.4875	0.000989
291.6981	0.000652
291.9087	0.000420
292.1193	0.000652
292.3299	0.000546
292.5405	0.000757
292.7511	0.000947
292.9618	0.002149
293.1724	0.001896
293.3831	0.000209
293.5938	0.000525
293.8045	0.000799
294.0152	0.001579
294.2260	0.000399
294.4367	0.001263
294.6475	0.000019
294.8582	0.001622
295.0690	-0.000592
295.2798	0.001790
295.4906	0.000694
295.7015	0.000652
295.9123	0.000589
296.1232	0.000736
296.3340	0.001073
296.5449	0.000019
296.7558	0.001622
296.9667	0.001095
297.1777	0.000525
297.3886	0.000652
297.5995	0.000631
297.8105	-0.000149
298.0215	0.000399
298.2325	0.001727
298.4435	0.000567
298.6545	0.000863
298.8656	0.001326
299.0766	0.000504
299.2877	0.000083
299.4988	0.000736
299.7099	0.001432
299.9210	0.001390
300.1321	-0.000065
300.3432	0.001284
300.5544	0.000209
300.7655	-0.000318
300.9767	0.001516
301.1879	0.001179
301.3991	0.001811
301.6103	0.000673
301.8215	0.001390
302.0328	0.001516
302.2441	0.001052
302.4553	0.000040
302.6666	0.001769
302.8779	0.000589
303.0892	0.000462
303.3006	0.001116
303.5119	0.000989
303.7233	0.001664
303.9346	0.001242
304.1460	0.000947
304.3574	0.000631
304.5688	0.000673
304.7803	0.000546
304.9917	0.000441
305.2031	0.000230
305.4146	0.001516
305.6261	0.000399
305.8376	0.000589
306.0491	0.000293
306.2606	0.001305
306.4722	0.001116
306.6837	0.000673
306.8953	0.001073
307.1069	0.000694
307.3184	0.000525
307.5301	0.001010
307.7417	0.000968
307.9533	0.000968
308.1650	0.000799
308.3766	0.001875
308.5883	0.001917
308.8000	0.002043
309.0117	0.001221
309.2234	-0.000466
309.4351	0.001558
309.6469	0.000694
309.8586	0.000842
310.0704	-0.000276
310.2822	0.000061
310.4940	0.001221
310.7058	0.000842
310.9176	0.000631
311.1295	0.000251
311.3413	0.000483
311.5532	0.000420
311.7651	0.000715
311.9770	-0.000866
312.1889	0.000083
312.4008	0.001643
312.6127	0.000652
312.8247	0.000546
313.0366	0.001769
313.2486	0.001411
313.4606	0.000926
313.6726	0.000230
313.8846	0.000378
314.0967	-0.000360
314.3087	0.000357
314.5208	0.001875
314.7328	0.000357
314.9449	0.001221
315.1570	0.001980
315.3692	0.000061
315.5813	0.001495
315.7934	0.000420
316.0056	0.001938
316.2177	0.000589
316.4299	0.000652
316.6421	0.001179
316.8543	0.001263
317.0666	0.001622
317.2788	-0.000634
317.4911	0.000125
317.7033	0.001200
317.9156	0.001832
318.1279	0.002613
318.3402	0.002170
318.5525	0.001537
318.7649	0.000525
318.9772	0.000778
319.1896	0.002043
319.4019	0.000652
319.6143	-0.000192
319.8267	0.001348
320.0392	0.000462
320.2516	0.002128
320.4640	0.001432
320.6765	0.000715
320.8890	0.001031
321.1014	0.000209
321.3139	-0.000466
321.5265	0.001706
321.7390	0.000652
321.9515	-0.000360
322.1641	0.000441
322.3766	0.000378
322.5892	0.001158
322.8018	0.000399
323.0144	0.000799
323.2270	0.002064
323.4397	0.002254
323.6523	0.000293
323.8650	0.000483
324.0777	0.001432
324.2904	0.000251
324.5031	0.001558
324.7158	0.001453
324.9285	0.001537
325.1412	0.001769
325.3540	0.002233
325.5668	-0.000550
325.7796	0.000146
325.9924	0.001137
326.2052	0.001875
326.4180	-0.001182
326.6308	0.001706
326.8437	0.002022
327.0566	0.002718
327.2694	0.001411
327.4823	0.001558
327.6952	-0.000044
327.9082	0.000778
328.1211	0.000462
328.3340	0.000272
328.5470	0.000061
328.7600	0.001579
328.9730	0.000441
329.1860	0.000567
329.3990	0.000378
329.6120	0.002718
329.8251	0.000989
330.0381	0.001390
330.2512	0.001474
330.4643	0.000589
330.6774	0.000884
330.8905	0.000757
331.1036	0.000610
331.3167	0.001369
331.5299	0.001095
331.7431	0.001537
331.9562	0.000715
332.1694	0.001031
332.3826	0.000884
332.5959	-0.000170
332.8091	0.001537
333.0223	0.001854
333.2356	0.001158
333.4489	0.000441
333.6622	0.000589
333.8755	0.000842
334.0888	0.000272
334.3021	0.001558
334.5154	0.001706
334.7288	0.001221
334.9422	-0.000128
335.1555	0.000525
335.3689	0.000483
335.5823	0.001200
335.7958	0.000378
336.0092	0.001305
336.2227	0.000504
336.4361	0.001917
336.6496	0.000567
336.8631	0.000589
337.0766	0.001052
337.2901	0.002254
337.5036	0.001158
337.7172	0.001200
337.9307	0.000378
338.1443	0.001221
338.3579	-0.000951
338.5715	0.001685
338.7851	-0.000402
338.9987	0.001811
339.2124	0.000736
339.4260	0.000209
339.6397	0.000947
339.8533	0.001643
340.0670	0.000546
340.2807	0.000905
340.4945	0.000842
340.7082	0.000441
340.9219	0.000420
341.1357	0.000694
341.3495	0.002022
341.5633	0.000441
341.7771	-0.000698
341.9909	0.000863
342.2047	0.001263
342.4185	0.000820
342.6324	0.000863
342.8463	0.000314
343.0601	0.000589
343.2740	0.000631
343.4879	0.000378
343.7019	0.001579
343.9158	0.000947
344.1297	0.001558
344.3437	0.000167
344.5577	-0.000655
344.7717	0.000567
344.9857	0.001200
345.1997	0.000842
345.4137	0.000483
345.6277	0.000546
345.8418	-0.000002
346.0559	0.001073
346.2699	0.001558
346.4840	0.000820
346.6981	-0.000023
346.9123	0.000968
347.1264	0.000357
347.3406	0.000504
347.5547	0.001284
347.7689	0.000842
347.9831	0.000778
348.1973	0.000842
348.4115	0.000251
348.6257	0.000040
348.8400	0.001811
349.0542	0.000441
349.2685	0.001010
349.4828	0.000272
349.6971	0.001326
349.9114	0.000757
350.1257	-0.000571
350.3400	0.000884
350.5544	0.000420
350.7687	0.000293
350.9831	0.000589
351.1975	0.001348
351.4119	0.001010
351.6263	-0.000065
351.8407	-0.000128
352.0552	0.000884
352.2696	0.001326
352.4841	0.000589
352.6986	0.000757
352.9131	0.000715
353.1276	0.002444
353.3421	0.001221
353.5566	-0.000107
353.7712	0.001263
353.9858	0.000694
354.2003	0.001326
354.4149	0.000947
354.6295	0.000736
354.8441	0.002001
355.0588	0.001095
355.2734	0.000673
355.4881	0.000842
355.7027	0.000673
355.9174	0.000230
356.1321	0.001263
356.3468	0.001242
356.5615	0.000968
356.7763	0.000694
356.9910	0.000842
357.2058	0.000378
357.4206	0.000842
357.6353	-0.000972
357.8501	0.001432
358.0650	0.001495
358.2798	-0.001098
358.4946	0.000820
358.7095	0.001073
358.9243	0.000230
359.1392	0.000820
359.3541	0.000357
359.5690	0.000399
359.7839	0.000040
359.9989	0.001453
360.2138	-0.000466
360.4288	0.001727
360.6438	0.000251
360.8587	0.000799
361.0737	0.000314
361.2888	0.000673
361.5038	0.001095
361.7188	0.000462
361.9339	0.000673
362.1489	0.001137
362.3640	0.000567
362.5791	0.001305
362.7942	0.000399
363.0093	-0.000149
363.2245	-0.000213
363.4396	0.000884
363.6548	0.001263
363.8699	0.000631
364.0851	-0.000255
364.3003	0.001284
364.5155	-0.000065
364.7308	0.001896
364.9460	0.000989
365.1612	-0.001288
365.3765	-0.000213
365.5918	0.000378
365.8071	0.001200
366.0224	0.001474
366.2377	0.000083
366.4530	0.001558
366.6684	0.000040
366.8837	0.001137
367.0991	0.000778
367.3145	0.000462
367.5299	0.000631
367.7453	0.001242
367.9607	0.001811
368.1761	0.000462
368.3916	0.000209
368.6070	0.001179
368.8225	0.001664
369.0380	0.002655
369.2535	0.001158
369.4690	0.001073
369.6845	0.000884
369.9001	0.001875
370.1156	0.000631
370.3312	0.001917
370.5468	0.000188
370.7624	0.000504
370.9780	0.000504
371.1936	0.000167
371.4092	0.000546
371.6249	-0.000065
371.8405	0.000778
372.0562	0.002001
372.2719	0.001579
372.4876	0.001369
372.7033	0.001221
372.9190	0.000947
373.1348	0.001158
373.3505	0.001031
373.5663	0.000146
373.7820	-0.000192
373.9978	0.001537
374.2136	0.000314
374.4294	0.001348
374.6453	0.001706
374.8611	0.001137
375.0770	0.000968
375.2928	0.002107
375.5087	0.001474
375.7246	0.001453
375.9405	0.002296
376.1564	0.001073
376.3724	0.001558
376.5883	0.000104
376.8043	-0.000234
377.0203	0.001769
377.2362	-0.000170
377.4522	-0.000192
377.6682	0.001579
377.8843	0.000146
378.1003	0.000736
378.3164	-0.000655
378.5324	0.001179
378.7485	0.000399
378.9646	0.000441
379.1807	-0.000213
379.3968	-0.000339
379.6129	0.001263
379.8291	0.002444
380.0452	0.001643
380.2614	0.000652
380.4776	0.001348
380.6938	0.000293
380.9100	0.001432
381.1262	0.000399
381.3424	0.001010
381.5587	0.000694
381.7749	-0.000234
381.9912	0.000441
382.2075	0.001411
382.4238	0.001242
382.6401	0.001073
382.8564	0.001727
383.0728	0.000399
383.2891	0.001179
383.5055	0.001305
383.7219	0.001242
383.9382	0.000483
384.1546	0.000863
384.3711	0.000610
384.5875	0.001601
384.8039	0.002823
385.0204	0.002233
385.2368	0.000546
385.4533	0.001031
385.6698	0.001643
385.8863	0.000947
386.1028	0.002085
386.3194	0.000926
386.5359	-0.000297
386.7525	0.001558
386.9690	0.001832
387.1856	0.002781
387.4022	0.001537
387.6188	0.001748
387.8355	0.001727
388.0521	0.001052
388.2687	0.001137
388.4854	0.002465
388.7021	0.004911
388.9188	0.002107
389.1355	0.002275
389.3522	0.003182
389.5689	0.003076
389.7856	0.002570
390.0024	0.003076
390.2192	0.003983
390.4359	0.003224
390.6527	0.004088
390.8695	0.002254
391.0863	0.003772
391.3032	0.003646
391.5200	0.004320
391.7369	0.004468
391.9537	0.005290
392.1706	0.004847
392.3875	0.004700
392.6044	0.005712
392.8213	0.006386
393.0383	0.006471
393.2552	0.006070
393.4722	0.005438
393.6891	0.005859
393.9061	0.007124
394.1231	0.008115
394.3401	0.006766
394.5572	0.007715
394.7742	0.007588
394.9912	0.008537
395.2083	0.007082
395.4254	0.009549
395.6425	0.008073
395.8596	0.009191
396.0767	0.008895
396.2938	0.009907
396.5109	0.009907
396.7281	0.010772
396.9453	0.008537
397.1624	0.010329
397.3796	0.009971
397.5968	0.012796
397.8140	0.010814
398.0313	0.012437
398.2485	0.012353
398.4658	0.013302
398.6830	0.012964
398.9003	0.015052
399.1176	0.013576
399.3349	0.013998
399.5522	0.014735
399.7696	0.013239
399.9869	0.013302
400.2043	0.013597
400.4216	0.014609
400.6390	0.013365
400.8564	0.014988
401.0738	0.015010
401.2912	0.015431
401.5087	0.015621
401.7261	0.013745
401.9436	0.016000
402.1610	0.014504
402.3785	0.018826
402.5960	0.016232
402.8135	0.017202
403.0310	0.016190
403.2486	0.017012
403.4661	0.015832
403.6837	0.019479
403.9013	0.017076
404.1189	0.019289
404.3365	0.016991
404.5541	0.018720
404.7717	0.017350
404.9893	0.019606
405.2070	0.017898
405.4246	0.020702
405.6423	0.020660
405.8600	0.019627
406.0777	0.019943
406.2954	0.020048
406.5131	0.020112
406.7309	0.018530
406.9486	0.018973
407.1664	0.019353
407.3842	0.016823
407.6020	0.019753
407.8198	0.018446
408.0376	0.018172
408.2554	0.019036
408.4733	0.020407
408.6911	0.020175
408.9090	0.020196
409.1269	0.020470
409.3448	0.021672
409.5627	0.019247
409.7806	0.021271
409.9985	0.020807
410.2165	0.019500
410.4344	0.020048
410.6524	0.021883
410.8704	0.020934
411.0884	0.020091
411.3064	0.020660
411.5244	0.020976
411.7424	0.022578
411.9605	0.020829
412.1785	0.021103
412.3966	0.021208
412.6147	0.021482
412.8328	0.023232
413.0509	0.023063
413.2690	0.022410
413.4871	0.022157
413.7053	0.022072
413.9234	0.023274
414.1416	0.022220
414.3598	0.022810
414.5780	0.022663
414.7962	0.021630
415.0144	0.022747
415.2326	0.022895
415.4509	0.024919
415.6692	0.024096
415.8874	0.022304
416.1057	0.023063
416.3240	0.023337
416.5423	0.023084
416.7606	0.023464
416.9790	0.023633
417.1973	0.024497
417.4157	0.021693
417.6341	0.023527
417.8524	0.023865
418.0708	0.021377
418.2893	0.024392
418.5077	0.022895
418.7261	0.023148
418.9446	0.022747
419.1630	0.023506
419.3815	0.023949
419.6000	0.025783
419.8185	0.023253
420.0370	0.023675
420.2555	0.024012
420.4741	0.024645
420.6926	0.026943
420.9112	0.024855
421.1298	0.027196
421.3483	0.027280
421.5669	0.027470
421.7856	0.030147
422.0042	0.028545
422.2228	0.028882
422.4415	0.030105
422.6601	0.027786
422.8788	0.027027
423.0975	0.027385
423.3162	0.024855
423.5349	0.027723
423.7536	0.026542
423.9724	0.027913
424.1911	0.027027
424.4099	0.025003
424.6287	0.024940
424.8475	0.024602
425.0663	0.026458
425.2851	0.024750
425.5039	0.024413
425.7228	0.024560
425.9416	0.025593
426.1605	0.022431
426.3793	0.022157
426.5982	0.022642
426.8171	0.024434
427.0361	0.022853
427.2550	0.023021
427.4739	0.025952
427.6929	0.025783
427.9118	0.025446
428.1308	0.026099
428.3498	0.023654
428.5688	0.024666
428.7878	0.023780
429.0068	0.025488
429.2259	0.023000
429.4449	0.024813
429.6640	0.025319
429.8831	0.026816
430.1022	0.028166
430.3213	0.030316
430.5404	0.030464
430.7595	0.029009
430.9787	0.029220
431.1978	0.028081
431.4170	0.025741
431.6362	0.025762
431.8553	0.024898
432.0745	0.024371
432.2938	0.022410
432.5130	0.022789
432.7322	0.022726
432.9515	0.024012
433.1707	0.023907
433.3900	0.023190
433.6093	0.025699
433.8286	0.025720
434.0479	0.029220
434.2673	0.027638
434.4866	0.025762
434.7059	0.023759
434.9253	0.025994
435.1447	0.023527
435.3641	0.022810
435.5835	0.024434
435.8029	0.024139
436.0223	0.024202
436.2418	0.024898
436.4612	0.023021
436.6807	0.025298
436.9001	0.025425
437.1196	0.027048
437.3391	0.025003
437.5586	0.024455
437.7782	0.024096
437.9977	0.023548
438.2173	0.024560
438.4368	0.024813
438.6564	0.025319
438.8760	0.025636
439.0956	0.025235
439.3152	0.025614
439.5348	0.024581
439.7545	0.022958
439.9741	0.023717
440.1938	0.024307
440.4135	0.025235
440.6331	0.023590
440.8528	0.024139
441.0725	0.024202
441.2923	0.024982
441.5120	0.026879
441.7318	0.027955
441.9515	0.027449
442.1713	0.029156
442.3911	0.027111
442.6109	0.027744
442.8307	0.025678
443.0505	0.027385
443.2703	0.026416
443.4902	0.024539
443.7101	0.027048
443.9299	0.026626
444.1498	0.029030
444.3697	0.025108
444.5896	0.026500
444.8095	0.026458
445.0295	0.023569
445.2494	0.024919
445.4694	0.025614
445.6894	0.023253
445.9093	0.026563
446.1293	0.025087
446.3493	0.023633
446.5694	0.025509
446.7894	0.024961
447.0094	0.025003
447.2295	0.025298
447.4496	0.024307
447.6696	0.024961
447.8897	0.023970
448.1098	0.023654
448.3300	0.024223
448.5501	0.022621
448.7702	0.021714
448.9904	0.022789
449.2106	0.022874
449.4307	0.023127
449.6509	0.022199
449.8711	0.021503
450.0914	0.020892
450.3116	0.023042
450.5318	0.022241
450.7521	0.023042
450.9724	0.021819
451.1926	0.021524
451.4129	0.020660
451.6332	0.018046
451.8535	0.020786
452.0739	0.020554
452.2942	0.020027
452.5146	0.018889
452.7349	0.017603
452.9553	0.019774
453.1757	0.020365
453.3961	0.018720
453.6165	0.018594
453.8369	0.018151
454.0574	0.018130
454.2778	0.018446
454.4983	0.019985
454.7188	0.017961
454.9393	0.018678
455.1597	0.016211
455.3803	0.017582
455.6008	0.019458
455.8213	0.017139
456.0419	0.017413
456.2624	0.017202
456.4830	0.016654
456.7036	0.018172
456.9242	0.017329
457.1448	0.016654
457.3654	0.015473
457.5860	0.017097
457.8067	0.016823
458.0274	0.018299
458.2480	0.017729
458.4687	0.017540
458.6894	0.015621
458.9101	0.018425
459.1308	0.018362
459.3516	0.016844
459.5723	0.017729
459.7931	0.016317
460.0138	0.016464
460.2346	0.017476
460.4554	0.015494
460.6762	0.015769
460.8970	0.016886
461.1178	0.016928
461.3387	0.015747
461.5595	0.015347
461.7804	0.015389
462.0013	0.016043
462.2222	0.015937
462.4431	0.014019
462.6640	0.015052
462.8849	0.013955
463.1059	0.012711
463.3268	0.014630
463.5478	0.014651
463.7687	0.013281
463.9897	0.014019
464.2107	0.013681
464.4317	0.014229
464.6528	0.014208
464.8738	0.014061
465.0948	0.015241
465.3159	0.016506
465.5370	0.014693
465.7581	0.015199
465.9792	0.016759
466.2003	0.013007
466.4214	0.014419
466.6425	0.014693
466.8637	0.013344
467.0848	0.012669
467.3060	0.012733
467.5272	0.012964
467.7484	0.012458
467.9696	0.011594
468.1908	0.010477
468.4120	0.010856
468.6333	0.010814
468.8545	0.011299
469.0758	0.009317
469.2970	0.010034
469.5183	0.009422
469.7396	0.010772
469.9610	0.009233
470.1823	0.009507
470.4036	0.007630
470.6250	0.008706
470.8463	0.007651
471.0677	0.009675
471.2891	0.008179
471.5105	0.009907
471.7319	0.008832
471.9533	0.010013
472.1748	0.009422
472.3962	0.008916
472.6177	0.008727
472.8391	0.008537
473.0606	0.008895
473.2821	0.009380
473.5036	0.007124
473.7251	0.009865
473.9467	0.007398
474.1682	0.008263
474.3898	0.006766
474.6113	0.007145
474.8329	0.009760
475.0545	0.009401
475.2761	0.008453
475.4977	0.007525
475.7193	0.009591
475.9410	0.008874
476.1626	0.008031
476.3843	0.006998
476.6060	0.006850
476.8277	0.007968
477.0494	0.007314
477.2711	0.008642
477.4928	0.006682
477.7145	0.007230
477.9363	0.008432
478.1580	0.008347
478.3798	0.007420
478.6016	0.007167
478.8234	0.005775
479.0452	0.006977
479.2670	0.005902
479.4888	0.007230
479.7107	0.006956
479.9325	0.006682
480.1544	0.007209
480.3763	0.006745
480.5982	0.007483
480.8201	0.007778
481.0420	0.006576
481.2639	0.006028
481.4859	0.005227
481.7078	0.007209
481.9298	0.005691
482.1517	0.006133
482.3737	0.004932
482.5957	0.007082
482.8177	0.005649
483.0398	0.006281
483.2618	0.005986
483.4838	0.006492
483.7059	0.004405
483.9280	0.005986
484.1501	0.007904
484.3721	0.007525
484.5943	0.005353
484.8164	0.006914
485.0385	0.007314
485.2606	0.006555
485.4828	0.005944
485.7050	0.009486
485.9271	0.013133
486.1493	0.018088
486.3715	0.016738
486.5937	0.014525
486.8160	0.014440
487.0382	0.010413
487.2605	0.009739
487.4827	0.009549
487.7050	0.006028
487.9273	0.006112
488.1496	0.005838
488.3719	0.003856
488.5942	0.005649
488.8165	0.006155
489.0389	0.004152
489.2612	0.005712
489.4836	0.004025
489.7060	0.004763
489.9284	0.003730
490.1508	0.004510
490.3732	0.005649
490.5956	0.003899
490.8180	0.004615
491.0405	0.004004
491.2630	0.003329
491.4854	0.003625
491.7079	0.003941
491.9304	0.004805
492.1529	0.003814
492.3755	0.002676
492.5980	0.003730
492.8205	0.004278
493.0431	0.003878
493.2657	0.004405
493.4882	0.004257
493.7108	0.004173
493.9334	0.004109
494.1561	0.005374
494.3787	0.003561
494.6013	0.004447
494.8240	0.003329
495.0466	0.003224
495.2693	0.003456
495.4920	0.004088
495.7147	0.003372
495.9374	0.003561
496.1601	0.004299
496.3829	0.003856
496.6056	0.003667
496.8284	0.002507
497.0511	0.004742
497.2739	0.004278
497.4967	0.002254
497.7195	0.003835
497.9423	0.004384
498.1652	0.002655
498.3880	0.003372
498.6109	0.004299
498.8337	0.002655
499.0566	0.003730
499.2795	0.003498
499.5024	0.003182
499.7253	0.003688
499.9482	0.002781
500.1712	0.002381
500.3941	0.002338
500.6171	0.002908
500.8400	0.003751
501.0630	0.003013
501.2860	0.002486
501.5090	0.002802
501.7320	0.004763
501.9551	0.002591
502.1781	0.002317
502.4012	0.002212
502.6242	0.004278
502.8473	0.005248
503.0704	0.002823
503.2935	0.003498
503.5166	0.003582
503.7397	0.003814
503.9628	0.003983
504.1860	0.004405
504.4092	0.002950
504.6323	0.001748
504.8555	0.003625
505.0787	0.002718
505.3019	0.003097
505.5251	0.001200
505.7483	0.004531
505.9716	0.003540
506.1948	0.002676
506.4181	0.003393
506.6414	0.003835
506.8647	0.002887
507.0880	0.002992
507.3113	0.003203
507.5346	0.003013
507.7579	0.003287
507.9813	0.003856
508.2046	0.002929
508.4280	0.003667
508.6514	0.003287
508.8748	0.004320
509.0982	0.001938
509.3216	0.004152
509.5450	0.002001
509.7685	0.003751
509.9919	0.003245
510.2154	0.003667
510.4388	0.002507
510.6623	0.004109
510.8858	0.002338
511.1093	0.003308
511.3329	0.001769
511.5564	0.003878
511.7799	0.002402
512.0035	0.004131
512.2270	0.002676
512.4506	0.003245
512.6742	0.002739
512.8978	0.003561
513.1214	0.004025
513.3451	0.002929
513.5687	0.002570
513.7923	0.003667
514.0160	0.001854
514.2397	0.002022
514.4634	0.001854
514.6871	0.002887
514.9108	0.003055
515.1345	0.003835
515.3582	0.002170
515.5819	0.003582
515.8057	0.002486
516.0295	0.003034
516.2532	0.002507
516.4770	0.004236
516.7008	0.001158
516.9246	0.002823
517.1485	0.002950
517.3723	0.003161
517.5961	0.002444
517.8200	0.001917
518.0439	0.001601
518.2677	0.003582
518.4916	0.003667
518.7155	0.003329
518.9395	0.003203
519.1634	0.004405
519.3873	0.003182
519.6113	0.004594
519.8352	0.002254
520.0592	0.003730
520.2832	0.003097
520.5072	0.002381
520.7312	0.002718
520.9552	0.002191
521.1792	0.003034
521.4033	0.002107
521.6273	0.004236
521.8514	0.002971
522.0755	0.004700
522.2996	0.003878
522.5237	0.003119
522.7478	0.003772
522.9719	0.003688
523.1960	0.003372
523.4202	0.003920
523.6443	0.003013
523.8685	0.003878
524.0927	0.003119
524.3169	0.002486
524.5411	0.002823
524.7653	0.003709
524.9895	0.003161
525.2138	0.003835
525.4380	0.004004
525.6623	0.003372
525.8865	0.002971
526.1108	0.005143
526.3351	0.003224
526.5594	0.004426
526.7837	0.002613
527.0081	0.004679
527.2324	0.004278
527.4568	0.004278
527.6811	0.005037
527.9055	0.004088
528.1299	0.003372
528.3543	0.004131
528.5787	0.004299
528.8031	0.004953
529.0276	0.003793
529.2520	0.005754
529.4765	0.005016
529.7009	0.005923
529.9254	0.006007
530.1499	0.005332
530.3744	0.005775
530.5989	0.005733
530.8234	0.004890
531.0480	0.005374
531.2725	0.005543
531.4971	0.004510
531.7217	0.005859
531.9462	0.004911
532.1708	0.005733
532.3954	0.005269
532.6200	0.003561
532.8447	0.004278
533.0693	0.005986
533.2940	0.006323
533.5186	0.005374
533.7433	0.006745
533.9680	0.006365
534.1927	0.007061
534.4174	0.006871
534.6421	0.005817
534.8668	0.005965
535.0916	0.006450
535.3163	0.005712
535.5411	0.007546
535.7659	0.007609
535.9907	0.007462
536.2155	0.006724
536.4403	0.007398
536.6651	0.006871
536.8899	0.006408
537.1148	0.007293
537.3396	0.006977
537.5645	0.005353
537.7894	0.006534
538.0143	0.006618
538.2392	0.008516
538.4641	0.008073
538.6890	0.009001
538.9139	0.009212
539.1389	0.007799
539.3638	0.008094
539.5888	0.009191
539.8138	0.008938
540.0388	0.008031
540.2638	0.007841
540.4888	0.008558
540.7138	0.009444
540.9389	0.009591
541.1639	0.009380
541.3890	0.010329
541.6140	0.009971
541.8391	0.010308
542.0642	0.008980
542.2893	0.010645
542.5144	0.011468
542.7396	0.011172
542.9647	0.012964
543.1899	0.011257
543.4150	0.012648
543.6402	0.011446
543.8654	0.009950
544.0906	0.011995
544.3158	0.012058
544.5410	0.012037
544.7662	0.013112
544.9915	0.012986
545.2167	0.011910
545.4420	0.014841
545.6673	0.013281
545.8926	0.012986
546.1179	0.013239
546.3432	0.011931
546.5685	0.011573
546.7938	0.012901
547.0192	0.014461
547.2445	0.014398
547.4699	0.014019
547.6953	0.014546
547.9206	0.015473
548.1460	0.017181
548.3715	0.016781
548.5969	0.017540
548.8223	0.016696
549.0478	0.017265
549.2732	0.014651
549.4987	0.014651
549.7242	0.016528
549.9496	0.014166
550.1751	0.015874
550.4007	0.016169
550.6262	0.015052
550.8517	0.015199
551.0773	0.013745
551.3028	0.016296
551.5284	0.015516
551.7540	0.015326
551.9796	0.015178
552.2052	0.018678
552.4308	0.017771
552.6564	0.019880
552.8820	0.019184
553.1077	0.018994
553.3333	0.018678
553.5590	0.018446
553.7847	0.020196
554.0104	0.019500
554.2361	0.019521
554.4618	0.019353
554.6875	0.019542
554.9132	0.018046
555.1390	0.018488
555.3648	0.019606
555.5905	0.020449
555.8163	0.020955
556.0421	0.020829
556.2679	0.022810
556.4937	0.022621
556.7195	0.022557
556.9454	0.023738
557.1712	0.021503
557.3971	0.019943
557.6230	0.022642
557.8488	0.020259
558.0747	0.023021
558.3006	0.022831
558.5266	0.023949
558.7525	0.021545
558.9784	0.021609
559.2044	0.021714
559.4303	0.020997
559.6563	0.019585
559.8823	0.021145
560.1083	0.022578
560.3343	0.025361
560.5603	0.025593
560.7863	0.027997
561.0124	0.028587
561.2384	0.028714
561.4645	0.029894
561.6905	0.029009
561.9166	0.028714
562.1427	0.029937
562.3688	0.027997
562.5949	0.029726
562.8211	0.030379
563.0472	0.029135
563.2733	0.029178
563.4995	0.028060
563.7257	0.031096
563.9519	0.029367
564.1781	0.029831
564.4043	0.031433
564.6305	0.033415
564.8567	0.032530
565.0829	0.033162
565.3092	0.033858
565.5355	0.035397
565.7617	0.034343
565.9880	0.037358
566.2143	0.034427
566.4406	0.035671
566.6669	0.036493
566.8932	0.034617
567.1196	0.037505
567.3459	0.039930
567.5723	0.043577
567.7987	0.046677
568.0250	0.045011
568.2514	0.045939
568.4778	0.047562
568.7043	0.051357
568.9307	0.054372
569.1571	0.058652
569.3836	0.061814
569.6100	0.064492
569.8365	0.070374
570.0630	0.079693
570.2895	0.085997
570.5160	0.088021
570.7425	0.086566
570.9690	0.088696
571.1956	0.096286
571.4221	0.098141
571.6487	0.102632
571.8752	0.105035
572.1018	0.109252
572.3284	0.115767
572.5550	0.111845
572.7816	0.108451
573.0082	0.099153
573.2349	0.096539
573.4615	0.104382
573.6882	0.114755
573.9149	0.123926
574.1415	0.127742
574.3682	0.130904
574.5949	0.139506
574.8216	0.143428
575.0484	0.143575
575.2751	0.142563
575.5018	0.145494
575.7286	0.146886
575.9554	0.137124
576.1821	0.133245
576.4089	0.128649
576.6357	0.133624
576.8626	0.141024
577.0894	0.150322
577.3162	0.154476
577.5431	0.153611
577.7699	0.163183
577.9968	0.202187
578.2237	0.204886
578.4505	0.202461
578.6774	0.186733
578.9044	0.175264
579.1313	0.163478
579.3582	0.156731
579.5851	0.157174
579.8121	0.166451
580.0391	0.166451
580.2660	0.169592
580.4930	0.173556
580.7200	0.169002
580.9470	0.165165
581.1741	0.170520
581.4011	0.200015
581.6281	0.245070
581.8552	0.262654
582.0822	0.267967
582.3093	0.258353
582.5364	0.248486
582.7635	0.234993
582.9906	0.216545
583.2177	0.198181
583.4449	0.181062
583.6720	0.167800
583.8991	0.156500
584.1263	0.151608
584.3535	0.154855
584.5807	0.157807
584.8079	0.159367
585.0351	0.170541
585.2623	0.186670
585.4895	0.191392
585.7167	0.193501
585.9440	0.196600
586.1713	0.192889
586.3985	0.178763
586.6258	0.168454
586.8531	0.160822
587.0804	0.166345
587.3077	0.176740
587.5350	0.183381
587.7624	0.189389
587.9897	0.187429
588.2171	0.178342
588.4445	0.166662
588.6718	0.168095
588.8992	0.162825
589.1266	0.157195
589.3540	0.145536
589.5815	0.137293
589.8089	0.131094
590.0363	0.132528
590.2638	0.132022
590.4913	0.127320
590.7187	0.121417
590.9462	0.116526
591.1737	0.112667
591.4012	0.108366
591.6288	0.107734
591.8563	0.107734
592.0838	0.113089
592.3114	0.108872
592.5389	0.110180
592.7665	0.126266
592.9941	0.148720
593.2217	0.163014
593.4493	0.165903
593.6769	0.167336
593.9046	0.162909
594.1322	0.157448
594.3598	0.153000
594.5875	0.143217
594.8152	0.140856
595.0429	0.148404
595.2705	0.160126
595.4983	0.159620
595.7260	0.154982
595.9537	0.149816
596.1814	0.140392
596.4092	0.131495
596.6369	0.123631
596.8647	0.115092
597.0925	0.114333
597.3203	0.115640
597.5481	0.121480
597.7759	0.122007
598.0037	0.120553
598.2315	0.118444
598.4594	0.113911
598.6872	0.113363
598.9151	0.128691
599.1430	0.143091
599.3709	0.154054
599.5988	0.153442
599.8267	0.143344
600.0546	0.144440
600.2825	0.149373
600.5105	0.150406
600.7384	0.153274
600.9664	0.147771
601.1944	0.149521
601.4223	0.152852
601.6503	0.150744
601.8783	0.143681
602.1064	0.140308
602.3344	0.135016
602.5624	0.136744
602.7905	0.135163
603.0185	0.141952
603.2466	0.141889
603.4747	0.149774
603.7028	0.155930
603.9309	0.153801
604.1590	0.146590
604.3871	0.140371
604.6152	0.133835
604.8434	0.132338
605.0715	0.124832
605.2997	0.124601
605.5279	0.126878
605.7561	0.132380
605.9843	0.139211
606.2125	0.146485
606.4407	0.143997
606.6689	0.131368
606.8972	0.128417
607.1254	0.123272
607.3537	0.127152
607.5819	0.129956
607.8102	0.133624
608.0385	0.129935
608.2668	0.124896
608.4951	0.122492
608.7235	0.117559
608.9518	0.116294
609.1801	0.115261
609.4085	0.114101
609.6369	0.108324
609.8653	0.107692
610.0936	0.112794
610.3220	0.123525
610.5505	0.125296
610.7789	0.118360
611.0073	0.115176
611.2357	0.113869
611.4642	0.113722
611.6927	0.109484
611.9211	0.111719
612.1496	0.110011
612.3781	0.106385
612.6066	0.106638
612.8351	0.104487
613.0637	0.103475
613.2922	0.107186
613.5208	0.103791
613.7493	0.101620
613.9779	0.105394
614.2065	0.103159
614.4351	0.105394
614.6637	0.103074
614.8923	0.102505
615.1209	0.102885
615.3495	0.102421
615.5782	0.108640
615.8068	0.108915
616.0355	0.107797
616.2642	0.103791
616.4929	0.099975
616.7216	0.090994
616.9503	0.090614
617.1790	0.092195
617.4077	0.086355
617.6365	0.089138
617.8652	0.088843
618.0940	0.088738
618.3227	0.091479
618.5515	0.088105
618.7803	0.084100
619.0091	0.079735
619.2379	0.076615
619.4667	0.072040
619.6956	0.072736
619.9244	0.075371
620.1533	0.075540
620.3821	0.078491
620.6110	0.080136
620.8399	0.077522
621.0688	0.072040
621.2977	0.066896
621.5266	0.061688
621.7556	0.063860
621.9845	0.063923
622.2135	0.066158
622.4424	0.066874
622.6714	0.067844
622.9004	0.067591
623.1294	0.071850
623.3584	0.070416
623.5874	0.074528
623.8164	0.072862
624.0454	0.073115
624.2745	0.072588
624.5035	0.069974
624.7326	0.071386
624.9617	0.075139
625.1908	0.075013
625.4199	0.070922
625.6490	0.067317
625.8781	0.065399
626.1072	0.067338
626.3364	0.062995
626.5655	0.060402
626.7947	0.060128
627.0238	0.059537
627.2530	0.055827
627.4822	0.058800
627.7114	0.057893
627.9406	0.060549
628.1698	0.055258
628.3991	0.052643
628.6283	0.049143
628.8576	0.047773
629.0868	0.047646
629.3161	0.051631
629.5454	0.051273
629.7747	0.053360
630.0040	0.050935
630.2333	0.052032
630.4626	0.047415
630.6920	0.048511
630.9213	0.048553
631.1507	0.046571
631.3801	0.046803
631.6094	0.042523
631.8388	0.043577
632.0682	0.043388
632.2976	0.041132
632.5271	0.042017
632.7565	0.041132
632.9859	0.038370
633.2154	0.035713
633.4448	0.036219
633.6743	0.035060
633.9038	0.037295
634.1333	0.037590
634.3628	0.036620
634.5923	0.037442
634.8218	0.033900
635.0514	0.034216
635.2809	0.034195
635.5105	0.034427
635.7400	0.033879
635.9696	0.034322
636.1992	0.035608
636.4288	0.037063
636.6584	0.037737
636.8880	0.037801
637.1177	0.036641
637.3473	0.038243
637.5770	0.035629
637.8066	0.033141
638.0363	0.032867
638.2660	0.034849
638.4957	0.034997
638.7254	0.035608
638.9551	0.034807
639.1848	0.034997
639.4145	0.035081
639.6443	0.031193
639.8740	0.030063
640.1038	0.031612
640.3336	0.032405
640.5633	0.031962
640.7931	0.029619
641.0229	0.029519
641.2528	0.028675
641.4826	0.030165
641.7124	0.028563
641.9423	0.026103
642.1721	0.027334
642.4020	0.026220
642.6319	0.024619
642.8617	0.022259
643.0916	0.024280
643.3216	0.023936
643.5515	0.025102
643.7814	0.026410
644.0113	0.025917
644.2413	0.022539
644.4712	0.022058
644.7012	0.023806
644.9312	0.021942
645.1612	0.024663
645.3912	0.022970
645.6212	0.021642
645.8512	0.023070
646.0812	0.020967
646.3113	0.022462
646.5413	0.021217
646.7714	0.021794
647.0015	0.021318
647.2316	0.020010
647.4616	0.020370
647.6918	0.020697
647.9219	0.021459
648.1520	0.022719
648.3821	0.024280
648.6123	0.025904
648.8424	0.028644
649.0726	0.026963
649.3028	0.030247
649.5329	0.029153
649.7631	0.029177
649.9933	0.028391
650.2236	0.026709
650.4538	0.024901
650.6840	0.024022
650.9143	0.025019
651.1445	0.024355
651.3748	0.024668
651.6051	0.022001
651.8354	0.023818
652.0657	0.024672
652.2960	0.025018
652.5263	0.024934
652.7566	0.025965
652.9870	0.027881
653.2173	0.024814
653.4477	0.026906
653.6780	0.027796
653.9084	0.026438
654.1388	0.026327
654.3692	0.030879
654.5996	0.029558
654.8300	0.030461
655.0605	0.032385
655.2909	0.047426
655.5213	0.127265
655.7518	0.387769
655.9823	0.782792
656.2128	1.000000
656.4433	1.000000
656.6738	1.000000
656.9043	1.000000
657.1348	0.883078
657.3653	0.714454
657.5959	0.572363
657.8264	0.498142
658.0570	0.427049
658.2875	0.388492
658.5181	0.355043
658.7487	0.317389
658.9793	0.304436
659.2099	0.287478
659.4406	0.234496
659.6712	0.163622
659.9018	0.098056
660.1325	0.057338
660.3632	0.035169
660.5938	0.027899
660.8245	0.026219
661.0552	0.021710
661.2859	0.020092
661.5166	0.019834
661.7474	0.018911
661.9781	0.016153
662.2088	0.019191
662.4396	0.019316
662.6704	0.018957
662.9011	0.016318
663.1319	0.018269
663.3627	0.018198
663.5935	0.016308
663.8243	0.017685
664.0552	0.016562
664.2860	0.018351
664.5168	0.019064
664.7477	0.018700
664.9786	0.019751
665.2094	0.019408
665.4403	0.020910
665.6712	0.019393
665.9021	0.021035
666.1330	0.020720
666.3640	0.018666
666.5949	0.016905
666.8259	0.018293
667.0568	0.017921
667.2878	0.018839
667.5188	0.016449
667.7497	0.016911
667.9807	0.018056
668.2117	0.019490
668.4428	0.018320
668.6738	0.017750
668.9048	0.017729
669.1359	0.017476
669.3669	0.019058
669.5980	0.018889
669.8291	0.016570
670.0602	0.017687
670.2913	0.018826
670.5224	0.017582
670.7535	0.017940
670.9846	0.019395
671.2157	0.017982
671.4469	0.019774
671.6781	0.022094
671.9092	0.024729
672.1404	0.025762
672.3716	0.026352
672.6028	0.028461
672.8340	0.030358
673.0652	0.029852
673.2964	0.028777
673.5277	0.024075
673.7589	0.026268
673.9902	0.025846
674.2214	0.023295
674.4527	0.023084
674.6840	0.022494
674.9153	0.022431
675.1466	0.022578
675.3779	0.021545
675.6093	0.023106
675.8406	0.020407
676.0719	0.021967
676.3033	0.020871
676.5347	0.021925
676.7661	0.019142
676.9974	0.021250
677.2288	0.017603
677.4602	0.019226
677.6917	0.021651
677.9231	0.022389
678.1545	0.024413
678.3860	0.025087
678.6174	0.025172
678.8489	0.024877
679.0804	0.025045
679.3119	0.025193
679.5434	0.025383
679.7749	0.028313
680.0064	0.030147
680.2379	0.030274
680.4694	0.031834
680.7010	0.030042
680.9325	0.029409
681.1641	0.027238
681.3957	0.026584
681.6273	0.032424
681.8589	0.030822
682.0905	0.028840
682.3221	0.026563
682.5537	0.026964
682.7854	0.026205
683.0170	0.024919
683.2487	0.024771
683.4803	0.025108
683.7120	0.025530
683.9437	0.026416
684.1754	0.026563
684.4071	0.026395
684.6388	0.028988
684.8705	0.030927
685.1023	0.032087
685.3340	0.033479
685.5658	0.033521
685.7975	0.036978
686.0293	0.037632
686.2611	0.038496
686.4929	0.039466
686.7247	0.037611
686.9565	0.035313
687.1883	0.034364
687.4202	0.038180
687.6520	0.036641
687.8838	0.035945
688.1157	0.035819
688.3476	0.034891
688.5795	0.032424
688.8114	0.030949
689.0433	0.032762
689.2752	0.029873
689.5071	0.029873
689.7390	0.030421
689.9710	0.030042
690.2029	0.028798
690.4349	0.026774
690.6669	0.028545
690.8988	0.026858
691.1308	0.027955
691.3628	0.030991
691.5948	0.033647
691.8269	0.030506
692.0589	0.031370
692.2909	0.031939
692.5230	0.031497
692.7550	0.031876
692.9871	0.031307
693.2192	0.029051
693.4513	0.033183
693.6834	0.034406
693.9155	0.031328
694.1476	0.031202
694.3797	0.028650
694.6119	0.028503
694.8440	0.027870
695.0762	0.028735
695.3083	0.027976
695.5405	0.028967
695.7727	0.027955
696.0049	0.025235
696.2371	0.024645
696.4693	0.024413
696.7016	0.024708
696.9338	0.029304
697.1660	0.032741
697.3983	0.034006
697.6306	0.032888
697.8628	0.031771
698.0951	0.034174
698.3274	0.032171
698.5597	0.032045
698.7920	0.029473
699.0243	0.031518
699.2567	0.031750
699.4890	0.029789
699.7214	0.028292
699.9537	0.027596
700.1861	0.027934
700.4185	0.026036
700.6509	0.026795
700.8833	0.026542
701.1157	0.026310
701.3481	0.022853
701.5806	0.025193
701.8130	0.022979
702.0454	0.023759
702.2779	0.025361
702.5104	0.024771
702.7429	0.026247
702.9753	0.026605
703.2078	0.027617
703.4403	0.024181
703.6729	0.024645
703.9054	0.023759
704.1379	0.022621
704.3705	0.023759
704.6030	0.023886
704.8356	0.021967
705.0682	0.021503
705.3008	0.020744
705.5334	0.020196
705.7660	0.020554
705.9986	0.018720
706.2312	0.020871
706.4638	0.022347
706.6965	0.024898
706.9291	0.027702
707.1618	0.029431
707.3945	0.030105
707.6272	0.033479
707.8599	0.031497
708.0926	0.031813
708.3253	0.030906
708.5580	0.031834
708.7907	0.032530
709.0235	0.030843
709.2562	0.030400
709.4890	0.030105
709.7217	0.028081
709.9545	0.028777
710.1873	0.028819
710.4201	0.028229
710.6529	0.029346
710.8857	0.029093
711.1186	0.029620
711.3514	0.027617
711.5842	0.026605
711.8171	0.025003
712.0500	0.025361
712.2828	0.023443
712.5157	0.024012
712.7486	0.022473
712.9815	0.023759
713.2144	0.025298
713.4474	0.026626
713.6803	0.026500
713.9132	0.026711
714.1462	0.028081
714.3791	0.029051
714.6121	0.029873
714.8451	0.029030
715.0781	0.028798
715.3111	0.030421
715.5441	0.029409
715.7771	0.030000
716.0102	0.028313
716.2432	0.027069
716.4762	0.024813
716.7093	0.024160
716.9424	0.021377
717.1754	0.024244
717.4085	0.020639
717.6416	0.023169
717.8747	0.022810
718.1078	0.023232
718.3410	0.024919
718.5741	0.024096
718.8072	0.024371
719.0404	0.024223
719.2736	0.024919
719.5067	0.024666
719.7399	0.025340
719.9731	0.023232
720.2063	0.022051
720.4395	0.022684
720.6727	0.023928
720.9060	0.023633
721.1392	0.025762
721.3725	0.024539
721.6057	0.023633
721.8390	0.024371
722.0723	0.023569
722.3055	0.025846
722.5388	0.024602
722.7721	0.023232
723.0055	0.022536
723.2388	0.023485
723.4721	0.021482
723.7055	0.023801
723.9388	0.022621
724.1722	0.024961
724.4056	0.024877
724.6389	0.022789
724.8723	0.022895
725.1057	0.022979
725.3391	0.026057
725.5726	0.029557
725.8060	0.028313
726.0394	0.026584
726.2729	0.027385
726.5063	0.030063
726.7398	0.028714
726.9733	0.028292
727.2068	0.027596
727.4403	0.025087
727.6738	0.025783
727.9073	0.028313
728.1408	0.027849
728.3743	0.029009
728.6079	0.029241
728.8414	0.029220
729.0750	0.027870
729.3086	0.027913
729.5421	0.027849
729.7757	0.029409
730.0093	0.030569
730.2429	0.029578
730.4766	0.031939
730.7102	0.031497
730.9438	0.032066
731.1775	0.035713
731.4111	0.034765
731.6448	0.035734
731.8785	0.036304
732.1122	0.037210
732.3458	0.034997
732.5795	0.035334
732.8133	0.034891
733.0470	0.033816
733.2807	0.036030
733.5145	0.034912
733.7482	0.034469
733.9820	0.038918
734.2157	0.039066
734.4495	0.042270
734.6833	0.043704
734.9171	0.041722
735.1509	0.040668
735.3847	0.039066
735.6185	0.039276
735.8524	0.039508
736.0862	0.039677
736.3201	0.040731
736.5539	0.039761
736.7878	0.038180
737.0217	0.039698
737.2556	0.039192
737.4895	0.038960
737.7234	0.039066
737.9573	0.037822
738.1912	0.036156
738.4252	0.034195
738.6591	0.033521
738.8931	0.033753
739.1271	0.035081
739.3610	0.035545
739.5950	0.038349
739.8290	0.039298
740.0630	0.038159
740.2970	0.039129
740.5310	0.036304
740.7651	0.034975
740.9991	0.032572
741.2332	0.031159
741.4672	0.031518
741.7013	0.027828
741.9354	0.029852
742.1695	0.027449
742.4036	0.030253
742.6377	0.028208
742.8718	0.029178
743.1059	0.029135
743.3400	0.026901
743.5742	0.024328
743.8083	0.026036
744.0425	0.028039
744.2767	0.026268
744.5108	0.024434
744.7450	0.025973
744.9792	0.024244
745.2134	0.024392
745.4477	0.025277
745.6819	0.025003
745.9161	0.024792
746.1504	0.023780
746.3846	0.023738
746.6189	0.023654
746.8532	0.023380
747.0874	0.022347
747.3217	0.024434
747.5560	0.025425
747.7903	0.026943
748.0247	0.026057
748.2590	0.025404
748.4933	0.024033
748.7277	0.024560
748.9620	0.024560
749.1964	0.024834
749.4308	0.024877
749.6652	0.027617
749.8995	0.030337
750.1339	0.029072
750.3684	0.030569
750.6028	0.033015
750.8372	0.033963
751.0717	0.033036
751.3061	0.031813
751.5406	0.031518
751.7750	0.032614
752.0095	0.033985
752.2440	0.033521
752.4785	0.031138
752.7130	0.031771
752.9475	0.030696
753.1820	0.030021
753.4166	0.028882
753.6511	0.032045
753.8856	0.033795
754.1202	0.034680
754.3548	0.034069
754.5894	0.034870
754.8239	0.032677
755.0585	0.031771
755.2931	0.034575
755.5278	0.034216
755.7624	0.035756
755.9970	0.035903
756.2317	0.035250
756.4663	0.039023
756.7010	0.038054
756.9356	0.042333
757.1703	0.042586
757.4050	0.043809
757.6397	0.046845
757.8744	0.049502
758.1091	0.049291
758.3438	0.049544
758.5786	0.047689
758.8133	0.045875
759.0481	0.045095
759.2828	0.042565
759.5176	0.048216
759.7524	0.049228
759.9872	0.049987
760.2220	0.053571
760.4568	0.050999
760.6916	0.051547
760.9264	0.050978
761.1613	0.049607
761.3961	0.048764
761.6310	0.047836
761.8658	0.045095
762.1007	0.043788
762.3356	0.042059
762.5705	0.041743
762.8054	0.037990
763.0403	0.041870
763.2752	0.041364
763.5101	0.040668
763.7450	0.040900
763.9800	0.040352
764.2149	0.041785
764.4499	0.043577
764.6849	0.047077
764.9198	0.048722
765.1548	0.049607
765.3898	0.047372
765.6248	0.046613
765.8599	0.046255
766.0949	0.043641
766.3299	0.039066
766.5650	0.039593
766.8000	0.036957
767.0351	0.034912
767.2701	0.032467
767.5052	0.032129
767.7403	0.030738
767.9754	0.031138
768.2105	0.034132
768.4456	0.036409
768.6808	0.036093
768.9159	0.038876
769.1510	0.041195
769.3862	0.041174
769.6214	0.038623
769.8565	0.037569
770.0917	0.037780
770.3269	0.036578
770.5621	0.035882
770.7973	0.038096
771.0325	0.037400
771.2677	0.040563
771.5030	0.039487
771.7382	0.037990
771.9735	0.036557
772.2087	0.036009
772.4440	0.033373
772.6793	0.033310
772.9146	0.031939
773.1499	0.033436
773.3852	0.033795
773.6205	0.032171
773.8558	0.030674
774.0911	0.030885
774.3265	0.031729
774.5618	0.029599
774.7972	0.026858
775.0326	0.027828
775.2679	0.027069
775.5033	0.025846
775.7387	0.023822
775.9741	0.023675
776.2095	0.023759
776.4450	0.022515
776.6804	0.023401
776.9158	0.020217
777.1513	0.019943
777.3868	0.021292
777.6222	0.020955
777.8577	0.020807
778.0932	0.020428
778.3287	0.021798
778.5642	0.021756
778.7997	0.021630
779.0352	0.023443
779.2707	0.023970
779.5063	0.027744
779.7418	0.026500
779.9774	0.025867
780.2130	0.025235
780.4485	0.023316
780.6841	0.024096
780.9197	0.023991
781.1553	0.025889
781.3909	0.026626
781.6265	0.027069
781.8622	0.029747
782.0978	0.030190
782.3335	0.028714
782.5691	0.030190
782.8048	0.029262
783.0405	0.030168
783.2761	0.029030
783.5118	0.029325
783.7475	0.029831
783.9832	0.028060
784.2190	0.027428
784.4547	0.026648
784.6904	0.026268
784.9262	0.023590
785.1619	0.023633
785.3977	0.024771
785.6335	0.024539
785.8692	0.024750
786.1050	0.024118
786.3408	0.024033
786.5766	0.022958
786.8124	0.024434
787.0483	0.023084
787.2841	0.025193
787.5199	0.023801
787.7558	0.023801
787.9917	0.024223
788.2275	0.024413
788.4634	0.023654
788.6993	0.024898
788.9352	0.026226
789.1711	0.025530
789.4070	0.026205
789.6429	0.024455
789.8789	0.022810
790.1148	0.023063
790.3507	0.022178
790.5867	0.022030
790.8227	0.020576
791.0586	0.022115
791.2946	0.019817
791.5306	0.020070
791.7666	0.021798
792.0026	0.020554
792.2387	0.020681
792.4747	0.019458
792.7107	0.019036
792.9468	0.017497
793.1828	0.018868
793.4189	0.018678
793.6550	0.020344
793.8910	0.019311
794.1271	0.021503
794.3632	0.023569
794.5993	0.026669
794.8355	0.026858
795.0716	0.027702
795.3077	0.028587
795.5439	0.027027
795.7800	0.025256
796.0162	0.024075
796.2523	0.023127
796.4885	0.022178
796.7247	0.020323
796.9609	0.020344
797.1971	0.018467
797.4333	0.018193
797.6695	0.019564
797.9058	0.019732
798.1420	0.018530
798.3783	0.018594
798.6145	0.017961
798.8508	0.017856
799.0871	0.018299
799.3233	0.018552
799.5596	0.019648
799.7959	0.018214
800.0322	0.017898
800.2686	0.017202
800.5049	0.016759
800.7412	0.016991
800.9776	0.014988
801.2139	0.015494
801.4503	0.016970
801.6867	0.015726
801.9230	0.015916
802.1594	0.015494
802.3958	0.015241
802.6322	0.013028
802.8686	0.015031
803.1051	0.014440
803.3415	0.015726
803.5779	0.015494
803.8144	0.016485
804.0508	0.012901
804.2873	0.014757
804.5238	0.014735
804.7603	0.013913
804.9968	0.013239
805.2333	0.015178
805.4698	0.013470
805.7063	0.015811
805.9428	0.015284
806.1794	0.016464
806.4159	0.018193
806.6525	0.021609
806.8890	0.020702
807.1256	0.018699
807.3622	0.019585
807.5988	0.020091
807.8354	0.018467
808.0720	0.019564
808.3086	0.017540
808.5452	0.019479
808.7818	0.018299
809.0185	0.020238
809.2551	0.018678
809.4918	0.019521
809.7284	0.017160
809.9651	0.017308
810.2018	0.016169
810.4385	0.016401
810.6752	0.017012
810.9119	0.016296
811.1486	0.015031
811.3853	0.016865
811.6221	0.014166
811.8588	0.015705
812.0956	0.013787
812.3323	0.014651
812.5691	0.014293
812.8059	0.011636
813.0427	0.012374
813.2795	0.013154
813.5163	0.012648
813.7531	0.014124
813.9899	0.015305
814.2267	0.016000
814.4636	0.016380
814.7004	0.016844
814.9373	0.016022
815.1742	0.013154
815.4110	0.014314
815.6479	0.011889
815.8848	0.011721
816.1217	0.010329
816.3586	0.010983
816.5955	0.010835
816.8324	0.013217
817.0694	0.011742
817.3063	0.013428
817.5433	0.012437
817.7802	0.013386
818.0172	0.013154
818.2542	0.011636
818.4912	0.011995
818.7282	0.010266
818.9652	0.011088
819.2022	0.011236
819.4392	0.011341
819.6762	0.011236
819.9133	0.010287
820.1503	0.011784
820.3874	0.011257
820.6244	0.011615
820.8615	0.014672
821.0986	0.013407
821.3357	0.013555
821.5727	0.012943
821.8099	0.012269
822.0470	0.012880
822.2841	0.012395
822.5212	0.011404
822.7584	0.010687
822.9955	0.011383
823.2327	0.011425
823.4698	0.011636
823.7070	0.009971
823.9442	0.009802
824.1814	0.008537
824.4186	0.010350
824.6558	0.008347
824.8930	0.010645
825.1302	0.010329
825.3675	0.010919
825.6047	0.009739
825.8419	0.011678
826.0792	0.011257
826.3165	0.012669
826.5537	0.010709
826.7910	0.011130
827.0283	0.010814
827.2656	0.011615
827.5029	0.012142
827.7402	0.012227
827.9776	0.012585
828.2149	0.010962
828.4522	0.011109
828.6896	0.009823
828.9270	0.011088
829.1643	0.012437
829.4017	0.010561
829.6391	0.010919
829.8765	0.010962
830.1139	0.010624
830.3513	0.010371
830.5887	0.009907
830.8261	0.008938
831.0636	0.008010
831.3010	0.008727
831.5385	0.007567
831.7759	0.006007
832.0134	0.007715
832.2509	0.006386
832.4884	0.007546
832.7259	0.006091
832.9634	0.006555
833.2009	0.008727
833.4384	0.007883
833.6759	0.007567
833.9135	0.008579
834.1510	0.007525
834.3886	0.009697
834.6261	0.009675
834.8637	0.009971
835.1013	0.008115
835.3389	0.008621
835.5765	0.008052
835.8141	0.007799
836.0517	0.008179
836.2893	0.009401
836.5269	0.006977
836.7646	0.007588
837.0022	0.007335
837.2399	0.008010
837.4775	0.006492
837.7152	0.006239
837.9529	0.006787
838.1906	0.007103
838.4283	0.006787
838.6660	0.005438
838.9037	0.005311
839.1414	0.006682
839.3791	0.006344
839.6169	0.005649
839.8546	0.005880
840.0924	0.007588
840.3302	0.006281
840.5679	0.007188
840.8057	0.007230
841.0435	0.008010
841.2813	0.005965
841.5191	0.005480
841.7569	0.005058
841.9947	0.005227
842.2326	0.004384
842.4704	0.004911
842.7082	0.003835
842.9461	0.005459
843.1840	0.004974
843.4218	0.006850
843.6597	0.004278
843.8976	0.003983
844.1355	0.003814
844.3734	0.004426
844.6113	0.003941
844.8492	0.004679
845.0872	0.003793
845.3251	0.005311
845.5631	0.004489
845.8010	0.003899
846.0390	0.005143
846.2770	0.006492
846.5149	0.004847
846.7529	0.005438
846.9909	0.004362
847.2289	0.004573
847.4669	0.003625
847.7050	0.005543
847.9430	0.006344
848.1810	0.007947
848.4191	0.005185
848.6571	0.004890
848.8952	0.003182
849.1333	0.005311
849.3713	0.002001
849.6094	0.004109
849.8475	0.005290
850.0856	0.004173
850.3237	0.003350
850.5619	0.005079
850.8000	0.003667
851.0381	0.004658
851.2763	0.003350
851.5144	0.004890
851.7526	0.003688
851.9908	0.004510
852.2289	0.004700
852.4671	0.004510
852.7053	0.006597
852.9435	0.008284
853.1817	0.009971
853.4200	0.010814
853.6582	0.011784
853.8964	0.013470
854.1347	0.012332
854.3729	0.013365
854.6112	0.010772
854.8495	0.011931
855.0877	0.011615
855.3260	0.012374
855.5643	0.011172
855.8026	0.011615
856.0409	0.010814
856.2792	0.009739
856.5176	0.010203
856.7559	0.012416
856.9942	0.009507
857.2326	0.009865
857.4710	0.009401
857.7093	0.008326
857.9477	0.008284
858.1861	0.009317
858.4245	0.011004
858.6629	0.008031
858.9013	0.009591
859.1397	0.008685
859.3781	0.008811
859.6166	0.008579
859.8550	0.007947
860.0935	0.009697
860.3319	0.007377
860.5704	0.006935
860.8089	0.005058
861.0473	0.006534
861.2858	0.006892
861.5243	0.004531
861.7628	0.005859
862.0013	0.005206
862.2399	0.006155
862.4784	0.004890
862.7169	0.003372
862.9555	0.006218
863.1940	0.003878
863.4326	0.005311
863.6712	0.006070
863.9098	0.006892
864.1483	0.005543
864.3869	0.005417
864.6255	0.004510
864.8642	0.005880
865.1028	0.003835
865.3414	0.004826
865.5800	0.004489
865.8187	0.004489
866.0573	0.004763
866.2960	0.005248
866.5347	0.004552
866.7733	0.003814
867.0120	0.004531
867.2507	0.005417
867.4894	0.003646
867.7281	0.004489
867.9669	0.003350
868.2056	0.004784
868.4443	0.004088
868.6831	0.004278
868.9218	0.004004
869.1606	0.005459
869.3993	0.003329
869.6381	0.004637
869.8769	0.003793
870.1157	0.005459
870.3545	0.005522
870.5933	0.002760
870.8321	0.004721
871.0709	0.005311
871.3097	0.004278
871.5486	0.005775
871.7874	0.005859
872.0263	0.003962
872.2651	0.004594
872.5040	0.003878
872.7429	0.005522
872.9818	0.005311
873.2207	0.005353
873.4596	0.004426
873.6985	0.003941
873.9374	0.006049
874.1763	0.004299
874.4153	0.004700
874.6542	0.003350
874.8932	0.006218
875.1321	0.003920
875.3711	0.005564
875.6101	0.005543
875.8491	0.006112
876.0880	0.005227
876.3270	0.006555
876.5661	0.004109
876.8051	0.003878
877.0441	0.005353
877.2831	0.005185
877.5222	0.005459
877.7612	0.003603
878.0003	0.005227
878.2393	0.005480
878.4784	0.006703
878.7175	0.006197
878.9566	0.006281
879.1957	0.006260
879.4348	0.005438
879.6739	0.006112
879.9130	0.006892
880.1521	0.006998
880.3913	0.007441
880.6304	0.007904
880.8696	0.008052
881.1087	0.006618
881.3479	0.007630
881.5871	0.006703
881.8262	0.005227
882.0654	0.005902
882.3046	0.004974
882.5438	0.004868
882.7831	0.006344
883.0223	0.005859
883.2615	0.007441
883.5007	0.005796
883.7400	0.005754
883.9792	0.004194
884.2185	0.004953
884.4578	0.005100
884.6971	0.006323
884.9363	0.004953
885.1756	0.005606
885.4149	0.004489
885.6542	0.005965
885.8936	0.006070
886.1329	0.006365
886.3722	0.005079
886.6116	0.005965
886.8509	0.006176
887.0903	0.005649
887.3296	0.006892
887.5690	0.005649
887.8084	0.005058
888.0478	0.005248
888.2872	0.003793
888.5266	0.006281
888.7660	0.006049
889.0054	0.005353
889.2448	0.003899
889.4843	0.004131
889.7237	0.004594
889.9632	0.004826
890.2026	0.004953
890.4421	0.004868
890.6816	0.004025
890.9211	0.004131
891.1606	0.003983
891.4001	0.003519
891.6396	0.003582
891.8791	0.003667
892.1186	0.004067
892.3581	0.005058
892.5977	0.005290
892.8372	0.005543
893.0768	0.002697
893.3163	0.004109
893.5559	0.004299
893.7955	0.004552
894.0351	0.004868
894.2747	0.005649
894.5143	0.003751
894.7539	0.002971
894.9935	0.004552
895.2331	0.003878
895.4727	0.003498
895.7124	0.003456
895.9520	0.004447
896.1917	0.005164
896.4314	0.004109
896.6710	0.005016
896.9107	0.002781
897.1504	0.005100
897.3901	0.004510
897.6298	0.006344
897.8695	0.003920
898.1092	0.003751
898.3489	0.004194
898.5887	0.004573
898.8284	0.003793
899.0682	0.004341
899.3079	0.004531
899.5477	0.003793
899.7875	0.005121
900.0272	0.003625
900.2670	0.003540
900.5068	0.003793
900.7466	0.004405
900.9864	0.003540
901.2263	0.003646
901.4661	0.005079
901.7059	0.003962
901.9458	0.005185
902.1856	0.004721
902.4255	0.003667
902.6654	0.004278
902.9052	0.005248
903.1451	0.004890
903.3850	0.005143
903.6249	0.003962
903.8648	0.004763
904.1047	0.005290
904.3446	0.004721
904.5846	0.004510
904.8245	0.004173
905.0644	0.003350
905.3044	0.005269
905.5444	0.004742
905.7843	0.004868
906.0243	0.004405
906.2643	0.003688
906.5043	0.004890
906.7443	0.004573
906.9843	0.003793
907.2243	0.004679
907.4643	0.004004
907.7043	0.004362
907.9444	0.004362
908.1844	0.004552
908.4245	0.003393
908.6645	0.004341
908.9046	0.002507
909.1447	0.004257
909.3847	0.002275
909.6248	0.004531
909.8649	0.002992
910.1050	0.003646
910.3452	0.001579
910.5853	0.003540
910.8254	0.003034
911.0655	0.003856
911.3057	0.003878
911.5458	0.004004
911.7860	0.003835
912.0262	0.004173
912.2663	0.004067
912.5065	0.004531
912.7467	0.004489
912.9869	0.004868
913.2271	0.002971
913.4673	0.002381
913.7075	0.003582
913.9478	0.004131
914.1880	0.002360
914.4283	0.004341
914.6685	0.003962
914.9088	0.003435
915.1490	0.003097
915.3893	0.004763
915.6296	0.002507
915.8699	0.004531
916.1102	0.001369
916.3505	0.004552
916.5908	0.002971
916.8311	0.003435
917.0714	0.002254
917.3118	0.004637
917.5521	0.005164
917.7925	0.004510
918.0328	0.003561
918.2732	0.005269
918.5136	0.003329
918.7539	0.004067
918.9943	0.002697
919.2347	0.003076
919.4751	0.003119
919.7155	0.002950
919.9560	0.003751
920.1964	0.002971
920.4368	0.003140
920.6773	0.003540
920.9177	0.002950
921.1582	0.002929
921.3986	0.003519
921.6391	0.003477
921.8796	0.001896
922.1201	0.002823
922.3606	0.003119
922.6011	0.005058
922.8416	0.002191
923.0821	0.003540
923.3226	0.002402
923.5631	0.003203
923.8037	0.002760
924.0442	0.003456
924.2848	0.003730
924.5254	0.003983
924.7659	0.002233
925.0065	0.003266
925.2471	0.002444
925.4877	0.002465
925.7283	0.003034
925.9689	0.002697
926.2095	0.002887
926.4501	0.002781
926.6908	0.001390
926.9314	0.002570
927.1720	0.002149
927.4127	0.003856
927.6533	0.002950
927.8940	0.003519
928.1347	0.002570
928.3754	0.002022
928.6161	0.002613
928.8568	0.003245
929.0975	0.001811
929.3382	0.000378
929.5789	0.000694
929.8196	0.001917
930.0604	0.001242
930.3011	0.003287
930.5419	0.002149
930.7826	0.003435
931.0234	0.002866
931.2642	0.001095
931.5049	0.001242
931.7457	0.002507
931.9865	0.002866
932.2273	0.001369
932.4681	0.002423
932.7089	0.000968
932.9498	0.002149
933.1906	0.004763
933.4314	0.001748
933.6723	0.001643
933.9131	0.002781
934.1540	0.003350
934.3949	0.001052
934.6358	0.002570
934.8766	0.002191
935.1175	0.002887
935.3584	0.002107
935.5993	0.002739
935.8403	0.002908
936.0812	0.003603
936.3221	0.002233
936.5630	0.001854
936.8040	0.001832
937.0449	0.001854
937.2859	0.001284
937.5269	0.002549
937.7678	0.002022
938.0088	0.002317
938.2498	0.001221
938.4908	0.002149
938.7318	0.001453
938.9728	0.002486
939.2138	0.000989
939.4549	0.002465
939.6959	0.000778
939.9369	0.002655
940.1780	0.001558
940.4190	0.002212
940.6601	0.002170
940.9012	0.001158
941.1422	0.002233
941.3833	0.001432
941.6244	0.002381
941.8655	0.002043
942.1066	0.001073
942.3477	0.001896
942.5889	0.002001
942.8300	0.000525
943.0711	0.001917
943.3123	0.000293
943.5534	0.001516
943.7946	-0.000676
944.0357	0.001221
944.2769	0.000947
944.5181	0.001980
944.7593	0.002107
945.0005	0.002128
945.2417	0.002465
945.4829	0.001558
945.7241	0.001031
945.9653	0.001390
946.2066	0.001938
946.4478	0.002043
946.6891	0.001369
946.9303	0.000357
947.1716	0.001390
947.4128	0.000673
947.6541	0.002718
947.8954	0.001116
948.1367	0.000631
948.3780	0.001579
948.6193	0.001769
948.8606	0.001221
949.1019	0.002170
949.3433	0.002001
949.5846	0.002908
949.8259	0.001221
950.0673	0.000251
950.3086	0.002444
950.5500	0.000251
950.7914	0.002296
951.0327	0.001242
951.2741	0.002064
951.5155	0.001938
951.7569	0.002064
951.9983	0.001601
952.2398	0.000884
952.4812	0.001790
952.7226	0.002444
952.9640	0.001284
953.2055	0.002085
953.4469	0.000652
953.6884	0.001685
953.9299	0.002085
954.1713	0.001052
954.4128	0.001664
954.6543	0.002233
954.8958	0.001664
955.1373	0.002338
955.3788	0.001896
955.6203	0.002022
955.8618	0.001137
956.1034	0.002739
956.3449	0.000778
956.5865	0.003287
956.8280	0.001242
957.0696	0.002064
957.3111	0.000926
957.5527	0.001727
957.7943	0.001116
958.0359	0.002149
958.2775	0.001917
958.5191	0.000968
958.7607	0.001326
959.0023	0.001896
959.2439	0.000230
959.4856	0.000504
959.7272	0.001179
959.9688	0.000820
960.2105	0.001643
960.4522	0.002317
960.6938	0.001200
960.9355	0.002823
961.1772	0.002507
961.4189	0.000104
961.6606	0.000125
961.9023	0.001221
962.1440	0.000272
962.3857	0.000420
962.6274	0.000926
962.8692	0.000293
963.1109	0.001158
963.3527	0.001790
963.5944	0.001137
963.8362	0.001158
964.0779	0.001811
964.3197	0.000293
964.5615	0.000061
964.8033	0.000314
965.0451	0.001938
965.2869	0.001200
965.5287	0.001832
965.7705	0.002128
966.0123	0.000567
966.2542	0.001284
966.4960	0.001474
966.7379	0.001832
966.9797	0.000019
967.2216	0.001516
967.4634	0.000926
967.7053	0.001537
967.9472	0.000525
968.1891	0.001116
968.4310	0.001411
968.6729	0.001263
968.9148	0.001326
969.1567	0.001558
969.3987	0.001474
969.6406	0.002107
969.8825	0.000336
970.1245	0.001811
970.3664	0.000293
970.6084	0.002043
970.8504	0.001411
971.0923	0.002381
971.3343	0.002170
971.5763	0.000799
971.8183	0.000631
972.0603	0.000799
972.3023	-0.000255
972.5443	0.001116
972.7864	0.000799
973.0284	0.000040
973.2704	0.000019
973.5125	0.001748
973.7545	0.000125
973.9966	0.000757
974.2387	0.001558
974.4807	0.001579
974.7228	-0.000002
974.9649	0.001643
975.2070	-0.000445
975.4491	0.000757
975.6912	-0.000044
975.9333	0.001031
976.1755	0.000167
976.4176	0.002549
976.6597	0.001052
976.9019	0.000230
977.1440	0.001073
977.3862	0.001558
977.6283	0.002022
977.8705	0.002486
978.1127	0.001369
978.3549	0.000989
978.5971	0.000441
978.8393	0.000125
979.0815	0.001917
979.3237	0.001284
979.5659	0.001052
979.8082	0.001706
980.0504	0.001010
980.2926	0.000399
980.5349	0.000504
980.7771	0.001432
981.0194	0.000019
981.2617	0.001832
981.5040	-0.000423
981.7462	0.000715
981.9885	0.001622
982.2308	0.000989
982.4731	0.001010
982.7155	0.001769
982.9578	0.001748
983.2001	0.001095
983.4424	0.000462
983.6848	0.000546
983.9271	0.001348
984.1695	-0.001288
984.4118	0.000736
984.6542	0.000989
984.8966	-0.000149
985.1390	0.001938
985.3814	-0.000634
985.6238	0.002191
985.8662	0.000188
986.1086	0.000293
986.3510	-0.001541
986.5934	0.001390
986.8358	0.000610
987.0783	0.000441
987.3207	-0.000044
987.5632	0.001453
987.8056	0.001579
988.0481	0.000884
988.2906	0.000905
988.5331	0.000504
988.7756	0.000378
989.0180	0.000884
989.2605	-0.000402
989.5031	-0.000065
989.7456	0.000926
989.9881	0.002128
990.2306	0.001411
990.4732	0.000314
990.7157	0.001390
990.9582	0.001305
991.2008	0.001200
991.4434	0.001811
991.6859	-0.001140
991.9285	0.001369
992.1711	-0.000466
992.4137	0.000652
992.6563	-0.000740
992.8989	0.000926
993.1415	0.000546
993.3841	0.001263
993.6267	0.000019
993.8694	0.000420
994.1120	0.001474
994.3547	0.000610
994.5973	0.000884
994.8400	0.000188
995.0826	-0.000107
995.3253	0.002191
995.5680	0.000146
995.8107	0.001200
996.0534	0.000884
996.2961	0.000104
996.5388	-0.000423
996.7815	-0.000276
997.0242	0.001790
997.2670	0.000884
997.5097	-0.000002
997.7524	0.000820
997.9952	0.000019
998.2379	0.001116
998.4807	0.001727
998.7235	0.000799
998.9662	0.000799
999.2090	-0.000044
999.4518	0.000715
999.6946	0.001959
999.9374	-0.000149
1000.1802	0.001284
1000.4230	0.000631
1000.6659	-0.000086
1000.9087	0.001516
1001.1515	0.000778
1001.3944	0.001706
1001.6372	-0.000866
1001.8801	0.002402
1002.1230	-0.000613
1002.3658	0.000631
1002.6087	-0.001457
1002.8516	0.001348
1003.0945	0.000673
1003.3374	0.001832
1003.5803	0.000799
1003.8232	0.000441
1004.0661	0.002043
1004.3091	0.000989
1004.5520	0.001664
1004.7949	0.000336
1005.0379	0.000462
1005.2808	0.000968
1005.5238	0.000314
1005.7667	0.002444
1006.0097	0.000673
1006.2527	0.001095
1006.4957	0.000989
1006.7387	0.000546
1006.9817	0.001116
1007.2247	0.001432
1007.4677	0.000040
1007.7107	-0.001267
1007.9538	-0.000044
1008.1968	0.000631
1008.4398	0.001938
1008.6829	0.001516
1008.9259	0.000125
1009.1690	-0.000339
1009.4121	-0.000234
1009.6551	0.000694
1009.8982	0.000820
1010.1413	0.000652
1010.3844	0.001453
1010.6275	0.000947
1010.8706	-0.000234
1011.1137	0.001516
1011.3568	0.000378
1011.6000	0.000146
1011.8431	0.000251
1012.0863	0.001390
1012.3294	0.001073
1012.5726	0.001263
1012.8157	0.000610
1013.0589	0.002085
1013.3021	-0.000213
1013.5452	0.000314
1013.7884	0.000357
1014.0316	0.001432
1014.2748	0.000757
1014.5180	0.000778
1014.7613	0.001326
1015.0045	0.000293
1015.2477	0.000905
1015.4909	0.000652
1015.7342	-0.000508
1015.9774	0.001179
1016.2207	0.000399
1016.4640	0.001980
1016.7072	-0.000740
1016.9505	0.000314
1017.1938	0.000820
1017.4371	0.000757
1017.6804	0.001875
1017.9237	0.000462
1018.1670	0.001558
1018.4103	0.000884
1018.6536	0.000715
1018.8969	0.000715
1019.1403	0.000251
1019.3836	0.001095
1019.6270	0.000167
1019.8703	0.003140
1020.1137	-0.000192
1020.3571	0.000083
1020.6004	0.000820
1020.8438	0.001052
1021.0872	0.001200
1021.3306	0.000884
1021.5740	0.000420
1021.8174	-0.000529
1022.0608	-0.000719
1022.3042	-0.000381
1022.5477	0.001516
1022.7911	0.000820
1023.0345	-0.000002
