# Wavelength (nm)	Intensity (a.u.)
197.7802	0.000316
197.9842	-0.000991
198.1882	-0.000506
198.3922	-0.000232
198.5963	0.001413
198.8003	0.000063
199.0044	0.000295
199.2085	-0.001223
199.4126	0.001687
199.6168	-0.000253
199.8209	0.000696
200.0251	-0.001055
200.2292	-0.000759
200.4334	0.001350
200.6376	0.000696
200.8418	0.000569
201.0461	-0.000675
201.2503	0.000380
201.4546	0.000063
201.6589	-0.000654
201.8631	0.001455
202.0674	0.000084
202.2718	-0.000021
202.4761	0.000380
202.6805	-0.000633
202.8848	0.000232
203.0892	0.000105
203.2936	-0.000886
203.4980	0.001076
203.7024	0.000612
203.9069	0.001519
204.1113	0.000127
204.3158	0.000359
204.5203	-0.000316
204.7248	0.001498
204.9293	-0.000506
205.1338	0.000801
205.3384	0.001856
205.5430	0.000000
205.7475	-0.000970
205.9521	0.001455
206.1567	-0.001223
206.3614	-0.000696
206.5660	0.001139
206.7706	0.000337
206.9753	0.000612
207.1800	0.002067
207.3847	0.000127
207.5894	0.000654
207.7941	-0.001434
207.9989	0.000148
208.2036	0.000569
208.4084	0.001498
208.6132	-0.000253
208.8180	0.000105
209.0228	0.000380
209.2276	0.001160
209.4325	0.001012
209.6373	-0.001266
209.8422	0.000359
210.0471	0.001055
210.2520	0.000991
210.4569	0.000759
210.6618	0.000591
210.8668	0.000949
211.0718	-0.000232
211.2767	0.002426
211.4817	-0.001097
211.6867	0.000380
211.8918	0.000548
212.0968	0.000485
212.3018	0.000253
212.5069	0.001498
212.7120	0.000591
212.9171	0.000654
213.1222	-0.000928
213.3273	0.000886
213.5325	-0.000211
213.7376	0.001413
213.9428	-0.000211
214.1480	0.001708
214.3532	-0.000190
214.5584	-0.000274
214.7636	0.000991
214.9689	0.000401
215.1741	0.000105
215.3794	0.001898
215.5847	-0.000295
215.7900	0.000485
215.9953	-0.000591
216.2007	0.002257
216.4060	0.000612
216.6114	0.000801
216.8168	-0.001751
217.0222	0.001455
217.2276	-0.000464
217.4330	-0.000105
217.6384	0.000190
217.8439	0.000337
218.0494	-0.000527
218.2548	0.001962
218.4603	0.001498
218.6659	-0.000759
218.8714	-0.000084
219.0769	0.001561
219.2825	0.001076
219.4881	0.000359
219.6936	0.000021
219.8992	0.000021
220.1049	0.000021
220.3105	-0.000042
220.5161	-0.001202
220.7218	0.001097
220.9275	-0.000232
221.1332	0.000316
221.3389	0.000569
221.5446	-0.000105
221.7503	0.000548
221.9561	0.000970
222.1618	-0.000295
222.3676	0.001476
222.5734	0.000211
222.7792	0.000569
222.9850	0.000464
223.1909	-0.000295
223.3967	0.000337
223.6026	0.000759
223.8085	0.000780
224.0144	0.000717
224.2203	-0.000021
224.4262	0.000759
224.6322	0.000654
224.8381	0.000612
225.0441	-0.000548
225.2501	-0.000569
225.4561	0.000443
225.6621	-0.000063
225.8681	0.000148
226.0742	0.001160
226.2802	0.000633
226.4863	0.001118
226.6924	0.001624
226.8985	0.000359
227.1046	-0.001582
227.3107	0.000485
227.5169	0.000633
227.7230	0.001202
227.9292	0.000169
228.1354	0.000316
228.3416	0.000401
228.5478	0.001202
228.7541	0.000422
228.9603	-0.000295
229.1666	-0.000717
229.3729	0.000633
229.5791	0.001708
229.7855	-0.000084
229.9918	-0.000865
230.1981	-0.000021
230.4045	0.001392
230.6108	0.000105
230.8172	-0.000612
231.0236	-0.000127
231.2300	-0.000443
231.4364	-0.000422
231.6429	-0.000042
231.8493	0.001202
232.0558	0.000190
232.2623	0.000359
232.4688	0.001498
232.6753	0.000337
232.8818	0.000591
233.0884	0.000928
233.2949	0.000801
233.5015	0.000359
233.7081	-0.000527
233.9147	-0.000443
234.1213	0.000591
234.3279	0.001223
234.5346	-0.000949
234.7413	-0.001076
234.9479	0.000696
235.1546	0.000422
235.3613	-0.000316
235.5680	0.001244
235.7748	0.000823
235.9815	0.000949
236.1883	-0.000591
236.3951	0.000232
236.6018	0.001371
236.8087	0.000717
237.0155	0.000359
237.2223	0.000127
237.4292	0.000823
237.6360	0.000633
237.8429	-0.000105
238.0498	0.000612
238.2567	-0.000084
238.4636	-0.000232
238.6706	0.000991
238.8775	0.000569
239.0845	0.000485
239.2915	0.001076
239.4985	0.000569
239.7055	0.001308
239.9125	0.000844
240.1195	0.001371
240.3266	-0.000021
240.5337	0.000148
240.7407	-0.000084
240.9478	-0.000169
241.1549	-0.000316
241.3621	-0.000042
241.5692	-0.000316
241.7764	0.001076
241.9835	0.001076
242.1907	0.001687
242.3979	0.001287
242.6051	0.000970
242.8124	0.000506
243.0196	-0.000211
243.2269	0.000717
243.4341	0.001266
243.6414	-0.000464
243.8487	-0.000295
244.0560	-0.000380
244.2634	0.001223
244.4707	-0.000190
244.6781	0.000274
244.8854	0.000190
245.0928	0.000928
245.3002	-0.000063
245.5076	0.000316
245.7151	-0.001476
245.9225	0.000211
246.1300	-0.000211
246.3375	0.000738
246.5449	0.000675
246.7524	0.001118
246.9600	0.000148
247.1675	0.000759
247.3750	-0.001055
247.5826	0.000569
247.7902	0.000717
247.9978	0.001202
248.2054	0.000084
248.4130	0.001624
248.6206	-0.000316
248.8283	0.001266
249.0359	-0.000316
249.2436	-0.000759
249.4513	-0.000717
249.6590	0.001118
249.8667	0.001519
250.0745	-0.001540
250.2822	0.001455
250.4900	0.000591
250.6978	-0.000633
250.9056	-0.000042
251.1134	0.000548
251.3212	0.002594
251.5290	-0.000506
251.7369	0.000612
251.9447	-0.000380
252.1526	0.000316
252.3605	-0.000021
252.5684	0.000907
252.7763	0.000190
252.9843	0.001371
253.1922	0.000337
253.4002	-0.000274
253.6082	-0.000823
253.8162	0.001012
254.0242	0.001540
254.2322	0.001751
254.4402	-0.000485
254.6483	0.000886
254.8564	0.001350
255.0644	-0.000569
255.2725	-0.001223
255.4806	-0.000274
255.6888	0.000548
255.8969	0.000970
256.1051	-0.000063
256.3132	-0.000633
256.5214	-0.000105
256.7296	-0.000907
256.9378	-0.000591
257.1460	0.000527
257.3543	0.000401
257.5625	0.000000
257.7708	0.000506
257.9791	-0.000443
258.1874	-0.000738
258.3957	-0.000253
258.6040	0.000949
258.8124	0.000738
259.0207	0.001118
259.2291	-0.000485
259.4375	0.000169
259.6459	0.000991
259.8543	-0.000148
260.0627	0.000105
260.2711	-0.000190
260.4796	0.001455
260.6881	-0.000401
260.8965	0.000823
261.1050	-0.000359
261.3135	0.001919
261.5221	0.000337
261.7306	0.000485
261.9392	0.001413
262.1477	0.000591
262.3563	0.001244
262.5649	0.001012
262.7735	0.000063
262.9822	0.000654
263.1908	0.000232
263.3995	-0.000021
263.6081	-0.000316
263.8168	0.000907
264.0255	-0.000928
264.2342	-0.000654
264.4429	0.000527
264.6517	0.001624
264.8604	-0.000148
265.0692	0.000717
265.2780	-0.000380
265.4868	0.000253
265.6956	0.000253
265.9044	0.000696
266.1133	0.001772
266.3221	0.000991
266.5310	0.001519
266.7399	0.001012
266.9488	-0.000633
267.1577	0.000633
267.3666	-0.000232
267.5755	0.000569
267.7845	-0.000042
267.9935	0.000738
268.2024	-0.000633
268.4114	0.000127
268.6205	-0.000823
268.8295	0.000084
269.0385	0.000127
269.2476	0.000991
269.4566	0.000274
269.6657	0.001856
269.8748	-0.000422
270.0839	0.000991
270.2931	0.000316
270.5022	0.000464
270.7114	-0.001287
270.9205	0.000401
271.1297	0.000232
271.3389	-0.000823
271.5481	0.000084
271.7573	-0.000253
271.9666	-0.000211
272.1758	-0.000928
272.3851	0.000190
272.5944	0.000738
272.8037	-0.000485
273.0130	0.000042
273.2223	0.001055
273.4316	0.001076
273.6410	0.000063
273.8504	-0.000063
274.0597	-0.000127
274.2691	0.000401
274.4785	-0.001287
274.6880	0.000738
274.8974	0.000738
275.1069	-0.001097
275.3163	-0.000169
275.5258	-0.000211
275.7353	0.001076
275.9448	-0.000211
276.1543	-0.000591
276.3639	0.001371
276.5734	0.001708
276.7830	0.001033
276.9926	0.000759
277.2022	-0.000591
277.4118	-0.001012
277.6214	0.000337
277.8310	-0.000422
278.0407	-0.000084
278.2503	-0.000780
278.4600	0.000232
278.6697	0.000232
278.8794	0.000232
279.0891	0.000780
279.2989	0.000928
279.5086	0.000485
279.7184	0.001455
279.9281	-0.001413
280.1379	0.001097
280.3477	-0.000211
280.5576	-0.001392
280.7674	0.000612
280.9772	0.000443
281.1871	0.001076
281.3970	0.001076
281.6069	-0.000991
281.8168	0.001371
282.0267	0.000422
282.2366	0.000907
282.4466	-0.000253
282.6565	0.000717
282.8665	-0.000042
283.0765	0.001856
283.2865	0.001350
283.4965	0.001202
283.7065	0.000991
283.9166	0.001139
284.1266	-0.000253
284.3367	-0.000084
284.5468	-0.000084
284.7569	-0.000401
284.9670	0.000633
285.1771	0.001350
285.3873	0.000464
285.5974	0.000612
285.8076	0.000190
286.0178	0.000696
286.2280	0.000295
286.4382	0.000949
286.6484	-0.001012
286.8587	0.001076
287.0689	-0.000612
287.2792	0.001772
287.4895	0.001118
287.6998	0.000359
287.9101	-0.001266
288.1204	0.001856
288.3308	-0.000696
288.5411	0.000485
288.7515	0.000907
288.9619	0.000253
289.1723	-0.000148
289.3827	0.000380
289.5931	0.001012
289.8035	0.000949
290.0140	-0.001308
290.2245	0.000042
290.4349	0.000190
290.6454	0.001835
290.8559	-0.000569
291.0665	0.000569
291.2770	-0.000696
291.4875	0.000127
291.6981	0.000970
291.9087	0.000485
292.1193	0.000190
292.3299	0.000316
292.5405	0.000211
292.7511	0.000274
292.9618	0.000949
293.1724	0.001266
293.3831	0.000780
293.5938	0.000717
293.8045	-0.000316
294.0152	0.000780
294.2260	-0.000211
294.4367	-0.000169
294.6475	-0.000148
294.8582	-0.000485
295.0690	0.000422
295.2798	0.000675
295.4906	-0.000169
295.7015	0.001287
295.9123	-0.000232
296.1232	0.000274
296.3340	0.001455
296.5449	0.000780
296.7558	-0.000464
296.9667	0.000907
297.1777	-0.000211
297.3886	-0.000443
297.5995	0.000738
297.8105	0.000569
298.0215	-0.000211
298.2325	0.002847
298.4435	0.000865
298.6545	0.001730
298.8656	-0.000359
299.0766	0.002236
299.2877	-0.000021
299.4988	0.001139
299.7099	0.000928
299.9210	0.001582
300.1321	-0.000148
300.3432	0.000422
300.5544	-0.000274
300.7655	-0.000127
300.9767	-0.000443
301.1879	0.000527
301.3991	0.000823
301.6103	-0.000548
301.8215	0.002172
302.0328	0.000844
302.2441	0.001181
302.4553	0.002341
302.6666	0.001877
302.8779	-0.000422
303.0892	0.000738
303.3006	0.001287
303.5119	0.000253
303.7233	0.001730
303.9346	-0.001266
304.1460	-0.000021
304.3574	0.001962
304.5688	-0.000991
304.7803	0.000696
304.9917	-0.000337
305.2031	0.000633
305.4146	0.000380
305.6261	-0.000717
305.8376	0.000780
306.0491	0.000422
306.2606	0.000696
306.4722	0.000780
306.6837	-0.000506
306.8953	-0.000654
307.1069	0.000949
307.3184	0.001012
307.5301	0.000696
307.7417	-0.000169
307.9533	0.001687
308.1650	0.000021
308.3766	0.002194
308.5883	0.000274
308.8000	0.001160
309.0117	0.000865
309.2234	0.000823
309.4351	-0.001266
309.6469	-0.000696
309.8586	0.001814
310.0704	0.001413
310.2822	0.000190
310.4940	0.000211
310.7058	0.000569
310.9176	-0.000232
311.1295	0.000759
311.3413	0.000780
311.5532	-0.000274
311.7651	0.002109
311.9770	-0.000401
312.1889	0.000422
312.4008	0.001118
312.6127	0.001476
312.8247	0.000970
313.0366	-0.000633
313.2486	0.000823
313.4606	0.001097
313.6726	-0.000633
313.8846	0.001498
314.0967	-0.001223
314.3087	0.000780
314.5208	0.000949
314.7328	0.000991
314.9449	-0.000316
315.1570	0.001033
315.3692	-0.000949
315.5813	0.002531
315.7934	0.001434
316.0056	0.002615
316.2177	0.000422
316.4299	0.000063
316.6421	0.000759
316.8543	0.000401
317.0666	0.000000
317.2788	0.000148
317.4911	-0.000506
317.7033	0.001498
317.9156	0.000865
318.1279	0.001730
318.3402	-0.000675
318.5525	-0.000232
318.7649	0.000928
318.9772	0.001181
319.1896	-0.000148
319.4019	0.000865
319.6143	-0.001181
319.8267	0.001582
320.0392	-0.000211
320.2516	0.000591
320.4640	0.000991
320.6765	0.000612
320.8890	0.001392
321.1014	-0.000548
321.3139	0.001329
321.5265	0.000337
321.7390	0.000274
321.9515	0.000084
322.1641	-0.000105
322.3766	0.000380
322.5892	-0.000970
322.8018	0.001498
323.0144	0.000801
323.2270	0.001666
323.4397	-0.000949
323.6523	0.000169
323.8650	0.000127
324.0777	0.002025
324.2904	-0.000211
324.5031	0.000717
324.7158	0.000928
324.9285	0.000485
325.1412	-0.000865
325.3540	0.001266
325.5668	-0.001793
325.7796	0.000991
325.9924	0.001498
326.2052	0.001582
326.4180	-0.000148
326.6308	0.000886
326.8437	-0.000021
327.0566	0.001856
327.2694	-0.001012
327.4823	0.000717
327.6952	0.000401
327.9082	0.001244
328.1211	0.000928
328.3340	0.000928
328.5470	0.000105
328.7600	0.000780
328.9730	0.000527
329.1860	0.001076
329.3990	-0.001012
329.6120	0.001434
329.8251	0.001793
330.0381	-0.000949
330.2512	0.000506
330.4643	0.000970
330.6774	0.000865
330.8905	0.000232
331.1036	-0.001413
331.3167	0.001160
331.5299	0.000527
331.7431	-0.000527
331.9562	0.000801
332.1694	0.001898
332.3826	0.000443
332.5959	0.001223
332.8091	0.000337
333.0223	0.000527
333.2356	-0.001287
333.4489	0.001097
333.6622	-0.000548
333.8755	-0.000717
334.0888	0.001097
334.3021	-0.000063
334.5154	-0.000759
334.7288	0.001181
334.9422	-0.000485
335.1555	0.001329
335.3689	0.000591
335.5823	0.000464
335.7958	0.000380
336.0092	0.001012
336.2227	-0.000042
336.4361	0.000422
336.6496	-0.000717
336.8631	0.000337
337.0766	0.000612
337.2901	0.001012
337.5036	0.000506
337.7172	0.001666
337.9307	0.000464
338.1443	0.000105
338.3579	-0.000844
338.5715	0.001202
338.7851	0.000844
338.9987	0.000801
339.2124	0.000844
339.4260	-0.000422
339.6397	-0.000316
339.8533	0.000949
340.0670	-0.000274
340.2807	0.000548
340.4945	-0.001202
340.7082	0.001603
340.9219	-0.000211
341.1357	0.000021
341.3495	0.000717
341.5633	0.000591
341.7771	-0.000063
341.9909	0.000105
342.2047	-0.000127
342.4185	0.000127
342.6324	-0.000443
342.8463	0.001244
343.0601	-0.001434
343.2740	-0.000548
343.4879	0.000654
343.7019	0.000801
343.9158	-0.000506
344.1297	0.001076
344.3437	0.001139
344.5577	0.000422
344.7717	0.000738
344.9857	0.000422
345.1997	-0.000485
345.4137	-0.000169
345.6277	0.000991
345.8418	0.000042
346.0559	0.000696
346.2699	0.001793
346.4840	0.000042
346.6981	0.000780
346.9123	0.000696
347.1264	-0.000738
347.3406	0.000485
347.5547	0.000991
347.7689	0.000696
347.9831	0.000401
348.1973	0.000991
348.4115	0.000970
348.6257	0.000337
348.8400	0.000401
349.0542	0.000717
349.2685	0.000316
349.4828	-0.000738
349.6971	0.000485
349.9114	0.000021
350.1257	0.000759
350.3400	-0.000527
350.5544	0.000084
350.7687	0.000759
350.9831	0.000337
351.1975	-0.000865
351.4119	0.001561
351.6263	0.000084
351.8407	0.001202
352.0552	-0.000422
352.2696	-0.000148
352.4841	-0.000633
352.6986	0.001139
352.9131	-0.000337
353.1276	0.000717
353.3421	-0.000591
353.5566	0.001076
353.7712	0.000337
353.9858	0.000232
354.2003	-0.000527
354.4149	-0.001033
354.6295	0.000443
354.8441	0.001751
355.0588	0.000211
355.2734	0.000401
355.4881	0.000780
355.7027	0.000190
355.9174	0.001835
356.1321	0.001898
356.3468	0.000422
356.5615	0.000886
356.7763	0.000401
356.9910	0.000527
357.2058	0.001033
357.4206	0.000633
357.6353	0.000148
357.8501	-0.000127
358.0650	-0.000190
358.2798	0.000190
358.4946	0.001350
358.7095	0.000148
358.9243	-0.000633
359.1392	0.000991
359.3541	-0.000105
359.5690	0.000274
359.7839	-0.000548
359.9989	0.001033
360.2138	0.000316
360.4288	0.001919
360.6438	0.000612
360.8587	-0.000907
361.0737	-0.001076
361.2888	0.001076
361.5038	0.000569
361.7188	0.000337
361.9339	-0.000148
362.1489	0.000633
362.3640	0.000464
362.5791	0.001645
362.7942	-0.000780
363.0093	0.001329
363.2245	0.000506
363.4396	-0.000380
363.6548	-0.000675
363.8699	0.001476
364.0851	-0.000084
364.3003	0.000886
364.5155	-0.000991
364.7308	0.002046
364.9460	0.000907
365.1612	0.001160
365.3765	-0.000823
365.5918	0.000401
365.8071	0.000865
366.0224	-0.001033
366.2377	0.000337
366.4530	0.000844
366.6684	-0.000886
366.8837	0.001350
367.0991	-0.000443
367.3145	0.000696
367.5299	0.000253
367.7453	-0.000169
367.9607	0.000422
368.1761	-0.000084
368.3916	0.000591
368.6070	0.000232
368.8225	0.001012
369.0380	0.001329
369.2535	-0.001055
369.4690	0.000042
369.6845	0.001645
369.9001	-0.000886
370.1156	-0.000654
370.3312	0.000274
370.5468	0.000253
370.7624	0.000401
370.9780	-0.000591
371.1936	0.000928
371.4092	0.001287
371.6249	0.000464
371.8405	0.001118
372.0562	0.000949
372.2719	0.000380
372.4876	0.001371
372.7033	-0.000316
372.9190	0.000928
373.1348	0.000443
373.3505	0.000485
373.5663	0.000169
373.7820	0.000823
373.9978	-0.000021
374.2136	0.000569
374.4294	-0.000696
374.6453	0.000485
374.8611	0.001097
375.0770	-0.000253
375.2928	0.000823
375.5087	0.000211
375.7246	-0.000127
375.9405	-0.000422
376.1564	0.000359
376.3724	0.000211
376.5883	-0.000169
376.8043	-0.000274
377.0203	-0.000274
377.2362	0.000443
377.4522	-0.000780
377.6682	-0.000401
377.8843	-0.000780
378.1003	0.000485
378.3164	0.000612
378.5324	0.002531
378.7485	-0.000527
378.9646	0.000527
379.1807	-0.000654
379.3968	0.000991
379.6129	0.000359
379.8291	-0.000506
380.0452	-0.001097
380.2614	0.000696
380.4776	-0.000021
380.6938	0.000148
380.9100	0.001012
381.1262	0.000042
381.3424	-0.000253
381.5587	-0.000485
381.7749	-0.000359
381.9912	0.000148
382.2075	0.000127
382.4238	0.000021
382.6401	-0.000569
382.8564	0.001223
383.0728	0.002109
383.2891	0.000612
383.5055	0.000738
383.7219	-0.000063
383.9382	-0.000359
384.1546	0.001413
384.3711	0.001139
384.5875	-0.000042
384.8039	0.000991
385.0204	0.000738
385.2368	-0.000422
385.4533	0.000337
385.6698	0.000337
385.8863	0.001371
386.1028	0.000591
386.3194	0.002130
386.5359	0.000949
386.7525	0.000042
386.9690	-0.000063
387.1856	0.000253
387.4022	-0.000169
387.6188	0.002257
387.8355	0.002911
388.0521	0.002868
388.2687	0.001835
388.4854	0.003185
388.7021	0.000696
388.9188	0.001392
389.1355	0.002510
389.3522	0.002151
389.5689	0.002636
389.7856	0.001308
390.0024	0.002426
390.2192	0.003944
390.4359	0.003733
390.6527	0.003248
390.8695	0.002383
391.0863	0.004682
391.3032	0.003354
391.5200	0.004450
391.7369	0.002447
391.9537	0.004851
392.1706	0.005294
392.3875	0.006538
392.6044	0.004324
392.8213	0.005863
393.0383	0.006960
393.2552	0.006096
393.4722	0.006538
393.6891	0.006538
393.9061	0.007614
394.1231	0.005695
394.3401	0.006538
394.5572	0.005990
394.7742	0.007192
394.9912	0.006770
395.2083	0.006855
395.4254	0.007213
395.6425	0.007403
395.8596	0.007677
396.0767	0.008479
396.2938	0.008922
396.5109	0.008120
396.7281	0.009660
396.9453	0.008394
397.1624	0.009955
397.3796	0.010672
397.5968	0.010483
397.8140	0.010145
398.0313	0.012149
398.2485	0.010525
398.4658	0.011727
398.6830	0.012571
398.9003	0.012528
399.1176	0.012064
399.3349	0.012908
399.5522	0.012381
399.7696	0.014131
399.9869	0.013731
400.2043	0.012296
400.4216	0.014110
400.6390	0.012275
400.8564	0.014490
401.0738	0.013414
401.2912	0.014068
401.5087	0.013710
401.7261	0.013689
401.9436	0.014195
402.1610	0.014174
402.3785	0.014701
402.5960	0.013562
402.8135	0.014237
403.0310	0.013625
403.2486	0.014342
403.4661	0.013435
403.6837	0.013667
403.9013	0.014680
404.1189	0.015376
404.3365	0.016241
404.5541	0.015903
404.7717	0.016241
404.9893	0.017232
405.2070	0.017675
405.4246	0.016409
405.6423	0.018012
405.8600	0.016557
406.0777	0.017422
406.2954	0.018476
406.5131	0.018603
406.7309	0.016536
406.9486	0.016852
407.1664	0.017063
407.3842	0.015734
407.6020	0.016894
407.8198	0.015777
408.0376	0.016979
408.2554	0.017949
408.4733	0.018476
408.6911	0.017928
408.9090	0.019215
409.1269	0.017886
409.3448	0.017527
409.5627	0.018265
409.7806	0.019025
409.9985	0.018076
410.2165	0.018434
410.4344	0.018308
410.6524	0.018708
410.8704	0.018624
411.0884	0.016262
411.3064	0.018497
411.5244	0.017612
411.7424	0.019383
411.9605	0.018033
412.1785	0.018540
412.3966	0.018898
412.6147	0.020311
412.8328	0.018455
413.0509	0.019932
413.2690	0.020079
413.4871	0.019531
413.7053	0.018476
413.9234	0.021387
414.1416	0.019552
414.3598	0.020079
414.5780	0.019362
414.7962	0.018223
415.0144	0.019215
415.2326	0.019826
415.4509	0.018582
415.6692	0.020522
415.8874	0.020037
416.1057	0.020058
416.3240	0.021514
416.5423	0.019362
416.7606	0.019995
416.9790	0.018919
417.1973	0.019805
417.4157	0.020185
417.6341	0.018814
417.8524	0.020269
418.0708	0.020459
418.2893	0.020522
418.5077	0.020881
418.7261	0.019447
418.9446	0.017337
419.1630	0.021176
419.3815	0.019953
419.6000	0.020185
419.8185	0.019784
420.0370	0.020143
420.2555	0.021956
420.4741	0.020649
420.6926	0.021872
420.9112	0.021260
421.1298	0.022125
421.3483	0.024045
421.5669	0.025141
421.7856	0.026533
422.0042	0.025985
422.2228	0.025458
422.4415	0.024804
422.6601	0.023581
422.8788	0.022695
423.0975	0.022969
423.3162	0.022083
423.5349	0.024045
423.7536	0.022252
423.9724	0.022273
424.1911	0.021682
424.4099	0.022652
424.6287	0.020796
424.8475	0.023264
425.0663	0.021324
425.2851	0.020396
425.5039	0.023391
425.7228	0.021028
425.9416	0.020269
426.1605	0.021978
426.3793	0.018202
426.5982	0.019742
426.8171	0.019468
427.0361	0.019320
427.2550	0.024045
427.4739	0.023011
427.6929	0.023243
427.9118	0.023032
428.1308	0.020796
428.3498	0.022674
428.5688	0.020607
428.7878	0.019995
429.0068	0.020501
429.2259	0.021387
429.4449	0.022252
429.6640	0.021408
429.8831	0.023581
430.1022	0.023749
430.3213	0.022631
430.5404	0.025036
430.7595	0.023686
430.9787	0.023707
431.1978	0.023728
431.4170	0.022315
431.6362	0.020290
431.8553	0.020185
432.0745	0.019995
432.2938	0.020353
432.5130	0.019995
432.7322	0.019320
432.9515	0.020248
433.1707	0.019953
433.3900	0.020733
433.6093	0.021577
433.8286	0.023032
434.0479	0.023011
434.2673	0.023581
434.4866	0.020121
434.7059	0.021282
434.9253	0.019826
435.1447	0.018898
435.3641	0.020269
435.5835	0.020628
435.8029	0.018540
436.0223	0.017211
436.2418	0.021914
436.4612	0.019826
436.6807	0.021577
436.9001	0.019763
437.1196	0.020628
437.3391	0.020564
437.5586	0.020206
437.7782	0.019552
437.9977	0.019425
438.2173	0.019889
438.4368	0.018645
438.6564	0.020311
438.8760	0.020417
439.0956	0.021071
439.3152	0.022526
439.5348	0.020754
439.7545	0.021598
439.9741	0.021324
440.1938	0.019552
440.4135	0.019721
440.6331	0.019742
440.8528	0.020353
441.0725	0.021851
441.2923	0.021914
441.5120	0.024762
441.7318	0.023264
441.9515	0.024762
442.1713	0.021598
442.3911	0.022041
442.6109	0.024066
442.8307	0.021408
443.0505	0.021408
443.2703	0.021598
443.4902	0.021935
443.7101	0.022125
443.9299	0.021492
444.1498	0.021113
444.3697	0.022062
444.5896	0.021324
444.8095	0.020332
445.0295	0.020269
445.2494	0.021830
445.4694	0.020965
445.6894	0.020564
445.9093	0.021956
446.1293	0.019193
446.3493	0.020902
446.5694	0.019489
446.7894	0.019151
447.0094	0.021450
447.2295	0.018666
447.4496	0.017970
447.6696	0.019404
447.8897	0.021155
448.1098	0.018139
448.3300	0.018961
448.5501	0.018012
448.7702	0.018835
448.9904	0.018856
449.2106	0.018118
449.4307	0.019510
449.6509	0.019067
449.8711	0.019911
450.0914	0.016747
450.3116	0.017633
450.5318	0.017717
450.7521	0.017991
450.9724	0.016051
451.1926	0.015903
451.4129	0.017422
451.6332	0.017422
451.8535	0.017084
452.0739	0.016241
452.2942	0.017232
452.5146	0.016831
452.7349	0.016156
452.9553	0.015460
453.1757	0.016177
453.3961	0.014996
453.6165	0.014300
453.8369	0.015418
454.0574	0.014912
454.2778	0.014342
454.4983	0.014617
454.7188	0.015502
454.9393	0.014617
455.1597	0.014785
455.3803	0.013604
455.6008	0.014258
455.8213	0.014806
456.0419	0.014469
456.2624	0.012950
456.4830	0.013710
456.7036	0.013309
456.9242	0.012592
457.1448	0.013899
457.3654	0.013330
457.5860	0.014511
457.8067	0.014891
458.0274	0.015081
458.2480	0.014701
458.4687	0.015270
458.6894	0.013646
458.9101	0.014089
459.1308	0.014216
459.3516	0.013351
459.5723	0.012360
459.7931	0.013225
460.0138	0.012676
460.2346	0.013267
460.4554	0.013414
460.6762	0.011158
460.8970	0.013457
461.1178	0.013667
461.3387	0.012550
461.5595	0.012043
461.7804	0.011959
462.0013	0.011917
462.2222	0.011073
462.4431	0.010440
462.6640	0.010862
462.8849	0.011390
463.1059	0.009660
463.3268	0.010968
463.5478	0.011896
463.7687	0.011790
463.9897	0.011432
464.2107	0.011010
464.4317	0.012191
464.6528	0.013689
464.8738	0.011832
465.0948	0.010926
465.3159	0.011706
465.5370	0.012381
465.7581	0.011854
465.9792	0.011516
466.2003	0.013014
466.4214	0.012128
466.6425	0.010103
466.8637	0.011622
467.0848	0.010440
467.3060	0.009091
467.5272	0.009955
467.7484	0.008711
467.9696	0.009808
468.1908	0.010314
468.4120	0.008015
468.6333	0.009344
468.8545	0.006707
469.0758	0.008542
469.2970	0.008184
469.5183	0.009217
469.7396	0.008268
469.9610	0.007466
470.1823	0.009048
470.4036	0.007994
470.6250	0.006074
470.8463	0.005737
471.0677	0.006475
471.2891	0.007340
471.5105	0.007129
471.7319	0.006011
471.9533	0.007445
472.1748	0.007129
472.3962	0.005842
472.6177	0.005104
472.8391	0.005631
473.0606	0.006770
473.2821	0.008500
473.5036	0.006960
473.7251	0.006560
473.9467	0.007846
474.1682	0.007614
474.3898	0.006285
474.6113	0.006770
474.8329	0.006960
475.0545	0.006728
475.2761	0.008416
475.4977	0.006391
475.7193	0.006623
475.9410	0.006159
476.1626	0.005737
476.3843	0.005378
476.6060	0.005969
476.8277	0.005041
477.0494	0.006391
477.2711	0.006496
477.4928	0.004872
477.7145	0.005421
477.9363	0.006264
478.1580	0.005568
478.3798	0.006117
478.6016	0.005083
478.8234	0.003944
479.0452	0.006180
479.2670	0.005674
479.4888	0.005167
479.7107	0.006475
479.9325	0.005505
480.1544	0.007087
480.3763	0.006306
480.5982	0.005041
480.8201	0.005800
481.0420	0.006433
481.2639	0.004282
481.4859	0.005589
481.7078	0.005653
481.9298	0.005252
482.1517	0.004239
482.3737	0.005210
482.5957	0.003332
482.8177	0.004029
483.0398	0.004366
483.2618	0.004471
483.4838	0.004408
483.7059	0.004788
483.9280	0.005125
484.1501	0.004050
484.3721	0.005062
484.5943	0.005906
484.8164	0.003712
485.0385	0.005568
485.2606	0.005231
485.4828	0.007002
485.7050	0.011811
485.9271	0.014026
486.1493	0.014153
486.3715	0.011748
486.5937	0.008901
486.8160	0.007488
487.0382	0.006560
487.2605	0.007213
487.4827	0.004619
487.7050	0.004261
487.9273	0.004113
488.1496	0.003227
488.3719	0.003649
488.5942	0.004345
488.8165	0.004197
489.0389	0.004408
489.2612	0.003628
489.4836	0.002573
489.7060	0.002067
489.9284	0.004450
490.1508	0.003607
490.3732	0.004914
490.5956	0.003185
490.8180	0.002890
491.0405	0.003185
491.2630	0.003206
491.4854	0.003290
491.7079	0.002531
491.9304	0.002130
492.1529	0.003923
492.3755	0.002847
492.5980	0.002510
492.8205	0.003227
493.0431	0.003016
493.2657	0.002046
493.4882	0.003733
493.7108	0.001940
493.9334	0.002552
494.1561	0.002025
494.3787	0.003564
494.6013	0.002573
494.8240	0.002172
495.0466	0.003122
495.2693	0.002468
495.4920	0.002615
495.7147	0.002658
495.9374	0.002763
496.1601	0.003206
496.3829	0.003143
496.6056	0.002615
496.8284	0.003417
497.0511	0.003797
497.2739	0.002847
497.4967	0.003227
497.7195	0.002763
497.9423	0.002763
498.1652	0.002278
498.3880	0.002320
498.6109	0.002362
498.8337	0.002700
499.0566	0.002088
499.2795	0.002109
499.5024	0.002404
499.7253	0.002194
499.9482	0.003459
500.1712	0.003522
500.3941	0.002362
500.6171	0.003311
500.8400	0.002088
501.0630	0.002868
501.2860	0.002763
501.5090	0.001856
501.7320	0.001814
501.9551	0.002679
502.1781	0.002194
502.4012	0.002890
502.6242	0.002215
502.8473	0.002890
503.0704	0.002362
503.2935	0.001856
503.5166	0.002341
503.7397	0.002215
503.9628	0.001624
504.1860	0.003628
504.4092	0.002067
504.6323	0.000654
504.8555	0.002510
505.0787	0.002700
505.3019	0.003122
505.5251	0.002489
505.7483	0.001856
505.9716	0.001392
506.1948	0.001561
506.4181	0.001244
506.6414	0.002721
506.8647	0.002573
507.0880	0.002362
507.3113	0.002278
507.5346	0.002025
507.7579	0.003016
507.9813	0.002404
508.2046	0.002109
508.4280	0.002573
508.6514	0.003016
508.8748	0.001898
509.0982	0.002088
509.3216	0.002552
509.5450	0.001793
509.7685	0.002299
509.9919	0.002194
510.2154	0.001413
510.4388	0.002721
510.6623	0.002447
510.8858	0.002489
511.1093	0.001962
511.3329	0.003733
511.5564	0.000696
511.7799	0.000928
512.0035	0.001772
512.2270	0.003037
512.4506	0.003501
512.6742	0.003818
512.8978	0.002447
513.1214	0.002805
513.3451	0.001392
513.5687	0.002130
513.7923	0.000991
514.0160	0.003375
514.2397	0.003417
514.4634	0.003290
514.6871	0.001434
514.9108	0.002552
515.1345	0.002004
515.3582	0.003332
515.5819	0.001898
515.8057	0.000844
516.0295	0.001181
516.2532	0.002109
516.4770	0.001582
516.7008	0.002658
516.9246	0.001266
517.1485	0.002278
517.3723	0.002868
517.5961	0.002447
517.8200	0.001055
518.0439	0.002109
518.2677	0.001582
518.4916	0.003185
518.7155	0.002257
518.9395	0.003691
519.1634	0.002974
519.3873	0.002151
519.6113	0.001434
519.8352	0.003058
520.0592	0.002826
520.2832	0.002826
520.5072	0.002636
520.7312	0.002995
520.9552	0.002236
521.1792	0.004029
521.4033	0.002531
521.6273	0.002004
521.8514	0.003311
522.0755	0.002383
522.2996	0.002489
522.5237	0.001772
522.7478	0.003269
522.9719	0.002784
523.1960	0.003248
523.4202	0.001413
523.6443	0.003438
523.8685	0.003164
524.0927	0.003543
524.3169	0.002257
524.5411	0.002974
524.7653	0.002067
524.9895	0.001983
525.2138	0.001498
525.4380	0.002890
525.6623	0.002341
525.8865	0.002974
526.1108	0.001835
526.3351	0.002215
526.5594	0.002130
526.7837	0.002552
527.0081	0.002932
527.2324	0.002953
527.4568	0.003797
527.6811	0.003016
527.9055	0.002088
528.1299	0.001371
528.3543	0.004725
528.5787	0.003185
528.8031	0.004978
529.0276	0.002278
529.2520	0.002552
529.4765	0.002826
529.7009	0.004134
529.9254	0.003290
530.1499	0.002974
530.3744	0.002552
530.5989	0.002721
530.8234	0.004176
531.0480	0.004029
531.2725	0.002236
531.4971	0.004619
531.7217	0.003248
531.9462	0.003797
532.1708	0.003290
532.3954	0.003227
532.6200	0.005231
532.8447	0.003396
533.0693	0.003881
533.2940	0.004303
533.5186	0.006011
533.7433	0.004957
533.9680	0.006243
534.1927	0.005041
534.4174	0.005421
534.6421	0.004746
534.8668	0.005041
535.0916	0.006180
535.3163	0.005167
535.5411	0.005294
535.7659	0.005378
535.9907	0.004303
536.2155	0.006918
536.4403	0.005210
536.6651	0.006117
536.8899	0.005020
537.1148	0.006306
537.3396	0.006138
537.5645	0.005758
537.7894	0.004071
538.0143	0.006412
538.2392	0.007066
538.4641	0.008078
538.6890	0.006391
538.9139	0.006981
539.1389	0.006074
539.3638	0.007677
539.5888	0.006391
539.8138	0.008416
540.0388	0.006581
540.2638	0.007930
540.4888	0.007466
540.7138	0.007741
540.9389	0.008416
541.1639	0.007319
541.3890	0.008985
541.6140	0.008036
541.8391	0.008331
542.0642	0.008352
542.2893	0.008859
542.5144	0.009744
542.7396	0.009133
542.9647	0.010019
543.1899	0.009112
543.4150	0.009175
543.6402	0.008310
543.8654	0.011200
544.0906	0.009976
544.3158	0.009533
544.5410	0.010229
544.7662	0.009470
544.9915	0.009681
545.2167	0.011495
545.4420	0.011158
545.6673	0.008331
545.8926	0.009765
546.1179	0.010757
546.3432	0.011537
546.5685	0.010251
546.7938	0.010504
547.0192	0.010883
547.2445	0.010989
547.4699	0.012064
547.6953	0.012824
547.9206	0.015102
548.1460	0.013836
548.3715	0.014469
548.5969	0.013878
548.8223	0.015081
549.0478	0.013731
549.2732	0.012465
549.4987	0.013225
549.7242	0.014743
549.9496	0.012887
550.1751	0.013225
550.4007	0.012402
550.6262	0.013203
550.8517	0.013267
551.0773	0.012275
551.3028	0.012022
551.5284	0.012444
551.7540	0.015102
551.9796	0.016409
552.2052	0.016220
552.4308	0.016262
552.6564	0.017569
552.8820	0.015692
553.1077	0.016557
553.3333	0.015566
553.5590	0.017569
553.7847	0.016726
554.0104	0.016684
554.2361	0.016620
554.4618	0.015861
554.6875	0.014827
554.9132	0.015460
555.1390	0.017084
555.3648	0.017633
555.5905	0.017780
555.8163	0.017337
556.0421	0.019953
556.2679	0.019911
556.4937	0.020944
556.7195	0.019510
556.9454	0.018139
557.1712	0.017485
557.3971	0.018455
557.6230	0.019425
557.8488	0.019805
558.0747	0.018033
558.3006	0.020016
558.5266	0.019046
558.7525	0.019025
558.9784	0.017000
559.2044	0.018476
559.4303	0.018223
559.6563	0.016705
559.8823	0.019742
560.1083	0.019868
560.3343	0.022505
560.5603	0.021619
560.7863	0.024002
561.0124	0.022610
561.2384	0.024804
561.4645	0.024382
561.6905	0.024466
561.9166	0.025584
562.1427	0.024656
562.3688	0.025120
562.5949	0.022568
562.8211	0.023939
563.0472	0.023496
563.2733	0.025205
563.4995	0.024635
563.7257	0.027609
563.9519	0.025626
564.1781	0.027525
564.4043	0.028875
564.6305	0.027335
564.8567	0.028706
565.0829	0.029845
565.3092	0.030119
565.5355	0.028790
565.7617	0.027904
565.9880	0.030224
566.2143	0.029592
566.4406	0.030098
566.6669	0.029592
566.8932	0.032692
567.1196	0.033515
567.3459	0.037944
567.5723	0.039526
567.7987	0.039146
568.0250	0.041319
568.2514	0.042626
568.4778	0.044039
568.7043	0.046338
568.9307	0.049713
569.1571	0.050747
569.3836	0.057011
569.6100	0.061082
569.8365	0.070003
570.0630	0.073505
570.2895	0.078081
570.5160	0.072598
570.7425	0.078356
570.9690	0.079790
571.1956	0.086075
571.4221	0.091939
571.6487	0.092825
571.8752	0.094723
572.1018	0.098393
572.3284	0.099004
572.5550	0.093900
572.7816	0.086666
573.0082	0.084451
573.2349	0.093014
573.4615	0.101662
573.6882	0.106703
573.9149	0.112060
574.1415	0.114739
574.3682	0.117481
574.5949	0.124188
574.8216	0.126255
575.0484	0.126487
575.2751	0.126803
575.5018	0.127373
575.7286	0.120202
575.9554	0.115646
576.1821	0.112334
576.4089	0.117713
576.6357	0.122564
576.8626	0.130389
577.0894	0.133068
577.3162	0.137349
577.5431	0.140597
577.7699	0.155425
577.9968	0.184173
578.2237	0.175820
578.4505	0.164368
578.6774	0.152388
578.9044	0.142179
579.1313	0.134291
579.3582	0.139058
579.5851	0.143086
579.8121	0.147705
580.0391	0.153168
580.2660	0.151607
580.4930	0.149835
580.7200	0.142432
580.9470	0.148528
581.1741	0.176685
581.4011	0.209884
581.6281	0.229056
581.8552	0.228803
582.0822	0.228908
582.3093	0.217055
582.5364	0.203957
582.7635	0.185670
582.9906	0.167025
583.2177	0.160424
583.4449	0.146081
583.6720	0.138045
583.8991	0.134903
584.1263	0.135999
584.3535	0.142643
584.5807	0.140618
584.8079	0.151692
585.0351	0.162554
585.2623	0.169155
585.4895	0.173732
585.7167	0.170168
585.9440	0.166287
586.1713	0.154961
586.3985	0.142032
586.6258	0.140597
586.8531	0.144436
587.0804	0.152620
587.3077	0.158610
587.5350	0.165675
587.7624	0.164072
587.9897	0.155910
588.2171	0.148190
588.4445	0.142348
588.6718	0.141968
588.8992	0.135831
589.1266	0.128069
589.3540	0.119885
589.5815	0.118303
589.8089	0.115857
590.0363	0.115308
590.2638	0.109888
590.4913	0.110099
590.7187	0.104868
590.9462	0.097233
591.1737	0.094660
591.4012	0.093563
591.6288	0.093774
591.8563	0.094470
592.0838	0.094617
592.3114	0.095482
592.5389	0.109888
592.7665	0.135409
592.9941	0.145955
593.2217	0.149182
593.4493	0.148211
593.6769	0.144879
593.9046	0.139501
594.1322	0.128681
594.3598	0.120708
594.5875	0.120581
594.8152	0.127563
595.0429	0.141146
595.2705	0.140872
595.4983	0.138699
595.7260	0.132519
595.9537	0.125285
596.1814	0.117354
596.4092	0.105627
596.6369	0.101451
596.8647	0.102653
597.0925	0.105374
597.3203	0.106956
597.5481	0.105100
597.7759	0.108032
598.0037	0.103666
598.2315	0.098287
598.4594	0.100101
598.6872	0.112630
598.9151	0.128849
599.1430	0.134776
599.3709	0.133827
599.5988	0.127942
599.8267	0.126023
600.0546	0.130178
600.2825	0.135999
600.5105	0.130832
600.7384	0.131865
600.9664	0.131148
601.1944	0.136189
601.4223	0.131908
601.6503	0.127457
601.8783	0.120771
602.1064	0.119548
602.3344	0.116806
602.5624	0.119295
602.7905	0.121341
603.0185	0.124968
603.2466	0.129587
603.4747	0.136084
603.7028	0.135788
603.9309	0.128174
604.1590	0.124209
604.3871	0.119695
604.6152	0.115119
604.8434	0.108981
605.0715	0.110879
605.2997	0.114127
605.5279	0.116996
605.7561	0.123260
605.9843	0.126656
606.2125	0.127373
606.4407	0.115857
606.6689	0.113410
606.8972	0.110225
607.1254	0.113874
607.3537	0.116279
607.5819	0.113853
607.8102	0.111533
608.0385	0.113094
608.2668	0.105184
608.4951	0.105058
608.7235	0.102274
608.9518	0.102717
609.1801	0.094997
609.4085	0.095693
609.6369	0.095018
609.8653	0.101451
610.0936	0.108918
610.3220	0.109044
610.5505	0.105880
610.7789	0.100839
611.0073	0.096959
611.2357	0.096600
611.4642	0.096832
611.6927	0.096642
611.9211	0.100017
612.1496	0.094892
612.3781	0.093563
612.6066	0.092424
612.8351	0.093584
613.0637	0.094343
613.2922	0.090758
613.5208	0.091643
613.7493	0.088859
613.9779	0.091348
614.2065	0.092382
614.4351	0.092846
614.6637	0.089661
614.8923	0.090758
615.1209	0.089872
615.3495	0.091981
615.5782	0.097254
615.8068	0.095103
616.0355	0.087974
616.2642	0.085316
616.4929	0.082911
616.7216	0.079157
616.9503	0.078124
617.1790	0.078735
617.4077	0.079874
617.6365	0.079474
617.8652	0.077512
618.0940	0.080212
618.3227	0.076985
618.5515	0.073019
618.7803	0.068632
619.0091	0.065152
619.2379	0.064288
619.4667	0.065152
619.6956	0.066587
619.9244	0.065595
620.1533	0.071121
620.3821	0.071417
620.6110	0.067578
620.8399	0.063634
621.0688	0.056631
621.2977	0.053573
621.5266	0.052097
621.7556	0.057011
621.9845	0.059584
622.2135	0.060322
622.4424	0.058656
622.6714	0.061841
622.9004	0.061103
623.1294	0.063802
623.3584	0.063845
623.5874	0.065194
623.8164	0.064899
624.0454	0.062284
624.2745	0.061419
624.5035	0.067051
624.7326	0.067430
624.9617	0.065490
625.1908	0.062431
625.4199	0.060217
625.6490	0.058213
625.8781	0.055429
626.1072	0.052286
626.3364	0.054290
626.5655	0.052371
626.7947	0.049502
627.0238	0.048680
627.2530	0.051105
627.4822	0.052371
627.7114	0.051316
627.9406	0.049101
628.1698	0.045136
628.3991	0.045917
628.6283	0.043090
628.8576	0.042078
629.0868	0.041403
629.3161	0.044166
629.5454	0.045642
629.7747	0.043322
630.0040	0.043934
630.2333	0.043365
630.4626	0.043807
630.6920	0.041255
630.9213	0.042183
631.1507	0.039463
631.3801	0.038049
631.6094	0.038661
631.8388	0.038977
632.0682	0.037691
632.2976	0.036362
632.5271	0.037839
632.7565	0.034506
632.9859	0.032861
633.2154	0.032481
633.4448	0.031237
633.6743	0.032334
633.9038	0.030456
634.1333	0.031216
634.3628	0.031448
634.5923	0.030246
634.8218	0.030456
635.0514	0.028115
635.2809	0.028263
635.5105	0.029971
635.7400	0.029191
635.9696	0.028411
636.1992	0.031279
636.4288	0.034379
636.6584	0.034021
636.8880	0.033304
637.1177	0.032017
637.3473	0.029085
637.5770	0.029085
637.8066	0.029760
638.0363	0.032777
638.2660	0.031764
638.4957	0.031131
638.7254	0.029339
638.9551	0.032460
639.1848	0.029950
639.4145	0.030182
639.6443	0.027372
639.8740	0.027972
640.1038	0.027250
640.3336	0.026973
640.5633	0.027002
640.7931	0.027205
641.0229	0.025715
641.2528	0.025033
641.4826	0.023864
641.7124	0.021888
641.9423	0.022851
642.1721	0.022541
642.4020	0.020757
642.6319	0.020904
642.8617	0.021217
643.0916	0.021555
643.3216	0.020690
643.5515	0.022205
643.7814	0.021855
644.0113	0.021976
644.2413	0.017726
644.4712	0.020331
644.7012	0.018510
644.9312	0.018368
645.1612	0.018265
645.3912	0.019222
645.6212	0.019497
645.8512	0.019668
646.0812	0.019062
646.3113	0.019510
646.5413	0.016778
646.7714	0.018119
647.0015	0.016129
647.2316	0.017056
647.4616	0.018384
647.6918	0.018152
647.9219	0.018443
648.1520	0.019110
648.3821	0.022300
648.6123	0.024247
648.8424	0.024193
649.0726	0.024906
649.3028	0.025178
649.5329	0.024548
649.7631	0.023459
649.9933	0.022248
650.2236	0.021297
650.4538	0.020019
650.6840	0.020246
650.9143	0.021804
651.1445	0.021770
651.3748	0.021464
651.6051	0.020593
651.8354	0.022789
652.0657	0.023601
652.2960	0.022833
652.5263	0.022127
652.7566	0.023481
652.9870	0.023507
653.2173	0.021815
653.4477	0.023031
653.6780	0.024102
653.9084	0.022314
654.1388	0.025274
654.3692	0.024016
654.5996	0.027076
654.8300	0.027936
655.0605	0.044827
655.2909	0.120961
655.5213	0.362376
655.7518	0.732815
655.9823	0.944383
656.2128	0.981630
656.4433	0.971265
656.6738	0.939988
656.9043	0.799668
657.1348	0.619902
657.3653	0.510104
657.5959	0.428299
657.8264	0.375417
658.0570	0.344680
658.2875	0.310230
658.5181	0.281587
658.7487	0.260902
658.9793	0.245045
659.2099	0.202252
659.4406	0.139952
659.6712	0.087924
659.9018	0.050443
660.1325	0.031375
660.3632	0.023832
660.5938	0.019422
660.8245	0.020261
661.0552	0.017692
661.2859	0.016086
661.5166	0.016056
661.7474	0.016299
661.9781	0.017685
662.2088	0.015711
662.4396	0.017405
662.6704	0.014426
662.9011	0.015162
663.1319	0.016196
663.3627	0.016922
663.5935	0.013764
663.8243	0.015641
664.0552	0.016211
664.2860	0.016640
664.5168	0.016418
664.7477	0.015962
664.9786	0.017166
665.2094	0.018578
665.4403	0.016690
665.6712	0.017079
665.9021	0.016050
666.1330	0.016638
666.3640	0.016026
666.5949	0.017061
666.8259	0.013927
667.0568	0.014077
667.2878	0.014613
667.5188	0.015361
667.7497	0.013801
667.9807	0.015993
668.2117	0.015231
668.4428	0.015777
668.6738	0.014638
668.9048	0.016093
669.1359	0.014005
669.3669	0.016325
669.5980	0.014996
669.8291	0.016220
670.0602	0.014153
670.2913	0.016135
670.5224	0.016873
670.7535	0.016515
670.9846	0.015207
671.2157	0.016346
671.4469	0.019109
671.6781	0.020290
671.9092	0.022188
672.1404	0.021492
672.3716	0.025732
672.6028	0.023665
672.8340	0.024171
673.0652	0.023264
673.2964	0.022589
673.5277	0.021788
673.7589	0.021999
673.9902	0.020269
674.2214	0.022399
674.4527	0.018814
674.6840	0.017801
674.9153	0.018519
675.1466	0.017991
675.3779	0.021345
675.6093	0.018687
675.8406	0.019636
676.0719	0.018898
676.3033	0.016430
676.5347	0.017000
676.7661	0.017063
676.9974	0.015840
677.2288	0.017612
677.4602	0.017063
677.6917	0.020143
677.9231	0.021155
678.1545	0.021197
678.3860	0.021218
678.6174	0.020522
678.8489	0.019215
679.0804	0.023834
679.3119	0.023475
679.5434	0.025626
679.7749	0.025479
680.0064	0.027208
680.2379	0.025331
680.4694	0.025099
680.7010	0.024509
680.9325	0.023791
681.1641	0.026175
681.3957	0.025373
681.6273	0.023834
681.8589	0.025795
682.0905	0.023011
682.3221	0.024530
682.5537	0.022505
682.7854	0.021556
683.0170	0.022020
683.2487	0.023222
683.4803	0.023201
683.7120	0.020459
683.9437	0.021682
684.1754	0.025521
684.4071	0.023770
684.6388	0.029339
684.8705	0.027736
685.1023	0.029423
685.3340	0.030878
685.5658	0.032312
685.7975	0.034738
686.0293	0.032207
686.2611	0.032165
686.4929	0.030984
686.7247	0.033219
686.9565	0.032038
687.1883	0.030435
687.4202	0.031870
687.6520	0.030646
687.8838	0.029170
688.1157	0.028621
688.3476	0.031047
688.5795	0.029064
688.8114	0.027061
689.0433	0.026512
689.2752	0.028157
689.5071	0.026112
689.7390	0.026344
689.9710	0.024234
690.2029	0.026006
690.4349	0.023433
690.6669	0.026069
690.8988	0.025711
691.1308	0.028685
691.3628	0.029360
691.5948	0.028643
691.8269	0.028685
692.0589	0.029149
692.2909	0.028368
692.5230	0.027398
692.7550	0.027968
692.9871	0.025605
693.2192	0.029381
693.4513	0.028832
693.6834	0.029592
693.9155	0.027567
694.1476	0.024698
694.3797	0.023981
694.6119	0.024951
694.8440	0.023349
695.0762	0.025416
695.3083	0.026386
695.5405	0.023222
695.7727	0.021113
696.0049	0.022146
696.2371	0.020143
696.4693	0.021724
696.7016	0.025141
696.9338	0.028685
697.1660	0.029992
697.3983	0.030077
697.6306	0.026681
697.8628	0.025690
698.0951	0.027293
698.3274	0.028010
698.5597	0.027672
698.7920	0.028010
699.0243	0.026850
699.2567	0.026006
699.4890	0.023834
699.7214	0.023855
699.9537	0.024403
700.1861	0.022399
700.4185	0.022399
700.6509	0.023264
700.8833	0.021050
701.1157	0.018856
701.3481	0.019425
701.5806	0.019320
701.8130	0.020881
702.0454	0.021598
702.2779	0.021134
702.5104	0.022125
702.7429	0.022252
702.9753	0.023665
703.2078	0.019489
703.4403	0.021071
703.6729	0.021007
703.9054	0.021345
704.1379	0.020143
704.3705	0.020227
704.6030	0.019657
704.8356	0.019615
705.0682	0.013625
705.3008	0.018582
705.5334	0.017169
705.7660	0.018497
705.9986	0.017274
706.2312	0.018181
706.4638	0.022821
706.6965	0.025162
706.9291	0.024867
707.1618	0.027757
707.3945	0.028621
707.6272	0.027778
707.8599	0.029085
708.0926	0.028284
708.3253	0.027925
708.5580	0.027293
708.7907	0.025732
709.0235	0.026006
709.2562	0.024319
709.4890	0.025373
709.7217	0.025015
709.9545	0.025922
710.1873	0.024361
710.4201	0.027440
710.6529	0.027419
710.8857	0.025964
711.1186	0.022505
711.3514	0.023053
711.5842	0.022969
711.8171	0.022020
712.0500	0.021872
712.2828	0.019995
712.5157	0.020712
712.7486	0.020986
712.9815	0.022273
713.2144	0.024150
713.4474	0.023053
713.6803	0.023876
713.9132	0.026470
714.1462	0.025711
714.3791	0.024741
714.6121	0.027630
714.8451	0.025373
715.0781	0.024192
715.3111	0.024087
715.5441	0.024403
715.7771	0.026196
716.0102	0.022695
716.2432	0.021345
716.4762	0.022442
716.7093	0.019447
716.9424	0.020079
717.1754	0.020417
717.4085	0.020902
717.6416	0.019552
717.8747	0.019004
718.1078	0.022927
718.3410	0.022378
718.5741	0.020712
718.8072	0.020037
719.0404	0.021282
719.2736	0.022589
719.5067	0.021598
719.7399	0.021978
719.9731	0.020164
720.2063	0.020775
720.4395	0.020881
720.6727	0.022842
720.9060	0.021366
721.1392	0.022399
721.3725	0.021935
721.6057	0.023117
721.8390	0.021155
722.0723	0.021176
722.3055	0.022737
722.5388	0.020311
722.7721	0.019046
723.0055	0.019404
723.2388	0.018033
723.4721	0.020586
723.7055	0.018244
723.9388	0.020902
724.1722	0.020839
724.4056	0.020396
724.6389	0.019700
724.8723	0.020311
725.1057	0.022842
725.3391	0.024994
725.5726	0.023686
725.8060	0.022885
726.0394	0.023644
726.2729	0.026112
726.5063	0.024466
726.7398	0.025183
726.9733	0.024783
727.2068	0.022885
727.4403	0.022716
727.6738	0.023180
727.9073	0.025141
728.1408	0.025816
728.3743	0.024867
728.6079	0.024572
728.8414	0.025310
729.0750	0.025289
729.3086	0.025943
729.5421	0.027356
729.7757	0.025985
730.0093	0.027904
730.2429	0.027736
730.4766	0.027968
730.7102	0.028600
730.9438	0.031110
731.1775	0.030731
731.4111	0.031258
731.6448	0.031574
731.8785	0.029929
732.1122	0.031406
732.3458	0.028769
732.5795	0.029760
732.8133	0.031469
733.0470	0.033409
733.2807	0.031131
733.5145	0.030984
733.7482	0.032608
733.9820	0.034865
734.2157	0.037311
734.4495	0.038767
734.6833	0.038535
734.9171	0.035118
735.1509	0.035181
735.3847	0.036193
735.6185	0.036004
735.8524	0.037142
736.0862	0.037860
736.3201	0.034590
736.5539	0.034443
736.7878	0.036193
737.0217	0.034696
737.2556	0.036932
737.4895	0.036088
737.7234	0.033641
737.9573	0.031363
738.1912	0.030182
738.4252	0.027947
738.6591	0.028811
738.8931	0.028790
739.1271	0.033009
739.3610	0.036594
739.5950	0.034443
739.8290	0.032777
740.0630	0.031406
740.2970	0.030077
740.5310	0.028643
740.7651	0.026955
740.9991	0.028853
741.2332	0.027082
741.4672	0.024994
741.7013	0.024635
741.9354	0.023053
742.1695	0.026470
742.4036	0.024087
742.6377	0.025183
742.8718	0.025858
743.1059	0.023032
743.3400	0.021872
743.5742	0.023285
743.8083	0.020923
744.0425	0.021155
744.2767	0.020649
744.5108	0.022041
744.7450	0.022885
744.9792	0.022336
745.2134	0.020712
745.4477	0.021788
745.6819	0.020522
745.9161	0.021767
746.1504	0.021935
746.3846	0.018708
746.6189	0.020058
746.8532	0.021113
747.0874	0.020881
747.3217	0.022526
747.5560	0.022336
747.7903	0.022357
748.0247	0.022631
748.2590	0.021830
748.4933	0.020543
748.7277	0.021914
748.9620	0.019784
749.1964	0.023264
749.4308	0.023939
749.6652	0.024614
749.8995	0.024023
750.1339	0.028411
750.3684	0.028938
750.6028	0.029803
750.8372	0.031975
751.0717	0.027630
751.3061	0.026512
751.5406	0.029001
751.7750	0.029528
752.0095	0.031237
752.2440	0.028664
752.4785	0.027651
752.7130	0.025289
752.9475	0.027651
753.1820	0.026681
753.4166	0.026386
753.6511	0.029824
753.8856	0.031152
754.1202	0.031152
754.3548	0.030435
754.5894	0.030499
754.8239	0.030920
755.0585	0.030119
755.2931	0.031406
755.5278	0.029043
755.7624	0.031174
755.9970	0.033388
756.2317	0.033219
756.4663	0.034949
756.7010	0.035603
756.9356	0.037375
757.1703	0.039884
757.4050	0.043069
757.6397	0.046486
757.8744	0.044778
758.1091	0.042985
758.3438	0.039652
758.5786	0.040580
758.8133	0.038999
759.0481	0.039674
759.2828	0.040391
759.5176	0.041888
759.7524	0.044314
759.9872	0.044799
760.2220	0.047224
760.4568	0.046360
760.6916	0.048258
760.9264	0.046381
761.1613	0.046233
761.3961	0.045263
761.6310	0.038556
761.8658	0.039463
762.1007	0.035455
762.3356	0.035329
762.5705	0.034696
762.8054	0.035160
763.0403	0.037796
763.2752	0.036552
763.5101	0.034738
763.7450	0.035518
763.9800	0.037185
764.2149	0.038408
764.4499	0.040623
764.6849	0.040665
764.9198	0.044567
765.1548	0.043386
765.3898	0.041972
765.6248	0.038092
765.8599	0.039652
766.0949	0.035666
766.3299	0.033367
766.5650	0.029992
766.8000	0.030920
767.0351	0.030393
767.2701	0.026702
767.5052	0.030646
767.7403	0.029571
767.9754	0.028221
768.2105	0.030309
768.4456	0.032017
768.6808	0.033831
768.9159	0.036531
769.1510	0.035497
769.3862	0.034358
769.6214	0.033283
769.8565	0.033219
770.0917	0.031406
770.3269	0.029845
770.5621	0.033093
770.7973	0.033430
771.0325	0.035097
771.2677	0.036446
771.5030	0.034295
771.7382	0.032840
771.9735	0.030773
772.2087	0.031342
772.4440	0.029043
772.6793	0.029149
772.9146	0.029254
773.1499	0.028896
773.3852	0.028326
773.6205	0.027419
773.8558	0.026639
774.0911	0.026112
774.3265	0.025226
774.5618	0.023454
774.7972	0.022631
775.0326	0.022885
775.2679	0.022041
775.5033	0.021155
775.7387	0.021914
775.9741	0.019573
776.2095	0.021282
776.4450	0.019067
776.6804	0.017970
776.9158	0.017380
777.1513	0.019278
777.3868	0.018497
777.6222	0.018497
777.8577	0.017380
778.0932	0.017633
778.3287	0.018645
778.5642	0.021788
778.7997	0.020796
779.0352	0.021050
779.2707	0.020881
779.5063	0.022969
779.7418	0.023876
779.9774	0.022779
780.2130	0.021345
780.4485	0.018497
780.6841	0.020543
780.9197	0.022041
781.1553	0.023981
781.3909	0.026154
781.6265	0.025880
781.8622	0.028664
782.0978	0.024403
782.3335	0.025648
782.5691	0.026027
782.8048	0.025816
783.0405	0.024298
783.2761	0.023644
783.5118	0.025352
783.7475	0.025036
783.9832	0.023496
784.2190	0.023370
784.4547	0.022547
784.6904	0.021408
784.9262	0.020881
785.1619	0.020986
785.3977	0.020501
785.6335	0.021556
785.8692	0.021092
786.1050	0.021514
786.3408	0.019826
786.5766	0.021366
786.8124	0.018265
787.0483	0.020100
787.2841	0.020733
787.5199	0.021324
787.7558	0.020564
787.9917	0.021303
788.2275	0.022842
788.4634	0.022842
788.6993	0.023306
788.9352	0.025901
789.1711	0.023813
789.4070	0.022863
789.6429	0.021050
789.8789	0.018434
790.1148	0.019826
790.3507	0.017358
790.5867	0.018371
790.8227	0.017422
791.0586	0.017148
791.2946	0.018308
791.5306	0.017126
791.7666	0.017401
792.0026	0.018160
792.2387	0.018371
792.4747	0.016578
792.7107	0.016536
792.9468	0.015692
793.1828	0.015566
793.4189	0.017422
793.6550	0.016894
793.8910	0.018729
794.1271	0.021682
794.3632	0.022885
794.5993	0.024572
794.8355	0.024635
795.0716	0.025626
795.3077	0.024192
795.5439	0.021408
795.7800	0.020269
796.0162	0.020332
796.2523	0.016620
796.4885	0.017358
796.7247	0.016262
796.9609	0.015756
797.1971	0.014785
797.4333	0.017084
797.6695	0.016705
797.9058	0.017801
798.1420	0.016220
798.3783	0.016937
798.6145	0.016662
798.8508	0.014933
799.0871	0.015270
799.3233	0.017485
799.5596	0.015460
799.7959	0.015291
800.0322	0.014764
800.2686	0.014975
800.5049	0.014490
800.7412	0.013288
800.9776	0.013857
801.2139	0.013731
801.4503	0.013098
801.6867	0.013794
801.9230	0.013035
802.1594	0.012233
802.3958	0.012634
802.6322	0.011854
802.8686	0.010145
803.1051	0.011305
803.3415	0.013457
803.5779	0.013035
803.8144	0.011875
804.0508	0.012465
804.2873	0.013562
804.5238	0.012275
804.7603	0.014026
804.9968	0.013203
805.2333	0.012233
805.4698	0.012845
805.7063	0.013731
805.9428	0.014532
806.1794	0.015924
806.4159	0.016135
806.6525	0.019109
806.8890	0.017380
807.1256	0.016768
807.3622	0.018919
807.5988	0.016684
807.8354	0.017105
808.0720	0.017021
808.3086	0.017274
808.5452	0.016578
808.7818	0.017696
809.0185	0.017063
809.2551	0.015924
809.4918	0.015313
809.7284	0.016789
809.9651	0.013921
810.2018	0.013773
810.4385	0.012782
810.6752	0.014005
810.9119	0.012676
811.1486	0.014806
811.3853	0.013478
811.6221	0.013520
811.8588	0.013752
812.0956	0.011115
812.3323	0.011453
812.5691	0.011790
812.8059	0.009618
813.0427	0.010757
813.2795	0.011010
813.5163	0.014363
813.7531	0.012655
813.9899	0.014870
814.2267	0.013499
814.4636	0.014490
814.7004	0.014574
814.9373	0.013836
815.1742	0.012528
815.4110	0.010398
815.6479	0.010272
815.8848	0.010904
816.1217	0.009976
816.3586	0.009829
816.5955	0.010419
816.8324	0.012465
817.0694	0.011115
817.3063	0.010778
817.5433	0.012191
817.7802	0.009133
818.0172	0.010440
818.2542	0.010883
818.4912	0.010461
818.7282	0.008394
818.9652	0.009365
819.2022	0.009555
819.4392	0.009934
819.6762	0.011010
819.9133	0.007741
820.1503	0.009048
820.3874	0.011031
820.6244	0.008584
820.8615	0.012318
821.0986	0.012718
821.3357	0.012191
821.5727	0.011305
821.8099	0.010229
822.0470	0.008479
822.2841	0.011073
822.5212	0.009449
822.7584	0.009639
822.9955	0.007952
823.2327	0.008922
823.4698	0.008394
823.7070	0.008816
823.9442	0.008690
824.1814	0.009491
824.4186	0.006897
824.6558	0.008437
824.8930	0.008816
825.1302	0.008901
825.3675	0.007656
825.6047	0.009934
825.8419	0.009112
826.0792	0.009892
826.3165	0.008521
826.5537	0.010820
826.7910	0.010272
827.0283	0.009133
827.2656	0.009997
827.5029	0.009976
827.7402	0.009280
827.9776	0.009934
828.2149	0.009280
828.4522	0.009871
828.6896	0.009576
828.9270	0.009555
829.1643	0.010440
829.4017	0.009850
829.6391	0.009597
829.8765	0.007952
830.1139	0.009217
830.3513	0.009470
830.5887	0.009196
830.8261	0.007108
831.0636	0.006538
831.3010	0.007171
831.5385	0.005821
831.7759	0.006433
832.0134	0.005631
832.2509	0.005589
832.4884	0.004577
832.7259	0.007087
832.9634	0.006538
833.2009	0.006939
833.4384	0.006306
833.6759	0.007171
833.9135	0.006770
834.1510	0.006096
834.3886	0.007466
834.6261	0.009069
834.8637	0.007909
835.1013	0.008943
835.3389	0.006749
835.5765	0.008205
835.8141	0.007656
836.0517	0.009344
836.2893	0.006665
836.5269	0.006813
836.7646	0.005083
837.0022	0.004640
837.2399	0.005020
837.4775	0.006117
837.7152	0.004788
837.9529	0.004092
838.1906	0.003712
838.4283	0.004535
838.6660	0.005505
838.9037	0.004345
839.1414	0.005821
839.3791	0.005231
839.6169	0.004872
839.8546	0.005125
840.0924	0.004218
840.3302	0.005442
840.5679	0.004471
840.8057	0.005568
841.0435	0.005062
841.2813	0.003860
841.5191	0.003902
841.7569	0.003902
841.9947	0.003902
842.2326	0.004556
842.4704	0.003965
842.7082	0.003839
842.9461	0.003543
843.1840	0.004366
843.4218	0.002784
843.6597	0.003311
843.8976	0.004619
844.1355	0.003986
844.3734	0.002257
844.6113	0.004725
844.8492	0.003923
845.0872	0.004071
845.3251	0.004282
845.5631	0.004408
845.8010	0.004661
846.0390	0.005589
846.2770	0.003775
846.5149	0.002615
846.7529	0.002257
846.9909	0.004429
847.2289	0.003375
847.4669	0.003839
847.7050	0.004872
847.9430	0.002932
848.1810	0.004788
848.4191	0.003881
848.6571	0.003269
848.8952	0.003269
849.1333	0.004640
849.3713	0.005167
849.6094	0.004113
849.8475	0.004935
850.0856	0.003016
850.3237	0.003923
850.5619	0.003818
850.8000	0.002257
851.0381	0.004872
851.2763	0.004324
851.5144	0.003691
851.7526	0.003501
851.9908	0.004577
852.2289	0.004788
852.4671	0.005336
852.7053	0.005779
852.9435	0.007952
853.1817	0.008057
853.4200	0.008837
853.6582	0.010251
853.8964	0.011136
854.1347	0.010588
854.3729	0.009091
854.6112	0.011284
854.8495	0.010778
855.0877	0.009702
855.3260	0.010461
855.5643	0.009597
855.8026	0.009006
856.0409	0.007973
856.2792	0.009280
856.5176	0.010229
856.7559	0.009491
856.9942	0.009449
857.2326	0.008310
857.4710	0.008416
857.7093	0.007024
857.9477	0.007403
858.1861	0.007656
858.4245	0.007213
858.6629	0.006433
858.9013	0.007213
859.1397	0.005589
859.3781	0.006538
859.6166	0.006349
859.8550	0.005737
860.0935	0.005927
860.3319	0.005463
860.5704	0.004914
860.8089	0.005463
861.0473	0.004914
861.2858	0.004303
861.5243	0.004935
861.7628	0.004029
862.0013	0.004851
862.2399	0.005020
862.4784	0.004071
862.7169	0.003691
862.9555	0.005315
863.1940	0.004556
863.4326	0.005189
863.6712	0.004450
863.9098	0.004218
864.1483	0.005842
864.3869	0.003501
864.6255	0.004661
864.8642	0.003122
865.1028	0.004872
865.3414	0.005315
865.5800	0.004493
865.8187	0.002784
866.0573	0.003860
866.2960	0.003037
866.5347	0.003396
866.7733	0.001329
867.0120	0.003881
867.2507	0.003269
867.4894	0.004661
867.7281	0.004619
867.9669	0.004029
868.2056	0.003543
868.4443	0.004282
868.6831	0.004155
868.9218	0.003607
869.1606	0.003354
869.3993	0.002130
869.6381	0.003438
869.8769	0.004071
870.1157	0.002531
870.3545	0.003311
870.5933	0.002636
870.8321	0.005969
871.0709	0.003501
871.3097	0.005610
871.5486	0.003733
871.7874	0.003122
872.0263	0.004493
872.2651	0.005083
872.5040	0.004408
872.7429	0.002995
872.9818	0.003438
873.2207	0.003797
873.4596	0.002995
873.6985	0.005294
873.9374	0.003206
874.1763	0.003944
874.4153	0.003417
874.6542	0.003839
874.8932	0.003354
875.1321	0.005189
875.3711	0.003269
875.6101	0.004493
875.8491	0.003965
876.0880	0.002784
876.3270	0.003248
876.5661	0.005336
876.8051	0.004999
877.0441	0.004450
877.2831	0.003733
877.5222	0.004978
877.7612	0.005421
878.0003	0.004535
878.2393	0.007066
878.4784	0.004514
878.7175	0.005336
878.9566	0.005294
879.1957	0.004957
879.4348	0.006243
879.6739	0.006581
879.9130	0.005399
880.1521	0.005842
880.3913	0.007171
880.6304	0.006728
880.8696	0.005378
881.1087	0.006264
881.3479	0.004851
881.5871	0.005589
881.8262	0.005526
882.0654	0.005463
882.3046	0.005146
882.5438	0.004071
882.7831	0.003438
883.0223	0.004345
883.2615	0.004345
883.5007	0.004703
883.7400	0.005357
883.9792	0.004535
884.2185	0.004535
884.4578	0.004809
884.6971	0.004914
884.9363	0.003733
885.1756	0.004577
885.4149	0.004303
885.6542	0.003986
885.8936	0.005779
886.1329	0.004957
886.3722	0.004978
886.6116	0.004450
886.8509	0.005589
887.0903	0.002911
887.3296	0.005779
887.5690	0.004176
887.8084	0.003944
888.0478	0.004999
888.2872	0.003311
888.5266	0.003501
888.7660	0.004155
889.0054	0.002974
889.2448	0.002320
889.4843	0.002172
889.7237	0.003459
889.9632	0.002447
890.2026	0.004851
890.4421	0.003016
890.6816	0.003122
890.9211	0.004767
891.1606	0.003670
891.4001	0.004113
891.6396	0.003480
891.8791	0.004703
892.1186	0.004830
892.3581	0.004197
892.5977	0.003818
892.8372	0.002109
893.0768	0.003860
893.3163	0.003501
893.5559	0.002953
893.7955	0.005421
894.0351	0.003944
894.2747	0.003670
894.5143	0.003375
894.7539	0.002383
894.9935	0.003079
895.2331	0.003122
895.4727	0.003269
895.7124	0.003670
895.9520	0.004809
896.1917	0.003797
896.4314	0.004999
896.6710	0.003586
896.9107	0.004366
897.1504	0.004725
897.3901	0.003354
897.6298	0.001244
897.8695	0.003185
898.1092	0.002890
898.3489	0.004029
898.5887	0.004999
898.8284	0.003185
899.0682	0.003079
899.3079	0.004767
899.5477	0.004218
899.7875	0.003628
900.0272	0.001413
900.2670	0.003164
900.5068	0.003375
900.7466	0.004851
900.9864	0.003079
901.2263	0.003311
901.4661	0.002426
901.7059	0.004640
901.9458	0.003775
902.1856	0.003100
902.4255	0.002636
902.6654	0.003227
902.9052	0.002447
903.1451	0.002953
903.3850	0.003185
903.6249	0.003586
903.8648	0.002890
904.1047	0.002679
904.3446	0.002763
904.5846	0.004366
904.8245	0.002805
905.0644	0.004387
905.3044	0.002763
905.5444	0.003818
905.7843	0.004239
906.0243	0.002341
906.2643	0.002447
906.5043	0.004914
906.7443	0.002299
906.9843	0.002615
907.2243	0.003016
907.4643	0.003122
907.7043	0.003269
907.9444	0.003438
908.1844	0.003058
908.4245	0.002911
908.6645	0.001751
908.9046	0.002974
909.1447	0.001793
909.3847	0.003354
909.6248	0.002215
909.8649	0.002868
910.1050	0.001624
910.3452	0.002679
910.5853	0.001772
910.8254	0.003016
911.0655	0.003290
911.3057	0.002383
911.5458	0.001940
911.7860	0.004092
912.0262	0.002615
912.2663	0.003501
912.5065	0.003860
912.7467	0.002763
912.9869	0.003290
913.2271	0.003417
913.4673	0.002932
913.7075	0.002658
913.9478	0.002362
914.1880	0.001962
914.4283	0.001266
914.6685	0.003881
914.9088	0.002658
915.1490	0.001940
915.3893	0.003227
915.6296	0.002658
915.8699	0.002236
916.1102	0.002658
916.3505	0.002320
916.5908	0.002468
916.8311	0.003754
917.0714	0.001708
917.3118	0.003164
917.5521	0.002594
917.7925	0.004324
918.0328	0.002826
918.2732	0.002890
918.5136	0.003164
918.7539	0.002194
918.9943	0.004218
919.2347	0.003290
919.4751	0.002489
919.7155	0.001582
919.9560	0.003522
920.1964	0.002172
920.4368	0.003185
920.6773	0.002658
920.9177	0.003248
921.1582	0.002151
921.3986	0.003607
921.6391	0.002004
921.8796	0.001898
922.1201	0.001962
922.3606	0.002383
922.6011	0.003122
922.8416	0.002700
923.0821	0.001835
923.3226	0.001983
923.5631	0.002383
923.8037	0.003375
924.0442	0.001624
924.2848	0.002383
924.5254	0.002004
924.7659	0.002805
925.0065	0.002763
925.2471	0.001055
925.4877	0.002868
925.7283	0.002447
925.9689	0.001181
926.2095	0.001371
926.4501	0.002194
926.6908	0.001708
926.9314	0.002468
927.1720	0.001181
927.4127	0.000759
927.6533	0.002194
927.8940	0.003058
928.1347	0.003122
928.3754	0.000316
928.6161	0.002890
928.8568	0.002510
929.0975	0.001645
929.3382	0.001076
929.5789	0.001033
929.8196	0.002320
930.0604	0.001708
930.3011	0.002130
930.5419	0.000991
930.7826	0.002088
931.0234	0.001202
931.2642	0.001540
931.5049	0.002932
931.7457	0.000654
931.9865	0.002004
932.2273	0.001244
932.4681	0.000295
932.7089	0.001350
932.9498	0.001751
933.1906	0.001835
933.4314	0.002067
933.6723	0.001835
933.9131	0.002679
934.1540	0.001582
934.3949	0.001329
934.6358	0.001772
934.8766	0.002194
935.1175	0.000907
935.3584	0.001793
935.5993	0.001814
935.8403	0.002067
936.0812	0.001012
936.3221	0.001223
936.5630	0.000464
936.8040	0.002953
937.0449	0.000169
937.2859	0.002320
937.5269	0.002826
937.7678	0.000612
938.0088	0.001160
938.2498	0.000991
938.4908	0.001160
938.7318	0.001455
938.9728	0.000907
939.2138	0.001455
939.4549	0.001498
939.6959	0.000127
939.9369	0.001898
940.1780	0.000464
940.4190	0.001476
940.6601	0.001708
940.9012	0.001350
941.1422	0.000991
941.3833	0.002721
941.6244	0.001223
941.8655	0.001561
942.1066	0.000801
942.3477	0.001160
942.5889	-0.000253
942.8300	0.000865
943.0711	0.001329
943.3123	0.001118
943.5534	0.000021
943.7946	0.001350
944.0357	0.000865
944.2769	0.001287
944.5181	0.001772
944.7593	0.001371
945.0005	0.000105
945.2417	0.000928
945.4829	0.001033
945.7241	0.001835
945.9653	0.001540
946.2066	0.000865
946.4478	0.001055
946.6891	0.001582
946.9303	0.000063
947.1716	0.000063
947.4128	-0.000612
947.6541	0.002151
947.8954	0.001181
948.1367	0.000801
948.3780	-0.000654
948.6193	0.001097
948.8606	0.001118
949.1019	0.002594
949.3433	0.000970
949.5846	0.001371
949.8259	0.000127
950.0673	0.001708
950.3086	0.001603
950.5500	0.000633
950.7914	-0.000063
951.0327	0.001287
951.2741	0.001645
951.5155	0.001772
951.7569	0.001730
951.9983	0.001814
952.2398	0.000654
952.4812	0.000886
952.7226	0.002636
952.9640	0.001519
953.2055	0.000991
953.4469	0.001476
953.6884	0.001540
953.9299	0.000359
954.1713	-0.000569
954.4128	0.002278
954.6543	0.000759
954.8958	0.001603
955.1373	0.000127
955.3788	-0.000612
955.6203	0.000675
955.8618	0.001097
956.1034	0.002341
956.3449	0.000844
956.5865	0.001476
956.8280	0.000359
957.0696	0.001856
957.3111	0.000337
957.5527	-0.000443
957.7943	0.001751
958.0359	0.000190
958.2775	-0.000105
958.5191	0.002426
958.7607	0.001940
959.0023	0.000591
959.2439	0.000801
959.4856	0.000738
959.7272	0.000949
959.9688	0.000907
960.2105	0.001983
960.4522	0.001118
960.6938	0.001455
960.9355	0.001582
961.1772	0.001287
961.4189	-0.000232
961.6606	0.000084
961.9023	0.000612
962.1440	0.000907
962.3857	-0.000401
962.6274	0.000548
962.8692	-0.001139
963.1109	-0.000274
963.3527	0.001076
963.5944	0.000928
963.8362	0.000316
964.0779	-0.000485
964.3197	-0.000105
964.5615	0.001856
964.8033	0.000717
965.0451	0.001329
965.2869	-0.000105
965.5287	-0.000274
965.7705	-0.000105
966.0123	0.000084
966.2542	0.000654
966.4960	0.000633
966.7379	0.000654
966.9797	0.000844
967.2216	0.000127
967.4634	0.000274
967.7053	-0.000169
967.9472	0.001455
968.1891	0.000443
968.4310	0.001181
968.6729	0.000443
968.9148	0.000527
969.1567	0.000021
969.3987	0.000169
969.6406	0.000000
969.8825	0.000865
970.1245	-0.000021
970.3664	0.001223
970.6084	-0.000042
970.8504	0.000991
971.0923	-0.000211
971.3343	0.000422
971.5763	-0.000569
971.8183	0.000359
972.0603	0.001139
972.3023	0.000949
972.5443	0.000823
972.7864	0.000928
973.0284	0.000063
973.2704	0.001097
973.5125	-0.000190
973.7545	0.000105
973.9966	0.001434
974.2387	0.001033
974.4807	0.001413
974.7228	0.000738
974.9649	-0.001266
975.2070	0.001835
975.4491	-0.000127
975.6912	0.000991
975.9333	0.000274
976.1755	0.000675
976.4176	-0.000127
976.6597	0.000928
976.9019	0.000591
977.1440	-0.000801
977.3862	-0.000612
977.6283	-0.000105
977.8705	0.000063
978.1127	0.001244
978.3549	0.000464
978.5971	0.001983
978.8393	0.000000
979.0815	0.000654
979.3237	0.000190
979.5659	0.001287
979.8082	0.001455
980.0504	0.001413
980.2926	0.000949
980.5349	0.001708
980.7771	0.001434
981.0194	-0.000253
981.2617	0.000591
981.5040	0.000422
981.7462	0.001118
981.9885	0.000738
982.2308	-0.000211
982.4731	-0.000148
982.7155	0.000886
982.9578	-0.000253
983.2001	-0.000612
983.4424	0.000970
983.6848	0.000823
983.9271	0.001582
984.1695	-0.000591
984.4118	0.000949
984.6542	-0.000380
984.8966	0.000886
985.1390	-0.000190
985.3814	-0.000443
985.6238	0.001097
985.8662	0.000506
986.1086	0.000738
986.3510	0.000527
986.5934	0.001097
986.8358	-0.000084
987.0783	-0.000612
987.3207	-0.000274
987.5632	0.000464
987.8056	-0.000991
988.0481	-0.000042
988.2906	-0.000443
988.5331	0.000928
988.7756	0.000211
989.0180	0.000063
989.2605	0.000675
989.5031	0.001266
989.7456	0.001139
989.9881	0.000675
990.2306	0.000949
990.4732	-0.000042
990.7157	0.000316
990.9582	0.001455
991.2008	0.000401
991.4434	-0.000253
991.6859	-0.000823
991.9285	-0.000359
992.1711	0.000569
992.4137	-0.000506
992.6563	0.000612
992.8989	-0.001603
993.1415	0.000127
993.3841	-0.000485
993.6267	-0.000274
993.8694	-0.000169
994.1120	0.001097
994.3547	-0.000190
994.5973	0.000127
994.8400	-0.000527
995.0826	0.000084
995.3253	0.000759
995.5680	0.001498
995.8107	-0.000591
996.0534	-0.000633
996.2961	0.000823
996.5388	-0.000464
996.7815	0.001687
997.0242	0.000042
997.2670	-0.000127
997.5097	-0.001033
997.7524	0.000042
997.9952	0.000380
998.2379	0.000127
998.4807	0.001202
998.7235	0.000485
998.9662	0.001181
999.2090	0.001139
999.4518	-0.000021
999.6946	0.000696
999.9374	0.000190
1000.1802	0.001033
1000.4230	0.001266
1000.6659	0.001582
1000.9087	0.000105
1001.1515	0.000316
1001.3944	-0.000063
1001.6372	-0.000253
1001.8801	0.000991
1002.1230	0.000422
1002.3658	0.000759
1002.6087	0.001793
1002.8516	0.000337
1003.0945	0.000274
1003.3374	-0.000738
1003.5803	-0.000105
1003.8232	0.000865
1004.0661	0.000401
1004.3091	0.000591
1004.5520	0.000337
1004.7949	0.000316
1005.0379	0.000422
1005.2808	0.000865
1005.5238	0.001730
1005.7667	0.001898
1006.0097	0.000422
1006.2527	-0.000759
1006.4957	0.000380
1006.7387	0.000021
1006.9817	0.000844
1007.2247	0.001708
1007.4677	0.000738
1007.7107	-0.000759
1007.9538	-0.000021
1008.1968	0.000696
1008.4398	0.000084
1008.6829	-0.000105
1008.9259	0.001033
1009.1690	0.000295
1009.4121	0.000253
1009.6551	0.000612
1009.8982	-0.000675
1010.1413	-0.000527
1010.3844	0.000717
1010.6275	0.000190
1010.8706	0.000359
1011.1137	-0.000190
1011.3568	0.000063
1011.6000	-0.000190
1011.8431	-0.001202
1012.0863	0.000823
1012.3294	0.001519
1012.5726	0.000633
1012.8157	-0.000380
1013.0589	0.002151
1013.3021	0.000021
1013.5452	-0.000190
1013.7884	0.000359
1014.0316	0.000148
1014.2748	0.000464
1014.5180	-0.000316
1014.7613	0.000401
1015.0045	-0.000211
1015.2477	0.000823
1015.4909	0.000232
1015.7342	-0.000063
1015.9774	0.000084
1016.2207	0.000295
1016.4640	-0.000738
1016.7072	0.002320
1016.9505	0.000780
1017.1938	-0.000907
1017.4371	-0.000738
1017.6804	0.000591
1017.9237	0.000253
1018.1670	0.000738
1018.4103	0.000105
1018.6536	0.001329
1018.8969	-0.000738
1019.1403	0.001266
1019.3836	-0.000464
1019.6270	0.000000
1019.8703	-0.000274
1020.1137	0.000801
1020.3571	0.000000
1020.6004	0.000675
1020.8438	0.000105
1021.0872	0.000738
1021.3306	0.000084
1021.5740	0.001076
1021.8174	0.000359
1022.0608	0.000443
1022.3042	0.000295
1022.5477	-0.000527
1022.7911	-0.000801
1023.0345	-0.000823
