# Wavelength (nm)	Intensity (a.u.)
197.7802	0.000084
197.9842	-0.001034
198.1882	-0.000380
198.3922	-0.000253
198.5963	0.000232
198.8003	0.000380
199.0044	0.001477
199.2085	-0.000359
199.4126	0.000506
199.6168	-0.001034
199.8209	0.000295
200.0251	0.000232
200.2292	0.000464
200.4334	0.000063
200.6376	0.001561
200.8418	-0.000612
201.0461	-0.000042
201.2503	0.000401
201.4546	0.000591
201.6589	-0.001667
201.8631	0.000211
202.0674	-0.001182
202.2718	0.000591
202.4761	0.001034
202.6805	0.000127
202.8848	0.001350
203.0892	0.000528
203.2936	0.000717
203.4980	0.000211
203.7024	0.000485
203.9069	0.000127
204.1113	-0.000464
204.3158	0.001097
204.5203	0.000528
204.7248	-0.001414
204.9293	-0.000338
205.1338	0.001013
205.3384	-0.000295
205.5430	0.001034
205.7475	-0.000633
205.9521	0.001182
206.1567	-0.000021
206.3614	0.000928
206.5660	0.000317
206.7706	0.000253
206.9753	0.000549
207.1800	-0.000591
207.3847	0.000675
207.5894	-0.001794
207.7941	0.000169
207.9989	-0.000338
208.2036	-0.000739
208.4084	0.000739
208.6132	-0.000739
208.8180	0.001414
209.0228	-0.000971
209.2276	0.000042
209.4325	0.000823
209.6373	0.000359
209.8422	-0.000274
210.0471	0.000760
210.2520	0.001161
210.4569	0.000190
210.6618	-0.000401
210.8668	-0.000338
211.0718	-0.000717
211.2767	0.001224
211.4817	-0.001034
211.6867	0.000633
211.8918	-0.000443
212.0968	-0.000274
212.3018	-0.000084
212.5069	0.000464
212.7120	-0.000232
212.9171	0.000992
213.1222	0.000042
213.3273	0.000211
213.5325	-0.000274
213.7376	-0.001329
213.9428	0.000443
214.1480	0.001372
214.3532	-0.000591
214.5584	-0.000211
214.7636	0.001393
214.9689	-0.000380
215.1741	-0.000443
215.3794	0.001013
215.5847	-0.001477
215.7900	0.000359
215.9953	-0.000338
216.2007	0.000063
216.4060	0.001055
216.6114	-0.000485
216.8168	-0.000717
217.0222	0.000696
217.2276	-0.000654
217.4330	0.000317
217.6384	0.000253
217.8439	-0.000422
218.0494	-0.000696
218.2548	0.000443
218.4603	-0.001287
218.6659	-0.001224
218.8714	-0.000042
219.0769	-0.000760
219.2825	-0.000570
219.4881	0.000506
219.6936	-0.000127
219.8992	0.002068
220.1049	0.000675
220.3105	-0.000042
220.5161	0.000359
220.7218	0.000443
220.9275	-0.000781
221.1332	-0.000422
221.3389	-0.001561
221.5446	0.000570
221.7503	-0.001055
221.9561	0.000380
222.1618	0.000781
222.3676	0.000443
222.5734	0.000739
222.7792	0.001646
222.9850	-0.000211
223.1909	0.000443
223.3967	0.000506
223.6026	0.000928
223.8085	0.000169
224.0144	0.000338
224.2203	0.000211
224.4262	0.000169
224.6322	0.000380
224.8381	-0.000148
225.0441	0.000443
225.2501	0.000232
225.4561	0.000127
225.6621	-0.000106
225.8681	-0.001836
226.0742	0.001245
226.2802	0.000992
226.4863	0.000106
226.6924	-0.000570
226.8985	-0.001097
227.1046	-0.000063
227.3107	0.000506
227.5169	-0.000148
227.7230	-0.000169
227.9292	0.000232
228.1354	0.000739
228.3416	-0.000844
228.5478	0.000928
228.7541	-0.000696
228.9603	-0.000781
229.1666	-0.000253
229.3729	0.002173
229.5791	-0.000190
229.7855	-0.000148
229.9918	-0.000570
230.1981	0.000760
230.4045	0.000971
230.6108	0.000169
230.8172	-0.000106
231.0236	-0.000211
231.2300	-0.000928
231.4364	-0.000211
231.6429	0.000253
231.8493	-0.000274
232.0558	0.000042
232.2623	-0.000570
232.4688	-0.000317
232.6753	0.001983
232.8818	-0.001245
233.0884	0.000443
233.2949	0.000971
233.5015	0.001540
233.7081	0.000317
233.9147	0.000021
234.1213	-0.000781
234.3279	-0.000317
234.5346	0.000042
234.7413	-0.000422
234.9479	-0.000422
235.1546	0.000717
235.3613	0.000506
235.5680	0.001161
235.7748	0.000169
235.9815	0.001751
236.1883	0.000823
236.3951	0.000971
236.6018	0.000000
236.8087	-0.001182
237.0155	0.001962
237.2223	0.000106
237.4292	-0.000148
237.6360	0.001899
237.8429	0.000760
238.0498	0.000633
238.2567	0.000464
238.4636	0.000106
238.6706	-0.002342
238.8775	0.000106
239.0845	-0.000190
239.2915	-0.000528
239.4985	0.000865
239.7055	0.000570
239.9125	-0.000760
240.1195	0.000781
240.3266	0.000464
240.5337	-0.000211
240.7407	0.000084
240.9478	-0.000591
241.1549	0.000084
241.3621	0.000865
241.5692	0.000802
241.7764	-0.000127
241.9835	0.001097
242.1907	0.000907
242.3979	-0.001329
242.6051	-0.000127
242.8124	0.000823
243.0196	0.000127
243.2269	0.000169
243.4341	0.001203
243.6414	-0.001308
243.8487	0.000359
244.0560	-0.000317
244.2634	0.000359
244.4707	-0.000696
244.6781	-0.000338
244.8854	0.001477
245.0928	-0.000317
245.3002	0.000633
245.5076	0.000802
245.7151	0.000084
245.9225	-0.000295
246.1300	-0.001097
246.3375	0.001414
246.5449	0.000021
246.7524	0.000485
246.9600	-0.000380
247.1675	-0.000886
247.3750	-0.000401
247.5826	0.000633
247.7902	0.000823
247.9978	-0.000950
248.2054	-0.000549
248.4130	0.000865
248.6206	-0.000106
248.8283	0.000211
249.0359	0.001625
249.2436	-0.000042
249.4513	0.000359
249.6590	0.000169
249.8667	-0.000907
250.0745	-0.001329
250.2822	-0.000042
250.4900	0.000570
250.6978	0.000127
250.9056	0.000021
251.1134	0.000253
251.3212	0.000317
251.5290	-0.001287
251.7369	-0.000190
251.9447	0.000591
252.1526	-0.000422
252.3605	0.000380
252.5684	0.001076
252.7763	0.003081
252.9843	0.000549
253.1922	0.000063
253.4002	0.000528
253.6082	-0.000401
253.8162	0.000127
254.0242	-0.000528
254.2322	-0.001139
254.4402	-0.000422
254.6483	-0.000063
254.8564	0.000211
255.0644	0.000232
255.2725	-0.000211
255.4806	0.000696
255.6888	0.000295
255.8969	0.000591
256.1051	0.000549
256.3132	0.001266
256.5214	-0.001118
256.7296	-0.000928
256.9378	-0.000295
257.1460	0.001224
257.3543	0.001245
257.5625	0.000506
257.7708	0.000675
257.9791	0.000127
258.1874	-0.000084
258.3957	0.000844
258.6040	-0.000232
258.8124	0.000042
259.0207	0.000084
259.2291	0.000148
259.4375	0.000338
259.6459	0.000000
259.8543	-0.001034
260.0627	0.000169
260.2711	0.000042
260.4796	-0.000907
260.6881	0.000084
260.8965	-0.000084
261.1050	-0.000148
261.3135	0.001372
261.5221	0.000295
261.7306	0.000528
261.9392	-0.000422
262.1477	-0.000506
262.3563	-0.000084
262.5649	0.000907
262.7735	0.000232
262.9822	0.001097
263.1908	-0.000464
263.3995	0.001182
263.6081	0.000971
263.8168	0.000971
264.0255	-0.001161
264.2342	-0.000506
264.4429	0.000971
264.6517	0.000127
264.8604	0.000127
265.0692	0.000211
265.2780	-0.001435
265.4868	0.000739
265.6956	-0.000274
265.9044	0.000380
266.1133	-0.000928
266.3221	-0.000317
266.5310	-0.000106
266.7399	-0.000591
266.9488	0.000675
267.1577	-0.002406
267.3666	-0.000401
267.5755	0.001224
267.7845	-0.000042
267.9935	0.001097
268.2024	0.000000
268.4114	0.000675
268.6205	-0.001477
268.8295	0.000506
269.0385	-0.000485
269.2476	0.000950
269.4566	-0.001224
269.6657	-0.000148
269.8748	-0.000612
270.0839	0.000591
270.2931	-0.000084
270.5022	0.000253
270.7114	-0.000422
270.9205	-0.000021
271.1297	-0.000232
271.3389	0.000021
271.5481	0.000971
271.7573	0.000211
271.9666	-0.000570
272.1758	0.000675
272.3851	-0.000127
272.5944	0.000317
272.8037	0.000084
273.0130	0.000317
273.2223	-0.000106
273.4316	-0.000359
273.6410	0.000190
273.8504	0.000907
274.0597	0.000127
274.2691	-0.000232
274.4785	-0.000950
274.6880	0.001329
274.8974	-0.000886
275.1069	-0.000549
275.3163	0.000633
275.5258	-0.000211
275.7353	0.000633
275.9448	0.000549
276.1543	-0.000570
276.3639	0.001477
276.5734	0.000696
276.7830	0.000000
276.9926	0.000464
277.2022	0.000084
277.4118	-0.000443
277.6214	0.001688
277.8310	-0.000211
278.0407	0.000063
278.2503	-0.000253
278.4600	0.000443
278.6697	0.001076
278.8794	0.000739
279.0891	-0.001477
279.2989	0.000359
279.5086	-0.001393
279.7184	-0.000950
279.9281	-0.000654
280.1379	0.001118
280.3477	-0.000549
280.5576	-0.000063
280.7674	0.000190
280.9772	0.000317
281.1871	-0.000127
281.3970	-0.000338
281.6069	0.002131
281.8168	0.000169
282.0267	-0.001203
282.2366	-0.000443
282.4466	0.001730
282.6565	0.001034
282.8665	0.000021
283.0765	0.000338
283.2865	-0.000106
283.4965	0.000042
283.7065	-0.000464
283.9166	-0.000464
284.1266	-0.001097
284.3367	0.000928
284.5468	0.000084
284.7569	0.000675
284.9670	-0.000190
285.1771	0.001414
285.3873	-0.000464
285.5974	0.001329
285.8076	0.000528
286.0178	0.000971
286.2280	0.001203
286.4382	-0.000338
286.6484	0.000464
286.8587	0.000760
287.0689	-0.000950
287.2792	-0.000401
287.4895	-0.001372
287.6998	0.000063
287.9101	0.000654
288.1204	0.000907
288.3308	0.000992
288.5411	-0.000084
288.7515	-0.000612
288.9619	0.000084
289.1723	0.001266
289.3827	0.000211
289.5931	-0.000823
289.8035	0.001245
290.0140	-0.000549
290.2245	-0.000338
290.4349	-0.000274
290.6454	0.001076
290.8559	-0.000506
291.0665	0.000084
291.2770	-0.000338
291.4875	0.001013
291.6981	0.000190
291.9087	-0.000443
292.1193	-0.000359
292.3299	-0.000359
292.5405	0.000295
292.7511	0.000760
292.9618	-0.000992
293.1724	0.000169
293.3831	-0.001139
293.5938	0.001414
293.8045	-0.000190
294.0152	0.000021
294.2260	0.000274
294.4367	0.000021
294.6475	0.000549
294.8582	-0.000211
295.0690	-0.001287
295.2798	-0.000549
295.4906	-0.000549
295.7015	0.000802
295.9123	0.000443
296.1232	0.000084
296.3340	-0.000823
296.5449	0.000464
296.7558	0.000865
296.9667	0.000485
297.1777	-0.000063
297.3886	-0.000844
297.5995	-0.000042
297.8105	0.001224
298.0215	-0.000380
298.2325	0.001097
298.4435	-0.000169
298.6545	0.000211
298.8656	-0.000380
299.0766	0.000148
299.2877	-0.000295
299.4988	0.000295
299.7099	-0.000781
299.9210	0.000570
300.1321	-0.001034
300.3432	0.000232
300.5544	0.000359
300.7655	0.001372
300.9767	-0.000971
301.1879	0.000211
301.3991	-0.000570
301.6103	-0.000696
301.8215	-0.000190
302.0328	0.001076
302.2441	-0.000570
302.4553	-0.000148
302.6666	0.000654
302.8779	0.002195
303.0892	-0.001815
303.3006	0.000021
303.5119	0.000485
303.7233	-0.000886
303.9346	0.000000
304.1460	0.000401
304.3574	-0.000612
304.5688	-0.000042
304.7803	-0.000549
304.9917	-0.000190
305.2031	-0.000190
305.4146	0.000992
305.6261	0.000781
305.8376	0.000063
306.0491	-0.001097
306.2606	-0.000106
306.4722	0.000464
306.6837	-0.000042
306.8953	0.000823
307.1069	0.000570
307.3184	-0.000380
307.5301	0.001118
307.7417	0.000148
307.9533	0.000633
308.1650	-0.000591
308.3766	-0.000127
308.5883	0.000127
308.8000	-0.000380
309.0117	-0.000950
309.2234	0.000084
309.4351	0.000359
309.6469	0.001583
309.8586	-0.001688
310.0704	0.001329
310.2822	0.000063
310.4940	0.000042
310.7058	-0.000549
310.9176	-0.000127
311.1295	-0.000844
311.3413	0.001076
311.5532	0.000295
311.7651	0.000084
311.9770	0.000823
312.1889	0.000464
312.4008	-0.000570
312.6127	0.000190
312.8247	0.000169
313.0366	0.000717
313.2486	-0.000042
313.4606	0.000317
313.6726	-0.000127
313.8846	0.001139
314.0967	-0.000021
314.3087	0.000338
314.5208	0.000823
314.7328	-0.000696
314.9449	-0.000148
315.1570	0.001667
315.3692	-0.000042
315.5813	0.001583
315.7934	0.001372
316.0056	0.000169
316.2177	0.000886
316.4299	-0.000717
316.6421	-0.000717
316.8543	-0.000401
317.0666	-0.000021
317.2788	0.001372
317.4911	-0.000654
317.7033	-0.001034
317.9156	0.000359
318.1279	0.000338
318.3402	-0.000612
318.5525	-0.000802
318.7649	-0.000781
318.9772	0.000739
319.1896	0.001034
319.4019	-0.000042
319.6143	-0.000950
319.8267	0.001055
320.0392	-0.000106
320.2516	0.000781
320.4640	-0.000464
320.6765	0.000359
320.8890	0.000084
321.1014	-0.000675
321.3139	-0.000042
321.5265	0.001097
321.7390	0.001561
321.9515	0.000654
322.1641	0.000000
322.3766	0.000338
322.5892	0.000506
322.8018	0.001139
323.0144	0.000148
323.2270	0.000443
323.4397	0.000211
323.6523	0.000169
323.8650	-0.000570
324.0777	0.001287
324.2904	-0.000359
324.5031	0.000971
324.7158	0.000633
324.9285	-0.000928
325.1412	-0.000506
325.3540	0.000992
325.5668	-0.000633
325.7796	0.000401
325.9924	0.000084
326.2052	0.000253
326.4180	-0.001139
326.6308	0.000211
326.8437	0.000886
327.0566	0.000950
327.2694	0.001941
327.4823	-0.000106
327.6952	-0.001329
327.9082	0.000401
328.1211	0.001203
328.3340	0.000359
328.5470	-0.000549
328.7600	0.001245
328.9730	-0.000211
329.1860	-0.000570
329.3990	0.000485
329.6120	-0.000886
329.8251	-0.000148
330.0381	0.000317
330.2512	-0.000781
330.4643	0.001203
330.6774	-0.000359
330.8905	0.000169
331.1036	0.000865
331.3167	-0.000506
331.5299	-0.000084
331.7431	-0.000823
331.9562	0.000063
332.1694	0.000781
332.3826	-0.000971
332.5959	-0.000232
332.8091	0.000781
333.0223	0.001245
333.2356	-0.001266
333.4489	0.000506
333.6622	0.001646
333.8755	-0.001118
334.0888	0.000106
334.3021	-0.000717
334.5154	-0.000886
334.7288	0.000380
334.9422	-0.000950
335.1555	0.001393
335.3689	-0.000823
335.5823	0.001329
335.7958	0.001414
336.0092	-0.000506
336.2227	0.000760
336.4361	-0.000907
336.6496	-0.000886
336.8631	0.000612
337.0766	0.000127
337.2901	-0.001350
337.5036	-0.000443
337.7172	-0.000696
337.9307	-0.000928
338.1443	0.000127
338.3579	-0.001941
338.5715	0.000380
338.7851	0.000274
338.9987	-0.000739
339.2124	-0.001393
339.4260	-0.000063
339.6397	-0.001076
339.8533	-0.000084
340.0670	-0.000802
340.2807	0.000127
340.4945	0.000612
340.7082	0.000106
340.9219	-0.000084
341.1357	-0.000443
341.3495	0.000084
341.5633	0.000591
341.7771	-0.000633
341.9909	0.000675
342.2047	-0.000865
342.4185	-0.000570
342.6324	-0.000844
342.8463	-0.000295
343.0601	0.001646
343.2740	-0.000633
343.4879	-0.000380
343.7019	-0.000359
343.9158	0.000063
344.1297	0.000696
344.3437	-0.000148
344.5577	-0.000232
344.7717	0.000928
344.9857	0.000781
345.1997	-0.000823
345.4137	0.000823
345.6277	0.000865
345.8418	0.000443
346.0559	0.000232
346.2699	0.000992
346.4840	-0.000169
346.6981	-0.000359
346.9123	0.001097
347.1264	-0.000148
347.3406	-0.000992
347.5547	-0.000127
347.7689	0.000950
347.9831	0.000106
348.1973	-0.000654
348.4115	0.000148
348.6257	0.000528
348.8400	0.000359
349.0542	-0.000169
349.2685	0.000274
349.4828	0.000802
349.6971	-0.000211
349.9114	0.000464
350.1257	0.000612
350.3400	0.000464
350.5544	-0.000232
350.7687	0.000295
350.9831	0.000633
351.1975	-0.000696
351.4119	0.000760
351.6263	0.000654
351.8407	0.001161
352.0552	0.001224
352.2696	0.000696
352.4841	0.000760
352.6986	0.001308
352.9131	0.000190
353.1276	-0.000021
353.3421	-0.000274
353.5566	0.001139
353.7712	-0.002005
353.9858	-0.000084
354.2003	-0.000063
354.4149	0.001815
354.6295	0.000633
354.8441	0.000907
355.0588	-0.000106
355.2734	0.000232
355.4881	0.000506
355.7027	-0.000485
355.9174	-0.000950
356.1321	0.001139
356.3468	0.000253
356.5615	0.000422
356.7763	-0.000506
356.9910	0.000633
357.2058	-0.000042
357.4206	0.000464
357.6353	-0.000021
357.8501	-0.000844
358.0650	0.000042
358.2798	0.000295
358.4946	-0.000169
358.7095	0.000528
358.9243	-0.000127
359.1392	0.000042
359.3541	-0.000042
359.5690	0.000042
359.7839	0.000612
359.9989	-0.000717
360.2138	0.001013
360.4288	0.000464
360.6438	-0.000190
360.8587	0.000000
361.0737	-0.000528
361.2888	0.000506
361.5038	-0.001350
361.7188	0.000485
361.9339	-0.000696
362.1489	0.001034
362.3640	-0.000063
362.5791	-0.000464
362.7942	-0.000274
363.0093	0.000696
363.2245	0.001224
363.4396	0.000506
363.6548	-0.000717
363.8699	0.000169
364.0851	0.001372
364.3003	0.000549
364.5155	-0.000084
364.7308	0.000696
364.9460	0.000084
365.1612	0.000907
365.3765	-0.001899
365.5918	0.000148
365.8071	-0.001561
366.0224	0.000823
366.2377	0.000127
366.4530	-0.000422
366.6684	0.001414
366.8837	-0.000401
367.0991	0.000464
367.3145	0.000950
367.5299	-0.000359
367.7453	0.001097
367.9607	0.000781
368.1761	-0.000971
368.3916	0.001076
368.6070	-0.000506
368.8225	-0.000359
369.0380	-0.000570
369.2535	-0.000443
369.4690	0.000549
369.6845	-0.000675
369.9001	0.000591
370.1156	0.000443
370.3312	0.001287
370.5468	0.000295
370.7624	0.000084
370.9780	0.000633
371.1936	0.000000
371.4092	-0.000317
371.6249	0.000696
371.8405	0.001519
372.0562	0.000464
372.2719	-0.000338
372.4876	0.000359
372.7033	-0.000696
372.9190	0.001604
373.1348	-0.000253
373.3505	0.000971
373.5663	0.000380
373.7820	0.000359
373.9978	0.000781
374.2136	0.000127
374.4294	0.000190
374.6453	0.000338
374.8611	-0.000317
375.0770	0.000992
375.2928	-0.000127
375.5087	0.000633
375.7246	0.000317
375.9405	0.001076
376.1564	0.000190
376.3724	0.000401
376.5883	0.000338
376.8043	0.000422
377.0203	-0.000802
377.2362	0.000401
377.4522	0.000506
377.6682	0.000317
377.8843	0.000232
378.1003	0.000971
378.3164	0.000506
378.5324	0.000295
378.7485	0.000886
378.9646	0.000549
379.1807	-0.000570
379.3968	-0.000844
379.6129	-0.001540
379.8291	0.000781
380.0452	-0.000506
380.2614	0.001139
380.4776	0.000380
380.6938	0.000380
380.9100	-0.000106
381.1262	-0.000274
381.3424	0.000464
381.5587	0.001751
381.7749	-0.000528
381.9912	0.000950
382.2075	0.001561
382.4238	0.000781
382.6401	0.000570
382.8564	-0.001287
383.0728	-0.001815
383.2891	0.000485
383.5055	0.000781
383.7219	0.000211
383.9382	-0.001182
384.1546	-0.000506
384.3711	-0.000084
384.5875	0.000549
384.8039	0.000485
385.0204	0.000591
385.2368	0.000802
385.4533	-0.000084
385.6698	-0.000148
385.8863	0.001646
386.1028	0.000506
386.3194	0.000422
386.5359	0.001477
386.7525	-0.001203
386.9690	0.000485
387.1856	0.000148
387.4022	-0.000675
387.6188	-0.001224
387.8355	0.000380
388.0521	0.000127
388.2687	-0.000654
388.4854	0.001857
388.7021	0.000317
388.9188	-0.000274
389.1355	-0.000295
389.3522	0.001266
389.5689	0.000380
389.7856	-0.000591
390.0024	0.001308
390.2192	0.001224
390.4359	0.000886
390.6527	0.000464
390.8695	-0.000295
391.0863	0.000928
391.3032	0.000443
391.5200	0.001203
391.7369	0.000506
391.9537	0.001055
392.1706	0.001498
392.3875	0.000274
392.6044	0.000253
392.8213	0.002490
393.0383	0.000570
393.2552	0.000106
393.4722	0.001941
393.6891	0.000127
393.9061	0.002173
394.1231	0.001857
394.3401	-0.000886
394.5572	0.001372
394.7742	0.000084
394.9912	0.001583
395.2083	0.001667
395.4254	0.002110
395.6425	0.001625
395.8596	0.001794
396.0767	0.001456
396.2938	0.002427
396.5109	0.001245
396.7281	0.001055
396.9453	0.001941
397.1624	0.002300
397.3796	0.002511
397.5968	0.002617
397.8140	0.002068
398.0313	0.001794
398.2485	0.001329
398.4658	0.003925
398.6830	0.003819
398.9003	0.002089
399.1176	0.002806
399.3349	0.003123
399.5522	0.003461
399.7696	0.004410
399.9869	0.003418
400.2043	0.002849
400.4216	0.003798
400.6390	0.002553
400.8564	0.003756
401.0738	0.003355
401.2912	0.003840
401.5087	0.003650
401.7261	0.004727
401.9436	0.004241
402.1610	0.004094
402.3785	0.003482
402.5960	0.004621
402.8135	0.004558
403.0310	0.003756
403.2486	0.003186
403.4661	0.003946
403.6837	0.007048
403.9013	0.004495
404.1189	0.005001
404.3365	0.002954
404.5541	0.005634
404.7717	0.006183
404.9893	0.004136
405.2070	0.004769
405.4246	0.005381
405.6423	0.005908
405.8600	0.005782
406.0777	0.005824
406.2954	0.005718
406.5131	0.006014
406.7309	0.005676
406.9486	0.005381
407.1664	0.005550
407.3842	0.005824
407.6020	0.004157
407.8198	0.006098
408.0376	0.005803
408.2554	0.008272
408.4733	0.007955
408.6911	0.008293
408.9090	0.006668
409.1269	0.006942
409.3448	0.005824
409.5627	0.006246
409.7806	0.006731
409.9985	0.006267
410.2165	0.006541
410.4344	0.007850
410.6524	0.006963
410.8704	0.007428
411.0884	0.007153
411.3064	0.007554
411.5244	0.007575
411.7424	0.008483
411.9605	0.006921
412.1785	0.009031
412.3966	0.008504
412.6147	0.008293
412.8328	0.008926
413.0509	0.007913
413.2690	0.006921
413.4871	0.009221
413.7053	0.008208
413.9234	0.009179
414.1416	0.009137
414.3598	0.009622
414.5780	0.007090
414.7962	0.009875
415.0144	0.009095
415.2326	0.009306
415.4509	0.008715
415.6692	0.007934
415.8874	0.009770
416.1057	0.008483
416.3240	0.010276
416.5423	0.010086
416.7606	0.009728
416.9790	0.010318
417.1973	0.008905
417.4157	0.010403
417.6341	0.010804
417.8524	0.009875
418.0708	0.009263
418.2893	0.010065
418.5077	0.011141
418.7261	0.012555
418.9446	0.011627
419.1630	0.011817
419.3815	0.011120
419.6000	0.011795
419.8185	0.012471
420.0370	0.011985
420.2555	0.012597
420.4741	0.012386
420.6926	0.013378
420.9112	0.012492
421.1298	0.014897
421.3483	0.013800
421.5669	0.013779
421.7856	0.015362
422.0042	0.014412
422.2228	0.014370
422.4415	0.014644
422.6601	0.015446
422.8788	0.014096
423.0975	0.015108
423.3162	0.014222
423.5349	0.013230
423.7536	0.013779
423.9724	0.014159
424.1911	0.013209
424.4099	0.014940
424.6287	0.013040
424.8475	0.014032
425.0663	0.013526
425.2851	0.015847
425.5039	0.013927
425.7228	0.012365
425.9416	0.012640
426.1605	0.012218
426.3793	0.012112
426.5982	0.013927
426.8171	0.013863
427.0361	0.012260
427.2550	0.015108
427.4739	0.012956
427.6929	0.015425
427.9118	0.014560
428.1308	0.014475
428.3498	0.015636
428.5688	0.015003
428.7878	0.014897
429.0068	0.014539
429.2259	0.015193
429.4449	0.016459
429.6640	0.017725
429.8831	0.017704
430.1022	0.016480
430.3213	0.016691
430.5404	0.017851
430.7595	0.016628
430.9787	0.017029
431.1978	0.016163
431.4170	0.015784
431.6362	0.015573
431.8553	0.014750
432.0745	0.014897
432.2938	0.015636
432.5130	0.013146
432.7322	0.015340
432.9515	0.013589
433.1707	0.014581
433.3900	0.014940
433.6093	0.016501
433.8286	0.017851
434.0479	0.019181
434.2673	0.017788
434.4866	0.015340
434.7059	0.017113
434.9253	0.016712
435.1447	0.017303
435.3641	0.017218
435.5835	0.015151
435.8029	0.015784
436.0223	0.016438
436.2418	0.016670
436.4612	0.017472
436.6807	0.017873
436.9001	0.017556
437.1196	0.015784
437.3391	0.017514
437.5586	0.016733
437.7782	0.016100
437.9977	0.018041
438.2173	0.017493
438.4368	0.016185
438.6564	0.018168
438.8760	0.016037
439.0956	0.015995
439.3152	0.015298
439.5348	0.015615
439.7545	0.019392
439.9741	0.016142
440.1938	0.017261
440.4135	0.016480
440.6331	0.017619
440.8528	0.016944
441.0725	0.018632
441.2923	0.020447
441.5120	0.020468
441.7318	0.019181
441.9515	0.020405
442.1713	0.019835
442.3911	0.020088
442.6109	0.018548
442.8307	0.019307
443.0505	0.018442
443.2703	0.019012
443.4902	0.019329
443.7101	0.020299
443.9299	0.021396
444.1498	0.021017
444.3697	0.019603
444.5896	0.019413
444.8095	0.019856
445.0295	0.020299
445.2494	0.021375
445.4694	0.019265
445.6894	0.018611
445.9093	0.019940
446.1293	0.019075
446.3493	0.019096
446.5694	0.020088
446.7894	0.021101
447.0094	0.017556
447.2295	0.018400
447.4496	0.018632
447.6696	0.018210
447.8897	0.017197
448.1098	0.019181
448.3300	0.017873
448.5501	0.017451
448.7702	0.018337
448.9904	0.019413
449.2106	0.017155
449.4307	0.018189
449.6509	0.017725
449.8711	0.018147
450.0914	0.017704
450.3116	0.017029
450.5318	0.018041
450.7521	0.017451
450.9724	0.016923
451.1926	0.016248
451.4129	0.016839
451.6332	0.015003
451.8535	0.015699
452.0739	0.016396
452.2942	0.016881
452.5146	0.015488
452.7349	0.016185
452.9553	0.016649
453.1757	0.013842
453.3961	0.014391
453.6165	0.012787
453.8369	0.015573
454.0574	0.013800
454.2778	0.015573
454.4983	0.012893
454.7188	0.015277
454.9393	0.014834
455.1597	0.014180
455.3803	0.013125
455.6008	0.015699
455.8213	0.014180
456.0419	0.015446
456.2624	0.015340
456.4830	0.014644
456.7036	0.013716
456.9242	0.013462
457.1448	0.013547
457.3654	0.012745
457.5860	0.013399
457.8067	0.015024
458.0274	0.016417
458.2480	0.015045
458.4687	0.012745
458.6894	0.013315
458.9101	0.014518
459.1308	0.015024
459.3516	0.013062
459.5723	0.012787
459.7931	0.012618
460.0138	0.013505
460.2346	0.013758
460.4554	0.014433
460.6762	0.013441
460.8970	0.012450
461.1178	0.012914
461.3387	0.013083
461.5595	0.013652
461.7804	0.012492
462.0013	0.013800
462.2222	0.012112
462.4431	0.010951
462.6640	0.010318
462.8849	0.009854
463.1059	0.011880
463.3268	0.011120
463.5478	0.011732
463.7687	0.011458
463.9897	0.012365
464.2107	0.011817
464.4317	0.013251
464.6528	0.011606
464.8738	0.009917
465.0948	0.013505
465.3159	0.012049
465.5370	0.012471
465.7581	0.013251
465.9792	0.013484
466.2003	0.010171
466.4214	0.010973
466.6425	0.010002
466.8637	0.011184
467.0848	0.010023
467.3060	0.010023
467.5272	0.009875
467.7484	0.009875
467.9696	0.008588
468.1908	0.010614
468.4120	0.008567
468.6333	0.009390
468.8545	0.008651
469.0758	0.009474
469.2970	0.007048
469.5183	0.008778
469.7396	0.006689
469.9610	0.009664
470.1823	0.008504
470.4036	0.007428
470.6250	0.006984
470.8463	0.005929
471.0677	0.007385
471.2891	0.005360
471.5105	0.006900
471.7319	0.006731
471.9533	0.005908
472.1748	0.008251
472.3962	0.007512
472.6177	0.007027
472.8391	0.006056
473.0606	0.007639
473.2821	0.006035
473.5036	0.007006
473.7251	0.006984
473.9467	0.007069
474.1682	0.006330
474.3898	0.006520
474.6113	0.008356
474.8329	0.006942
475.0545	0.006900
475.2761	0.007111
475.4977	0.007554
475.7193	0.007385
475.9410	0.006626
476.1626	0.007301
476.3843	0.006162
476.6060	0.007111
476.8277	0.006689
477.0494	0.006140
477.2711	0.004853
477.4928	0.006077
477.7145	0.005360
477.9363	0.005866
478.1580	0.007111
478.3798	0.006626
478.6016	0.005676
478.8234	0.006415
479.0452	0.005613
479.2670	0.005972
479.4888	0.005275
479.7107	0.006710
479.9325	0.005613
480.1544	0.006288
480.3763	0.006520
480.5982	0.005128
480.8201	0.006541
481.0420	0.004853
481.2639	0.003714
481.4859	0.005676
481.7078	0.005381
481.9298	0.005423
482.1517	0.005360
482.3737	0.005866
482.5957	0.003165
482.8177	0.004853
483.0398	0.003545
483.2618	0.005233
483.4838	0.005528
483.7059	0.006436
483.9280	0.004051
484.1501	0.005718
484.3721	0.005845
484.5943	0.004684
484.8164	0.005444
485.0385	0.005149
485.2606	0.005296
485.4828	0.008567
485.7050	0.008757
485.9271	0.015151
486.1493	0.015636
486.3715	0.013716
486.5937	0.010150
486.8160	0.009706
487.0382	0.008356
487.2605	0.007554
487.4827	0.007364
487.7050	0.005824
487.9273	0.002912
488.1496	0.003186
488.3719	0.003397
488.5942	0.002764
488.8165	0.003397
489.0389	0.003650
489.2612	0.004684
489.4836	0.003629
489.7060	0.003587
489.9284	0.003967
490.1508	0.004178
490.3732	0.004220
490.5956	0.004706
490.8180	0.004917
491.0405	0.003629
491.2630	0.003397
491.4854	0.003017
491.7079	0.004094
491.9304	0.003545
492.1529	0.003672
492.3755	0.003503
492.5980	0.003439
492.8205	0.002764
493.0431	0.003397
493.2657	0.004495
493.4882	0.004094
493.7108	0.002469
493.9334	0.003819
494.1561	0.003714
494.3787	0.004368
494.6013	0.002490
494.8240	0.004073
495.0466	0.002996
495.2693	0.002975
495.4920	0.001182
495.7147	0.001941
495.9374	0.001583
496.1601	0.002912
496.3829	0.002089
496.6056	0.002975
496.8284	0.003418
497.0511	0.004199
497.2739	0.003376
497.4967	0.003439
497.7195	0.003186
497.9423	0.000591
498.1652	0.003271
498.3880	0.002047
498.6109	0.002933
498.8337	0.001604
499.0566	0.003039
499.2795	0.002595
499.5024	0.002279
499.7253	0.003334
499.9482	0.002617
500.1712	0.003081
500.3941	0.002595
500.6171	0.002384
500.8400	0.002912
501.0630	0.002216
501.2860	0.002764
501.5090	0.003418
501.7320	0.002511
501.9551	0.002743
502.1781	0.002764
502.4012	0.002996
502.6242	0.002173
502.8473	0.004051
503.0704	0.001414
503.2935	0.002680
503.5166	0.002996
503.7397	0.002574
503.9628	0.002384
504.1860	0.002849
504.4092	0.003861
504.6323	0.002342
504.8555	0.000506
505.0787	0.003461
505.3019	0.002806
505.5251	0.003123
505.7483	0.001203
505.9716	0.002089
506.1948	0.000928
506.4181	0.002743
506.6414	0.001372
506.8647	0.002912
507.0880	0.001836
507.3113	0.002068
507.5346	0.002806
507.7579	0.001583
507.9813	0.001709
508.2046	0.002490
508.4280	0.002321
508.6514	0.003967
508.8748	0.002638
509.0982	0.003250
509.3216	0.002427
509.5450	0.003102
509.7685	0.001646
509.9919	0.001625
510.2154	0.002089
510.4388	0.003672
510.6623	0.001350
510.8858	0.001751
511.1093	0.001329
511.3329	0.002933
511.5564	0.002005
511.7799	0.003566
512.0035	0.002870
512.2270	0.000971
512.4506	0.001983
512.6742	0.002279
512.8978	0.004495
513.1214	0.002384
513.3451	0.002110
513.5687	0.002680
513.7923	0.002216
514.0160	0.002785
514.2397	0.001688
514.4634	0.003102
514.6871	0.002216
514.9108	0.003313
515.1345	0.002764
515.3582	0.002469
515.5819	0.002026
515.8057	0.002469
516.0295	0.001182
516.2532	0.001794
516.4770	0.002173
516.7008	0.002110
516.9246	0.002511
517.1485	0.003545
517.3723	0.003102
517.5961	0.002722
517.8200	0.002427
518.0439	0.001097
518.2677	0.002828
518.4916	0.002342
518.7155	0.002912
518.9395	0.002216
519.1634	0.002152
519.3873	0.003228
519.6113	0.003355
519.8352	0.003735
520.0592	0.001329
520.2832	0.002743
520.5072	0.002131
520.7312	0.001604
520.9552	0.002722
521.1792	0.001667
521.4033	0.002659
521.6273	0.002152
521.8514	0.002005
522.0755	0.002110
522.2996	0.002300
522.5237	0.002321
522.7478	0.003017
522.9719	0.003165
523.1960	0.002342
523.4202	0.002258
523.6443	0.002047
523.8685	0.003355
524.0927	0.003566
524.3169	0.002005
524.5411	0.004136
524.7653	0.001161
524.9895	0.003123
525.2138	0.001076
525.4380	0.002722
525.6623	0.002363
525.8865	0.003545
526.1108	0.003819
526.3351	0.003904
526.5594	0.002173
526.7837	0.002870
527.0081	0.003587
527.2324	0.003250
527.4568	0.003608
527.6811	0.004284
527.9055	0.003735
528.1299	0.004030
528.3543	0.003524
528.5787	0.005043
528.8031	0.003292
529.0276	0.004136
529.2520	0.002638
529.4765	0.004938
529.7009	0.003355
529.9254	0.003840
530.1499	0.003355
530.3744	0.002954
530.5989	0.003060
530.8234	0.003798
531.0480	0.004178
531.2725	0.003081
531.4971	0.005149
531.7217	0.004473
531.9462	0.004558
532.1708	0.004431
532.3954	0.003777
532.6200	0.005064
532.8447	0.006119
533.0693	0.005233
533.2940	0.004621
533.5186	0.004051
533.7433	0.004874
533.9680	0.007385
534.1927	0.005824
534.4174	0.004874
534.6421	0.005212
534.8668	0.005950
535.0916	0.005360
535.3163	0.006267
535.5411	0.007259
535.7659	0.007660
535.9907	0.007111
536.2155	0.005761
536.4403	0.006921
536.6651	0.006499
536.8899	0.005402
537.1148	0.006225
537.3396	0.005613
537.5645	0.007512
537.7894	0.005592
538.0143	0.006457
538.2392	0.006035
538.4641	0.006562
538.6890	0.007617
538.9139	0.008462
539.1389	0.008567
539.3638	0.008715
539.5888	0.009643
539.8138	0.009137
540.0388	0.008609
540.2638	0.008208
540.4888	0.007512
540.7138	0.009242
540.9389	0.009095
541.1639	0.009517
541.3890	0.008504
541.6140	0.008905
541.8391	0.008040
542.0642	0.010276
542.2893	0.009348
542.5144	0.008968
542.7396	0.008989
542.9647	0.009221
543.1899	0.010361
543.4150	0.009306
543.6402	0.011289
543.8654	0.009939
544.0906	0.010551
544.3158	0.010656
544.5410	0.011036
544.7662	0.011795
544.9915	0.012787
545.2167	0.012323
545.4420	0.012196
545.6673	0.012429
545.8926	0.011838
546.1179	0.012112
546.3432	0.010340
546.5685	0.012006
546.7938	0.012640
547.0192	0.011732
547.2445	0.012006
547.4699	0.013315
547.6953	0.012787
547.9206	0.015235
548.1460	0.015108
548.3715	0.014940
548.5969	0.015214
548.8223	0.016079
549.0478	0.013104
549.2732	0.015594
549.4987	0.013336
549.7242	0.013948
549.9496	0.012386
550.1751	0.014729
550.4007	0.014560
550.6262	0.013420
550.8517	0.013462
551.0773	0.014982
551.3028	0.013230
551.5284	0.013568
551.7540	0.014032
551.9796	0.017007
552.2052	0.015973
552.4308	0.016290
552.6564	0.017640
552.8820	0.017366
553.1077	0.017662
553.3333	0.018379
553.5590	0.017767
553.7847	0.017556
554.0104	0.017936
554.2361	0.017704
554.4618	0.015551
554.6875	0.016290
554.9132	0.019118
555.1390	0.019307
555.3648	0.018991
555.5905	0.019413
555.8163	0.018463
556.0421	0.020552
556.2679	0.020426
556.4937	0.019139
556.7195	0.019814
556.9454	0.019940
557.1712	0.019181
557.3971	0.021607
557.6230	0.022304
557.8488	0.018126
558.0747	0.020869
558.3006	0.020616
558.5266	0.017936
558.7525	0.019561
558.9784	0.019455
559.2044	0.019983
559.4303	0.020004
559.6563	0.021354
559.8823	0.021861
560.1083	0.021270
560.3343	0.023274
560.5603	0.023865
560.7863	0.024667
561.0124	0.027368
561.2384	0.025996
561.4645	0.027642
561.6905	0.026018
561.9166	0.027052
562.1427	0.023612
562.3688	0.027199
562.5949	0.026503
562.8211	0.024752
563.0472	0.025807
563.2733	0.028254
563.4995	0.025300
563.7257	0.029352
563.9519	0.028634
564.1781	0.030301
564.4043	0.029858
564.6305	0.030808
564.8567	0.031187
565.0829	0.032074
565.3092	0.029267
565.5355	0.031694
565.7617	0.030006
565.9880	0.031019
566.2143	0.030575
566.4406	0.031820
566.6669	0.033508
566.8932	0.035830
567.1196	0.035956
567.3459	0.040598
567.5723	0.040831
567.7987	0.043890
568.0250	0.042434
568.2514	0.045853
568.4778	0.048448
568.7043	0.051276
568.9307	0.054314
569.1571	0.057332
569.3836	0.058893
569.6100	0.067270
569.8365	0.072018
570.0630	0.079045
570.2895	0.080585
570.5160	0.079741
570.7425	0.084763
570.9690	0.088540
571.1956	0.091979
571.4221	0.097909
571.6487	0.097846
571.8752	0.101243
572.1018	0.107510
572.3284	0.107130
572.5550	0.100483
572.7816	0.094005
573.0082	0.091304
573.2349	0.094870
573.4615	0.106307
573.6882	0.112996
573.9149	0.120149
574.1415	0.123019
574.3682	0.129054
574.5949	0.132388
574.8216	0.135363
575.0484	0.136946
575.2751	0.135553
575.5018	0.133907
575.7286	0.125847
575.9554	0.123104
576.1821	0.121837
576.4089	0.126733
576.6357	0.132367
576.8626	0.140132
577.0894	0.144690
577.3162	0.144500
577.5431	0.153531
577.7699	0.166530
577.9968	0.195227
578.2237	0.190142
578.4505	0.176004
578.6774	0.164757
578.9044	0.154629
579.1313	0.149817
579.3582	0.152139
579.5851	0.154101
579.8121	0.159292
580.0391	0.159144
580.2660	0.162056
580.4930	0.159777
580.7200	0.158216
580.9470	0.156528
581.1741	0.189361
581.4011	0.224726
581.6281	0.254563
581.8552	0.253909
582.0822	0.245637
582.3093	0.240425
582.5364	0.225760
582.7635	0.204659
582.9906	0.184803
583.2177	0.177840
583.4449	0.159672
583.6720	0.149543
583.8991	0.143445
584.1263	0.149628
584.3535	0.152793
584.5807	0.151864
584.8079	0.165538
585.0351	0.174105
585.2623	0.186934
585.4895	0.186407
585.7167	0.185098
585.9440	0.181954
586.1713	0.169758
586.3985	0.157941
586.6258	0.152033
586.8531	0.158047
587.0804	0.166171
587.3077	0.174020
587.5350	0.178578
587.7624	0.177460
587.9897	0.168724
588.2171	0.163871
588.4445	0.159440
588.6718	0.156886
588.8992	0.142474
589.1266	0.138381
589.3540	0.129771
589.5815	0.125235
589.8089	0.128273
590.0363	0.125783
590.2638	0.119432
590.4913	0.117448
590.7187	0.113756
590.9462	0.107236
591.1737	0.106138
591.4012	0.101180
591.6288	0.102889
591.8563	0.102488
592.0838	0.102741
592.3114	0.104345
592.5389	0.123631
592.7665	0.142812
592.9941	0.159735
593.2217	0.160579
593.4493	0.158870
593.6769	0.157393
593.9046	0.152392
594.1322	0.145555
594.3598	0.133148
594.5875	0.133485
594.8152	0.141440
595.0429	0.155958
595.2705	0.156739
595.4983	0.148615
595.7260	0.144458
595.9537	0.135933
596.1814	0.128210
596.4092	0.121837
596.6369	0.114093
596.8647	0.109768
597.0925	0.114748
597.3203	0.118018
597.5481	0.122660
597.7759	0.117364
598.0037	0.114283
598.2315	0.110654
598.4594	0.112595
598.6872	0.121437
598.9151	0.139858
599.1430	0.148699
599.3709	0.150218
599.5988	0.140765
599.8267	0.138001
600.0546	0.143150
600.2825	0.146315
600.5105	0.144648
600.7384	0.147412
600.9664	0.145977
601.1944	0.150640
601.4223	0.146927
601.6503	0.139752
601.8783	0.135469
602.1064	0.134878
602.3344	0.132114
602.5624	0.130827
602.7905	0.136186
603.0185	0.137579
603.2466	0.145049
603.4747	0.151611
603.7028	0.147602
603.9309	0.144817
604.1590	0.141314
604.3871	0.131122
604.6152	0.128316
604.8434	0.122555
605.0715	0.122956
605.2997	0.125593
605.5279	0.130531
605.7561	0.138170
605.9843	0.136650
606.2125	0.135806
606.4407	0.127113
606.6689	0.123019
606.8972	0.123230
607.1254	0.125910
607.3537	0.130742
607.5819	0.128611
607.8102	0.128505
608.0385	0.124285
608.2668	0.119685
608.4951	0.116225
608.7235	0.116288
608.9518	0.114368
609.1801	0.111920
609.4085	0.107615
609.6369	0.103416
609.8653	0.111013
610.0936	0.118356
610.3220	0.122175
610.5505	0.118461
610.7789	0.114368
611.0073	0.110000
611.2357	0.111582
611.4642	0.110000
611.6927	0.110802
611.9211	0.109472
612.1496	0.108291
612.3781	0.102446
612.6066	0.102678
612.8351	0.105125
613.0637	0.104514
613.2922	0.101116
613.5208	0.098690
613.7493	0.102530
613.9779	0.103543
614.2065	0.103627
614.4351	0.100736
614.6637	0.099154
614.8923	0.100926
615.1209	0.099702
615.3495	0.105231
615.5782	0.105716
615.8068	0.106328
616.0355	0.102235
616.2642	0.096748
616.4929	0.090903
616.7216	0.087865
616.9503	0.087063
617.1790	0.087823
617.4077	0.088751
617.6365	0.088899
617.8652	0.086789
618.0940	0.089089
618.3227	0.085755
618.5515	0.079910
618.7803	0.077736
619.0091	0.072440
619.2379	0.072377
619.4667	0.069633
619.6956	0.070203
619.9244	0.073432
620.1533	0.075584
620.3821	0.078749
620.6110	0.079467
620.8399	0.072208
621.0688	0.064907
621.2977	0.058028
621.5266	0.058112
621.7556	0.062902
621.9845	0.064189
622.2135	0.067903
622.4424	0.064970
622.6714	0.070245
622.9004	0.067523
623.1294	0.071575
623.3584	0.073136
623.5874	0.074318
623.8164	0.068241
624.0454	0.067587
624.2745	0.071786
624.5035	0.072967
624.7326	0.075014
624.9617	0.073221
625.1908	0.069486
625.4199	0.067587
625.6490	0.066426
625.8781	0.065413
626.1072	0.063514
626.3364	0.060412
626.5655	0.058323
626.7947	0.055348
627.0238	0.056340
627.2530	0.056825
627.4822	0.056023
627.7114	0.057057
627.9406	0.055369
628.1698	0.050832
628.3991	0.048195
628.6283	0.047287
628.8576	0.046971
629.0868	0.048195
629.3161	0.048976
629.5454	0.050537
629.7747	0.051993
630.0040	0.049820
630.2333	0.048469
630.4626	0.048005
630.6920	0.046570
630.9213	0.044565
631.1507	0.042730
631.3801	0.041696
631.6094	0.042075
631.8388	0.044629
632.0682	0.042709
632.2976	0.043131
632.5271	0.041991
632.7565	0.037349
632.9859	0.036779
633.2154	0.037180
633.4448	0.037201
633.6743	0.035956
633.9038	0.034521
634.1333	0.035766
634.3628	0.035534
634.5923	0.032960
634.8218	0.032116
635.0514	0.032348
635.2809	0.032137
635.5105	0.032432
635.7400	0.033867
635.9696	0.034753
636.1992	0.035745
636.4288	0.037792
636.6584	0.037243
636.8880	0.037518
637.1177	0.036821
637.3473	0.034943
637.5770	0.033382
637.8066	0.034184
638.0363	0.033825
638.2660	0.032812
638.4957	0.036505
638.7254	0.035597
638.9551	0.034120
639.1848	0.033466
639.4145	0.033403
639.6443	0.028986
639.8740	0.030069
640.1038	0.028299
640.3336	0.030868
640.5633	0.028843
640.7931	0.029432
641.0229	0.029126
641.2528	0.028912
641.4826	0.027881
641.7124	0.026677
641.9423	0.024536
642.1721	0.025444
642.4020	0.024185
642.6319	0.026705
642.8617	0.024135
643.0916	0.023397
643.3216	0.024929
643.5515	0.023903
643.7814	0.022253
644.0113	0.024568
644.2413	0.023698
644.4712	0.024061
644.7012	0.021798
644.9312	0.022318
645.1612	0.021816
645.3912	0.022342
645.6212	0.018682
645.8512	0.025382
646.0812	0.020964
646.3113	0.021168
646.5413	0.021347
646.7714	0.021637
647.0015	0.020582
647.2316	0.018745
647.4616	0.018725
647.6918	0.020917
647.9219	0.022141
648.1520	0.024013
648.3821	0.025397
648.6123	0.026477
648.8424	0.028299
649.0726	0.028605
649.3028	0.026855
649.5329	0.027275
649.7631	0.025964
649.9933	0.027397
650.2236	0.023704
650.4538	0.024861
650.6840	0.023007
650.9143	0.022557
651.1445	0.023909
651.3748	0.024435
651.6051	0.023652
651.8354	0.023033
652.0657	0.025947
652.2960	0.026182
652.5263	0.024978
652.7566	0.027183
652.9870	0.027118
653.2173	0.027470
653.4477	0.026250
653.6780	0.026813
653.9084	0.027035
654.1388	0.027801
654.3692	0.027393
654.5996	0.030289
654.8300	0.032154
655.0605	0.049623
655.2909	0.127480
655.5213	0.390871
655.7518	0.791937
655.9823	1.000000
656.2128	1.000000
656.4433	1.000000
656.6738	1.000000
656.9043	0.888938
657.1348	0.706835
657.3653	0.579671
657.5959	0.493372
657.8264	0.429121
658.0570	0.383975
658.2875	0.354256
658.5181	0.324262
658.7487	0.303293
658.9793	0.283784
659.2099	0.237853
659.4406	0.165890
659.6712	0.103491
659.9018	0.060296
660.1325	0.036716
660.3632	0.027642
660.5938	0.023920
660.8245	0.019465
661.0552	0.018692
661.2859	0.017595
661.5166	0.018947
661.7474	0.017110
661.9781	0.018137
662.2088	0.017580
662.4396	0.017935
662.6704	0.019272
662.9011	0.018346
663.1319	0.015887
663.3627	0.016318
663.5935	0.016951
663.8243	0.017136
664.0552	0.016663
664.2860	0.019550
664.5168	0.018091
664.7477	0.019221
664.9786	0.017596
665.2094	0.019531
665.4403	0.020554
665.6712	0.021023
665.9021	0.019014
666.1330	0.018640
666.3640	0.017758
666.5949	0.017807
666.8259	0.016879
667.0568	0.018107
667.2878	0.015857
667.5188	0.018087
667.7497	0.015493
667.9807	0.016705
668.2117	0.018273
668.4428	0.016374
668.6738	0.016923
668.9048	0.016037
669.1359	0.017830
669.3669	0.016248
669.5980	0.017050
669.8291	0.018210
670.0602	0.015720
670.2913	0.018822
670.5224	0.017725
670.7535	0.018506
670.9846	0.017240
671.2157	0.018843
671.4469	0.022578
671.6781	0.025807
671.9092	0.025110
672.1404	0.026482
672.3716	0.027642
672.6028	0.028571
672.8340	0.028170
673.0652	0.025089
673.2964	0.026186
673.5277	0.025722
673.7589	0.023591
673.9902	0.026102
674.2214	0.022241
674.4527	0.023085
674.6840	0.022557
674.9153	0.020278
675.1466	0.022262
675.3779	0.023042
675.6093	0.021523
675.8406	0.020510
676.0719	0.021481
676.3033	0.019286
676.5347	0.019645
676.7661	0.020215
676.9974	0.018717
677.2288	0.018105
677.4602	0.021713
677.6917	0.022578
677.9231	0.023760
678.1545	0.023718
678.3860	0.024097
678.6174	0.022789
678.8489	0.024836
679.0804	0.025849
679.3119	0.026060
679.5434	0.028740
679.7749	0.028465
680.0064	0.030196
680.2379	0.028676
680.4694	0.029626
680.7010	0.027474
680.9325	0.027811
681.1641	0.027199
681.3957	0.029373
681.6273	0.028719
681.8589	0.026798
682.0905	0.025258
682.3221	0.027178
682.5537	0.027727
682.7854	0.026967
683.0170	0.023950
683.2487	0.024899
683.4803	0.024076
683.7120	0.026608
683.9437	0.024815
684.1754	0.028318
684.4071	0.028951
684.6388	0.033403
684.8705	0.032411
685.1023	0.034479
685.3340	0.033952
685.5658	0.038172
685.7975	0.038024
686.0293	0.037370
686.2611	0.035218
686.4929	0.034500
686.7247	0.036294
686.9565	0.035450
687.1883	0.035429
687.4202	0.037602
687.6520	0.037117
687.8838	0.033551
688.1157	0.033086
688.3476	0.034310
688.5795	0.033129
688.8114	0.032453
689.0433	0.029183
689.2752	0.031272
689.5071	0.030512
689.7390	0.028634
689.9710	0.029373
690.2029	0.027431
690.4349	0.026482
690.6669	0.027220
690.8988	0.028086
691.1308	0.030470
691.3628	0.030111
691.5948	0.032052
691.8269	0.029014
692.0589	0.028930
692.2909	0.031061
692.5230	0.031061
692.7550	0.029457
692.9871	0.028064
693.2192	0.031525
693.4513	0.032791
693.6834	0.032833
693.9155	0.029098
694.1476	0.026798
694.3797	0.030301
694.6119	0.026587
694.8440	0.028655
695.0762	0.028845
695.3083	0.028128
695.5405	0.026334
695.7727	0.025870
696.0049	0.023612
696.2371	0.023549
696.4693	0.024773
696.7016	0.030048
696.9338	0.034142
697.1660	0.033952
697.3983	0.032010
697.6306	0.031462
697.8628	0.031483
698.0951	0.033129
698.3274	0.031061
698.5597	0.029858
698.7920	0.030111
699.0243	0.030786
699.2567	0.027558
699.4890	0.031082
699.7214	0.028107
699.9537	0.026566
700.1861	0.025638
700.4185	0.025026
700.6509	0.026060
700.8833	0.024794
701.1157	0.024182
701.3481	0.023612
701.5806	0.022029
701.8130	0.022979
702.0454	0.024899
702.2779	0.023950
702.5104	0.026630
702.7429	0.025617
702.9753	0.023802
703.2078	0.024709
703.4403	0.024013
703.6729	0.022726
703.9054	0.024625
704.1379	0.023591
704.3705	0.023021
704.6030	0.022874
704.8356	0.022452
705.0682	0.019772
705.3008	0.018717
705.5334	0.018506
705.7660	0.019624
705.9986	0.021122
706.2312	0.024330
706.4638	0.023929
706.6965	0.027389
706.9291	0.026144
707.1618	0.030871
707.3945	0.030913
707.6272	0.033340
707.8599	0.030428
708.0926	0.031546
708.3253	0.032770
708.5580	0.030955
708.7907	0.030048
709.0235	0.028529
709.2562	0.028233
709.4890	0.027853
709.7217	0.028866
709.9545	0.026503
710.1873	0.028634
710.4201	0.028423
710.6529	0.029352
710.8857	0.026819
711.1186	0.025891
711.3514	0.026229
711.5842	0.026102
711.8171	0.025975
712.0500	0.024013
712.2828	0.022578
712.5157	0.023739
712.7486	0.026039
712.9815	0.023422
713.2144	0.025363
713.4474	0.026883
713.6803	0.026587
713.9132	0.028170
714.1462	0.027263
714.3791	0.028803
714.6121	0.029436
714.8451	0.028128
715.0781	0.030111
715.3111	0.027431
715.5441	0.028107
715.7771	0.026967
716.0102	0.026271
716.2432	0.024688
716.4762	0.022768
716.7093	0.023148
716.9424	0.024730
717.1754	0.022747
717.4085	0.020679
717.6416	0.022029
717.8747	0.023169
718.1078	0.024140
718.3410	0.024625
718.5741	0.025406
718.8072	0.022536
719.0404	0.024372
719.2736	0.026777
719.5067	0.026039
719.7399	0.022768
719.9731	0.023464
720.2063	0.022852
720.4395	0.022852
720.6727	0.025321
720.9060	0.025110
721.1392	0.024393
721.3725	0.024330
721.6057	0.023485
721.8390	0.023781
722.0723	0.025005
722.3055	0.023127
722.5388	0.022979
722.7721	0.021565
723.0055	0.023485
723.2388	0.021291
723.4721	0.023781
723.7055	0.022916
723.9388	0.022641
724.1722	0.023443
724.4056	0.020405
724.6389	0.021439
724.8723	0.023274
725.1057	0.024203
725.3391	0.027663
725.5726	0.027136
725.8060	0.028740
726.0394	0.028655
726.2729	0.028064
726.5063	0.027030
726.7398	0.027474
726.9733	0.027600
727.2068	0.026925
727.4403	0.025511
727.6738	0.026292
727.9073	0.027431
728.1408	0.026608
728.3743	0.026988
728.6079	0.027431
728.8414	0.028761
729.0750	0.026651
729.3086	0.028824
729.5421	0.029035
729.7757	0.031145
730.0093	0.030997
730.2429	0.029330
730.4766	0.031462
730.7102	0.031019
730.9438	0.034099
731.1775	0.035745
731.4111	0.034226
731.6448	0.034711
731.8785	0.036990
732.1122	0.033930
732.3458	0.033403
732.5795	0.033213
732.8133	0.035197
733.0470	0.035808
733.2807	0.037222
733.5145	0.034859
733.7482	0.037855
733.9820	0.039860
734.2157	0.041949
734.4495	0.044059
734.6833	0.042054
734.9171	0.040029
735.1509	0.039375
735.3847	0.038425
735.6185	0.039986
735.8524	0.039079
736.0862	0.040050
736.3201	0.040620
736.5539	0.037201
736.7878	0.040366
737.0217	0.039564
737.2556	0.043236
737.4895	0.038446
737.7234	0.036716
737.9573	0.033551
738.1912	0.033466
738.4252	0.033002
738.6591	0.031652
738.8931	0.034627
739.1271	0.035956
739.3610	0.038425
739.5950	0.036484
739.8290	0.037180
740.0630	0.036019
740.2970	0.032833
740.5310	0.032960
740.7651	0.034015
740.9991	0.031230
741.2332	0.029942
741.4672	0.029183
741.7013	0.027157
741.9354	0.027157
742.1695	0.027832
742.4036	0.027326
742.6377	0.027896
742.8718	0.027094
743.1059	0.027389
743.3400	0.025933
743.5742	0.025532
743.8083	0.023359
744.0425	0.024414
744.2767	0.025807
744.5108	0.023929
744.7450	0.024119
744.9792	0.025005
745.2134	0.025638
745.4477	0.022473
745.6819	0.020595
745.9161	0.023380
746.1504	0.025300
746.3846	0.023063
746.6189	0.021396
746.8532	0.024013
747.0874	0.023085
747.3217	0.025363
747.5560	0.025638
747.7903	0.025701
748.0247	0.026081
748.2590	0.023401
748.4933	0.022979
748.7277	0.023992
748.9620	0.023232
749.1964	0.025954
749.4308	0.026503
749.6652	0.027052
749.8995	0.028740
750.1339	0.030765
750.3684	0.032601
750.6028	0.033994
750.8372	0.032538
751.0717	0.031673
751.3061	0.031926
751.5406	0.032728
751.7750	0.033952
752.0095	0.032875
752.2440	0.030997
752.4785	0.031736
752.7130	0.031208
752.9475	0.030069
753.1820	0.028655
753.4166	0.031082
753.6511	0.032897
753.8856	0.035471
754.1202	0.035661
754.3548	0.033276
754.5894	0.032074
754.8239	0.032707
755.0585	0.030449
755.2931	0.033487
755.5278	0.035534
755.7624	0.032686
755.9970	0.037602
756.2317	0.035619
756.4663	0.040282
756.7010	0.043046
756.9356	0.039839
757.1703	0.045431
757.4050	0.046823
757.6397	0.047520
757.8744	0.048933
758.1091	0.046950
758.3438	0.047815
758.5786	0.046190
758.8133	0.044207
759.0481	0.042709
759.2828	0.047309
759.5176	0.047583
759.7524	0.052162
759.9872	0.051423
760.2220	0.050706
760.4568	0.053090
760.6916	0.054356
760.9264	0.052141
761.1613	0.053280
761.3961	0.049925
761.6310	0.046908
761.8658	0.044481
762.1007	0.041991
762.3356	0.040999
762.5705	0.038193
762.8054	0.040472
763.0403	0.040366
763.2752	0.040662
763.5101	0.041738
763.7450	0.041147
763.9800	0.041063
764.2149	0.042287
764.4499	0.044987
764.6849	0.047541
764.9198	0.049714
765.1548	0.046908
765.3898	0.047456
765.6248	0.044629
765.8599	0.043574
766.0949	0.041801
766.3299	0.039016
766.5650	0.035154
766.8000	0.031504
767.0351	0.032728
767.2701	0.030744
767.5052	0.031398
767.7403	0.032369
767.9754	0.033361
768.2105	0.035576
768.4456	0.036821
768.6808	0.039248
768.9159	0.039923
769.1510	0.037328
769.3862	0.037201
769.6214	0.036695
769.8565	0.037264
770.0917	0.035830
770.3269	0.034732
770.5621	0.038193
770.7973	0.035914
771.0325	0.041274
771.2677	0.042075
771.5030	0.038277
771.7382	0.036547
771.9735	0.034500
772.2087	0.035513
772.4440	0.032601
772.6793	0.033508
772.9146	0.031926
773.1499	0.032918
773.3852	0.030723
773.6205	0.031377
773.8558	0.031187
774.0911	0.030048
774.3265	0.030301
774.5618	0.027220
774.7972	0.028128
775.0326	0.024646
775.2679	0.023992
775.5033	0.023950
775.7387	0.023422
775.9741	0.021818
776.2095	0.023042
776.4450	0.019582
776.6804	0.020806
776.9158	0.020595
777.1513	0.022072
777.3868	0.019160
777.6222	0.022874
777.8577	0.021333
778.0932	0.021418
778.3287	0.019371
778.5642	0.022494
778.7997	0.023021
779.0352	0.025406
779.2707	0.025131
779.5063	0.025216
779.7418	0.024203
779.9774	0.024097
780.2130	0.024351
780.4485	0.023401
780.6841	0.024182
780.9197	0.024941
781.1553	0.025532
781.3909	0.029119
781.6265	0.028254
781.8622	0.029352
782.0978	0.027220
782.3335	0.029141
782.5691	0.027663
782.8048	0.030386
783.0405	0.027748
783.2761	0.026946
783.5118	0.027389
783.7475	0.029963
783.9832	0.029183
784.2190	0.027896
784.4547	0.026608
784.6904	0.023929
784.9262	0.022578
785.1619	0.023612
785.3977	0.024351
785.6335	0.023148
785.8692	0.023380
786.1050	0.023929
786.3408	0.022979
786.5766	0.024730
786.8124	0.022768
787.0483	0.023000
787.2841	0.024097
787.5199	0.024013
787.7558	0.024730
787.9917	0.024730
788.2275	0.025110
788.4634	0.026060
788.6993	0.025047
788.9352	0.026714
789.1711	0.026756
789.4070	0.025237
789.6429	0.021797
789.8789	0.022810
790.1148	0.021122
790.3507	0.020763
790.5867	0.021924
790.8227	0.022008
791.0586	0.018949
791.2946	0.020953
791.5306	0.019793
791.7666	0.019793
792.0026	0.018379
792.2387	0.019814
792.4747	0.019856
792.7107	0.017282
792.9468	0.017387
793.1828	0.018147
793.4189	0.017894
793.6550	0.018970
793.8910	0.021502
794.1271	0.025237
794.3632	0.026735
794.5993	0.025448
794.8355	0.026419
795.0716	0.027199
795.3077	0.027980
795.5439	0.026313
795.7800	0.023760
796.0162	0.023929
796.2523	0.021797
796.4885	0.020004
796.7247	0.015340
796.9609	0.016016
797.1971	0.018105
797.4333	0.018295
797.6695	0.018653
797.9058	0.019223
798.1420	0.018696
798.3783	0.019708
798.6145	0.018463
798.8508	0.018358
799.0871	0.018843
799.3233	0.019033
799.5596	0.018020
799.7959	0.015847
800.0322	0.017873
800.2686	0.015995
800.5049	0.015784
800.7412	0.017767
800.9776	0.015720
801.2139	0.015298
801.4503	0.016543
801.6867	0.016142
801.9230	0.015446
802.1594	0.013631
802.3958	0.014771
802.6322	0.014264
802.8686	0.011753
803.1051	0.013462
803.3415	0.015108
803.5779	0.015404
803.8144	0.014897
804.0508	0.013083
804.2873	0.012576
804.5238	0.014454
804.7603	0.014117
804.9968	0.014581
805.2333	0.013062
805.4698	0.013927
805.7063	0.014771
805.9428	0.016163
806.1794	0.017071
806.4159	0.020974
806.6525	0.021396
806.8890	0.019645
807.1256	0.018295
807.3622	0.019877
807.5988	0.019139
807.8354	0.018463
808.0720	0.019708
808.3086	0.020510
808.5452	0.018126
808.7818	0.019856
809.0185	0.019054
809.2551	0.019729
809.4918	0.017683
809.7284	0.017767
809.9651	0.014560
810.2018	0.016839
810.4385	0.016142
810.6752	0.015699
810.9119	0.016037
811.1486	0.015636
811.3853	0.015319
811.6221	0.013969
811.8588	0.013969
812.0956	0.014454
812.3323	0.013673
812.5691	0.012028
812.8059	0.009390
813.0427	0.011352
813.2795	0.011162
813.5163	0.013251
813.7531	0.014750
813.9899	0.016986
814.2267	0.016185
814.4636	0.015446
814.7004	0.014665
814.9373	0.014222
815.1742	0.012851
815.4110	0.012576
815.6479	0.012534
815.8848	0.011732
816.1217	0.011268
816.3586	0.010825
816.5955	0.012787
816.8324	0.011057
817.0694	0.011373
817.3063	0.010508
817.5433	0.011838
817.7802	0.010825
818.0172	0.012703
818.2542	0.010888
818.4912	0.009791
818.7282	0.011141
818.9652	0.011331
819.2022	0.010635
819.4392	0.010002
819.6762	0.010340
819.9133	0.009960
820.1503	0.009749
820.3874	0.011859
820.6244	0.013104
820.8615	0.012618
821.0986	0.011838
821.3357	0.013294
821.5727	0.010635
821.8099	0.013336
822.0470	0.011352
822.2841	0.010572
822.5212	0.010994
822.7584	0.009833
822.9955	0.011395
823.2327	0.010002
823.4698	0.010762
823.7070	0.008546
823.9442	0.008483
824.1814	0.009495
824.4186	0.010403
824.6558	0.008040
824.8930	0.008609
825.1302	0.010192
825.3675	0.009896
825.6047	0.009812
825.8419	0.012281
826.0792	0.011036
826.3165	0.010698
826.5537	0.009728
826.7910	0.010192
827.0283	0.011120
827.2656	0.010593
827.5029	0.011099
827.7402	0.011521
827.9776	0.010593
828.2149	0.010340
828.4522	0.009179
828.6896	0.009538
828.9270	0.009664
829.1643	0.009791
829.4017	0.010445
829.6391	0.008947
829.8765	0.009116
830.1139	0.009896
830.3513	0.008630
830.5887	0.008546
830.8261	0.008040
831.0636	0.007470
831.3010	0.007006
831.5385	0.006267
831.7759	0.007027
832.0134	0.005761
832.2509	0.005972
832.4884	0.007111
832.7259	0.006541
832.9634	0.007174
833.2009	0.007871
833.4384	0.006499
833.6759	0.008715
833.9135	0.007301
834.1510	0.009158
834.3886	0.009580
834.6261	0.008799
834.8637	0.009284
835.1013	0.008926
835.3389	0.006816
835.5765	0.007280
835.8141	0.008356
836.0517	0.007786
836.2893	0.007406
836.5269	0.007744
836.7646	0.006752
837.0022	0.007744
837.2399	0.005275
837.4775	0.005972
837.7152	0.006288
837.9529	0.005296
838.1906	0.006647
838.4283	0.005085
838.6660	0.004558
838.9037	0.004558
839.1414	0.005550
839.3791	0.005592
839.6169	0.005486
839.8546	0.006499
840.0924	0.005908
840.3302	0.007871
840.5679	0.005739
840.8057	0.006689
841.0435	0.004811
841.2813	0.007027
841.5191	0.004389
841.7569	0.005824
841.9947	0.003608
842.2326	0.003397
842.4704	0.004368
842.7082	0.004748
842.9461	0.004410
843.1840	0.004199
843.4218	0.003946
843.6597	0.004368
843.8976	0.003819
844.1355	0.004241
844.3734	0.004727
844.6113	0.006394
844.8492	0.005128
845.0872	0.004642
845.3251	0.004832
845.5631	0.005339
845.8010	0.004431
846.0390	0.003334
846.2770	0.004832
846.5149	0.004642
846.7529	0.004495
846.9909	0.003608
847.2289	0.003672
847.4669	0.004136
847.7050	0.002089
847.9430	0.006710
848.1810	0.002553
848.4191	0.004030
848.6571	0.003904
848.8952	0.005191
849.1333	0.003925
849.3713	0.003672
849.6094	0.005972
849.8475	0.003482
850.0856	0.002701
850.3237	0.003207
850.5619	0.003313
850.8000	0.003334
851.0381	0.002321
851.2763	0.003482
851.5144	0.004199
851.7526	0.004684
851.9908	0.004199
852.2289	0.003967
852.4671	0.005550
852.7053	0.008314
852.9435	0.007681
853.1817	0.009432
853.4200	0.008715
853.6582	0.012112
853.8964	0.009580
854.1347	0.010361
854.3729	0.010297
854.6112	0.011711
854.8495	0.011627
855.0877	0.011690
855.3260	0.011120
855.5643	0.010129
855.8026	0.009601
856.0409	0.012344
856.2792	0.009643
856.5176	0.010973
856.7559	0.011015
856.9942	0.009369
857.2326	0.008820
857.4710	0.007786
857.7093	0.009432
857.9477	0.009116
858.1861	0.006541
858.4245	0.008145
858.6629	0.007934
858.9013	0.009158
859.1397	0.007006
859.3781	0.007449
859.6166	0.008061
859.8550	0.006795
860.0935	0.005655
860.3319	0.005296
860.5704	0.005001
860.8089	0.005212
861.0473	0.005761
861.2858	0.004305
861.5243	0.003735
861.7628	0.005233
862.0013	0.003988
862.2399	0.006816
862.4784	0.006373
862.7169	0.003967
862.9555	0.003461
863.1940	0.006457
863.4326	0.005782
863.6712	0.006900
863.9098	0.004009
864.1483	0.006267
864.3869	0.004199
864.6255	0.004368
864.8642	0.003461
865.1028	0.004832
865.3414	0.003313
865.5800	0.004748
865.8187	0.003397
866.0573	0.005191
866.2960	0.004410
866.5347	0.004262
866.7733	0.003376
867.0120	0.004347
867.2507	0.003650
867.4894	0.005528
867.7281	0.004030
867.9669	0.003777
868.2056	0.003756
868.4443	0.005845
868.6831	0.004051
868.9218	0.003650
869.1606	0.005381
869.3993	0.003313
869.6381	0.004094
869.8769	0.004642
870.1157	0.004895
870.3545	0.003271
870.5933	0.002300
870.8321	0.004009
871.0709	0.004600
871.3097	0.004558
871.5486	0.004938
871.7874	0.003714
872.0263	0.004284
872.2651	0.004157
872.5040	0.003524
872.7429	0.005528
872.9818	0.004326
873.2207	0.003271
873.4596	0.004262
873.6985	0.005465
873.9374	0.003925
874.1763	0.005212
874.4153	0.004473
874.6542	0.003904
874.8932	0.005718
875.1321	0.005022
875.3711	0.004642
875.6101	0.005149
875.8491	0.003355
876.0880	0.002933
876.3270	0.005233
876.5661	0.004241
876.8051	0.005381
877.0441	0.003693
877.2831	0.006183
877.5222	0.004073
877.7612	0.005486
878.0003	0.004431
878.2393	0.006900
878.4784	0.005149
878.7175	0.006879
878.9566	0.004938
879.1957	0.006436
879.4348	0.006499
879.6739	0.007006
879.9130	0.006499
880.1521	0.008145
880.3913	0.004874
880.6304	0.008124
880.8696	0.006731
881.1087	0.005465
881.3479	0.005887
881.5871	0.006731
881.8262	0.006773
882.0654	0.004853
882.3046	0.005486
882.5438	0.005275
882.7831	0.005465
883.0223	0.005381
883.2615	0.004727
883.5007	0.005212
883.7400	0.005655
883.9792	0.005191
884.2185	0.005486
884.4578	0.005106
884.6971	0.005655
884.9363	0.004347
885.1756	0.005613
885.4149	0.004959
885.6542	0.005022
885.8936	0.005528
886.1329	0.006394
886.3722	0.005296
886.6116	0.006119
886.8509	0.004769
887.0903	0.005296
887.3296	0.004642
887.5690	0.003735
887.8084	0.005275
888.0478	0.006119
888.2872	0.004199
888.5266	0.003439
888.7660	0.003418
889.0054	0.003735
889.2448	0.004790
889.4843	0.003608
889.7237	0.005233
889.9632	0.003503
890.2026	0.003672
890.4421	0.002954
890.6816	0.002638
890.9211	0.002068
891.1606	0.004347
891.4001	0.003102
891.6396	0.003376
891.8791	0.005402
892.1186	0.004009
892.3581	0.004600
892.5977	0.004136
892.8372	0.003545
893.0768	0.003883
893.3163	0.003207
893.5559	0.003967
893.7955	0.003904
894.0351	0.003524
894.2747	0.002785
894.5143	0.004389
894.7539	0.004410
894.9935	0.003313
895.2331	0.003503
895.4727	0.003418
895.7124	0.002469
895.9520	0.004748
896.1917	0.003756
896.4314	0.004051
896.6710	0.004199
896.9107	0.005149
897.1504	0.003418
897.3901	0.004157
897.6298	0.002701
897.8695	0.004600
898.1092	0.006225
898.3489	0.003693
898.5887	0.003545
898.8284	0.003861
899.0682	0.003883
899.3079	0.003186
899.5477	0.002828
899.7875	0.003693
900.0272	0.003376
900.2670	0.002195
900.5068	0.003292
900.7466	0.003165
900.9864	0.004178
901.2263	0.003608
901.4661	0.002574
901.7059	0.003735
901.9458	0.002996
902.1856	0.004220
902.4255	0.002342
902.6654	0.003503
902.9052	0.002680
903.1451	0.002532
903.3850	0.002490
903.6249	0.003250
903.8648	0.002933
904.1047	0.004347
904.3446	0.002849
904.5846	0.004051
904.8245	0.002806
905.0644	0.005043
905.3044	0.004157
905.5444	0.004199
905.7843	0.003207
906.0243	0.003566
906.2643	0.003461
906.5043	0.003418
906.7443	0.003418
906.9843	0.003819
907.2243	0.003988
907.4643	0.002068
907.7043	0.004284
907.9444	0.003566
908.1844	0.002511
908.4245	0.002933
908.6645	0.002595
908.9046	0.003313
909.1447	0.002996
909.3847	0.002448
909.6248	0.002152
909.8649	0.004030
910.1050	0.002469
910.3452	0.002216
910.5853	0.002617
910.8254	0.002173
911.0655	0.003102
911.3057	0.003228
911.5458	0.004115
911.7860	0.002891
912.0262	0.002511
912.2663	0.002617
912.5065	0.002553
912.7467	0.003545
912.9869	0.003397
913.2271	0.003482
913.4673	0.002933
913.7075	0.001498
913.9478	0.001983
914.1880	0.003376
914.4283	0.002005
914.6685	0.001414
914.9088	0.001414
915.1490	0.001920
915.3893	0.001730
915.6296	0.001013
915.8699	0.001604
916.1102	0.002152
916.3505	0.003334
916.5908	0.002912
916.8311	0.003418
917.0714	0.003524
917.3118	0.003250
917.5521	0.002891
917.7925	0.003967
918.0328	0.002806
918.2732	0.002342
918.5136	0.002237
918.7539	0.003060
918.9943	0.002427
919.2347	0.001878
919.4751	0.003904
919.7155	0.001772
919.9560	0.002574
920.1964	0.002173
920.4368	0.003608
920.6773	0.003545
920.9177	0.003017
921.1582	0.002321
921.3986	0.003777
921.6391	0.003461
921.8796	0.004115
922.1201	0.004284
922.3606	0.002659
922.6011	0.001878
922.8416	0.002975
923.0821	0.002173
923.3226	0.002427
923.5631	0.001794
923.8037	0.002469
924.0442	0.002595
924.2848	0.003777
924.5254	0.001667
924.7659	0.001899
925.0065	0.002638
925.2471	0.002195
925.4877	0.002047
925.7283	0.001941
925.9689	0.001983
926.2095	0.002975
926.4501	0.001983
926.6908	0.002870
926.9314	0.000633
927.1720	0.000781
927.4127	0.001730
927.6533	0.002806
927.8940	0.002173
928.1347	0.000802
928.3754	0.001899
928.6161	0.002680
928.8568	0.001034
929.0975	0.001899
929.3382	0.001625
929.5789	0.001456
929.8196	0.001604
930.0604	0.002427
930.3011	-0.000042
930.5419	0.000844
930.7826	0.001646
931.0234	0.001540
931.2642	0.002532
931.5049	0.002321
931.7457	0.002068
931.9865	0.002701
932.2273	0.001688
932.4681	0.001498
932.7089	0.000760
932.9498	0.001983
933.1906	0.000084
933.4314	0.001583
933.6723	0.002131
933.9131	0.001393
934.1540	0.002448
934.3949	0.002806
934.6358	0.001941
934.8766	0.001962
935.1175	0.002933
935.3584	0.002427
935.5993	-0.000063
935.8403	0.001561
936.0812	0.002026
936.3221	0.001751
936.5630	0.001182
936.8040	0.002806
937.0449	0.001139
937.2859	0.003608
937.5269	0.001920
937.7678	0.000971
938.0088	0.001139
938.2498	0.000654
938.4908	0.002511
938.7318	0.000380
938.9728	0.000992
939.2138	0.001118
939.4549	0.002026
939.6959	0.000654
939.9369	0.001308
940.1780	-0.000042
940.4190	-0.000211
940.6601	0.000992
940.9012	0.000042
941.1422	-0.000042
941.3833	-0.001393
941.6244	0.000506
941.8655	0.001161
942.1066	0.001055
942.3477	0.001414
942.5889	0.000443
942.8300	-0.000127
943.0711	0.001625
943.3123	0.000253
943.5534	0.002152
943.7946	0.000338
944.0357	0.000992
944.2769	0.001983
944.5181	0.000127
944.7593	0.001561
945.0005	0.000021
945.2417	0.001182
945.4829	-0.000422
945.7241	0.001287
945.9653	0.000443
946.2066	0.001751
946.4478	0.001224
946.6891	0.001266
946.9303	0.000084
947.1716	0.000464
947.4128	0.000802
947.6541	0.001013
947.8954	-0.000675
948.1367	0.001034
948.3780	0.000696
948.6193	0.000971
948.8606	0.001329
949.1019	0.000865
949.3433	0.000127
949.5846	0.000739
949.8259	0.000781
950.0673	0.000675
950.3086	0.001076
950.5500	0.001224
950.7914	0.000485
951.0327	0.001055
951.2741	0.001393
951.5155	0.001139
951.7569	0.000190
951.9983	0.000232
952.2398	0.001688
952.4812	0.001393
952.7226	0.000739
952.9640	0.001435
953.2055	0.001941
953.4469	0.002785
953.6884	0.000907
953.9299	0.000950
954.1713	-0.000443
954.4128	0.000317
954.6543	0.000295
954.8958	0.001203
955.1373	0.001899
955.3788	0.000992
955.6203	0.000760
955.8618	0.001920
956.1034	0.001540
956.3449	0.000844
956.5865	0.001245
956.8280	0.001372
957.0696	0.001055
957.3111	0.000992
957.5527	-0.000485
957.7943	0.001836
958.0359	0.001076
958.2775	-0.000528
958.5191	0.001435
958.7607	-0.000084
959.0023	0.000844
959.2439	0.001983
959.4856	0.000528
959.7272	0.001477
959.9688	0.001139
960.2105	0.001435
960.4522	-0.001139
960.6938	0.001646
960.9355	-0.000886
961.1772	0.001772
961.4189	0.000907
961.6606	0.000675
961.9023	-0.000148
962.1440	-0.000422
962.3857	-0.000211
962.6274	-0.000211
962.8692	-0.000106
963.1109	0.000084
963.3527	0.000696
963.5944	0.001097
963.8362	0.000443
964.0779	0.000127
964.3197	0.001815
964.5615	0.000696
964.8033	0.000169
965.0451	-0.000401
965.2869	0.000823
965.5287	0.000971
965.7705	0.000717
966.0123	0.000380
966.2542	0.000443
966.4960	0.000317
966.7379	0.000317
966.9797	0.000232
967.2216	0.001456
967.4634	0.000443
967.7053	-0.000127
967.9472	0.002068
968.1891	0.001477
968.4310	0.000190
968.6729	0.000781
968.9148	0.000781
969.1567	-0.000127
969.3987	0.001920
969.6406	-0.001034
969.8825	0.000317
970.1245	0.000844
970.3664	0.000992
970.6084	-0.000696
970.8504	0.000042
971.0923	-0.000169
971.3343	-0.000485
971.5763	0.000295
971.8183	0.001076
972.0603	0.000274
972.3023	0.000359
972.5443	0.000169
972.7864	0.000169
973.0284	-0.000338
973.2704	0.000760
973.5125	0.000042
973.7545	0.000232
973.9966	-0.000802
974.2387	0.000886
974.4807	0.001899
974.7228	0.001139
974.9649	-0.000865
975.2070	0.000317
975.4491	-0.001139
975.6912	0.000654
975.9333	0.001836
976.1755	0.001097
976.4176	0.000127
976.6597	0.001435
976.9019	0.002743
977.1440	0.000506
977.3862	-0.000127
977.6283	0.001836
977.8705	-0.000169
978.1127	0.000950
978.3549	0.001182
978.5971	-0.000760
978.8393	0.001118
979.0815	0.000739
979.3237	0.001139
979.5659	0.000106
979.8082	0.000232
980.0504	0.001329
980.2926	-0.000802
980.5349	0.000338
980.7771	-0.001161
981.0194	-0.000485
981.2617	-0.000570
981.5040	0.000633
981.7462	0.000612
981.9885	-0.000675
982.2308	0.000696
982.4731	0.000886
982.7155	0.000612
982.9578	-0.001625
983.2001	0.000865
983.4424	-0.000084
983.6848	-0.000865
983.9271	0.000042
984.1695	0.000190
984.4118	0.000084
984.6542	-0.000591
984.8966	0.002342
985.1390	0.000549
985.3814	-0.000549
985.6238	-0.001055
985.8662	0.000380
986.1086	0.000169
986.3510	0.000696
986.5934	-0.000696
986.8358	-0.000654
987.0783	-0.001393
987.3207	0.000739
987.5632	-0.001709
987.8056	-0.000148
988.0481	0.001245
988.2906	0.000211
988.5331	-0.001540
988.7756	0.000844
989.0180	0.000042
989.2605	0.000928
989.5031	0.000570
989.7456	-0.000865
989.9881	-0.000042
990.2306	0.000506
990.4732	-0.000992
990.7157	0.000338
990.9582	-0.000717
991.2008	0.000380
991.4434	0.001435
991.6859	0.001794
991.9285	-0.000950
992.1711	-0.000295
992.4137	0.000359
992.6563	0.000401
992.8989	-0.000127
993.1415	0.000802
993.3841	0.000274
993.6267	0.000274
993.8694	0.000464
994.1120	-0.000021
994.3547	0.001118
994.5973	0.000549
994.8400	-0.000211
995.0826	0.000485
995.3253	-0.000317
995.5680	0.000401
995.8107	0.000802
996.0534	-0.000063
996.2961	0.000675
996.5388	0.000549
996.7815	-0.000169
997.0242	0.000274
997.2670	-0.001308
997.5097	-0.000802
997.7524	0.000084
997.9952	0.000570
998.2379	0.000464
998.4807	0.000802
998.7235	0.001013
998.9662	-0.000401
999.2090	-0.000886
999.4518	0.000823
999.6946	-0.000401
999.9374	-0.000612
1000.1802	-0.000295
1000.4230	-0.000443
1000.6659	0.000127
1000.9087	-0.000401
1001.1515	-0.000506
1001.3944	0.000000
1001.6372	0.000781
1001.8801	-0.000253
1002.1230	-0.000106
1002.3658	-0.000063
1002.6087	-0.000591
1002.8516	0.000464
1003.0945	0.000696
1003.3374	-0.000380
1003.5803	0.001055
1003.8232	-0.000274
1004.0661	-0.000042
1004.3091	0.000021
1004.5520	-0.000063
1004.7949	0.001372
1005.0379	0.000528
1005.2808	0.000232
1005.5238	0.000928
1005.7667	-0.000633
1006.0097	-0.000295
1006.2527	-0.000232
1006.4957	0.000106
1006.7387	0.000084
1006.9817	0.000950
1007.2247	-0.000802
1007.4677	0.000274
1007.7107	-0.000992
1007.9538	0.000084
1008.1968	0.000042
1008.4398	0.000992
1008.6829	-0.000844
1008.9259	0.000021
1009.1690	0.000084
1009.4121	-0.000106
1009.6551	-0.000675
1009.8982	0.000464
1010.1413	-0.000295
1010.3844	0.001182
1010.6275	0.000401
1010.8706	0.001646
1011.1137	-0.000253
1011.3568	-0.000190
1011.6000	-0.000338
1011.8431	0.001245
1012.0863	0.000106
1012.3294	0.000359
1012.5726	0.000148
1012.8157	-0.000380
1013.0589	0.001076
1013.3021	0.000401
1013.5452	-0.000950
1013.7884	0.000084
1014.0316	0.000654
1014.2748	0.000148
1014.5180	-0.000612
1014.7613	0.001751
1015.0045	0.001013
1015.2477	-0.000042
1015.4909	-0.000781
1015.7342	0.000992
1015.9774	0.000232
1016.2207	-0.000401
1016.4640	-0.000295
1016.7072	-0.000781
1016.9505	-0.000106
1017.1938	-0.000211
1017.4371	-0.000253
1017.6804	0.001308
1017.9237	0.001182
1018.1670	0.000823
1018.4103	0.000211
1018.6536	0.001477
1018.8969	-0.000211
1019.1403	-0.000274
1019.3836	0.000042
1019.6270	0.000865
1019.8703	0.000148
1020.1137	0.000422
1020.3571	-0.000338
1020.6004	-0.000063
1020.8438	-0.000739
1021.0872	-0.000232
1021.3306	0.001182
1021.5740	0.000211
1021.8174	-0.000211
1022.0608	0.000971
1022.3042	-0.001266
1022.5477	-0.001013
1022.7911	-0.000781
1023.0345	-0.000739
