# Wavelength (nm)	Intensity (a.u.)
197.7802	0.000768
197.9842	0.001527
198.1882	0.001380
198.3922	0.000473
198.5963	-0.000076
198.8003	-0.000877
199.0044	0.000304
199.2085	0.001211
199.4126	0.001738
199.6168	0.000536
199.8209	-0.000603
200.0251	0.000557
200.2292	0.000178
200.4334	0.000241
200.6376	0.000536
200.8418	0.000705
201.0461	-0.000244
201.2503	-0.000202
201.4546	0.002012
201.6589	-0.001109
201.8631	0.000937
202.0674	0.001021
202.2718	0.001274
202.4761	0.001928
202.6805	0.000895
202.8848	0.000114
203.0892	0.000220
203.2936	0.001316
203.4980	0.000895
203.7024	-0.000518
203.9069	0.000304
204.1113	-0.000350
204.3158	0.000663
204.5203	0.000620
204.7248	0.000325
204.9293	0.001780
205.1338	0.001105
205.3384	-0.000518
205.5430	0.000135
205.7475	0.000557
205.9521	0.000367
206.1567	0.000873
206.3614	-0.000160
206.5660	0.000220
206.7706	0.000304
206.9753	-0.000666
207.1800	0.001232
207.3847	0.000663
207.5894	0.000494
207.7941	-0.000244
207.9989	0.000557
208.2036	0.000599
208.4084	-0.000139
208.6132	0.000283
208.8180	0.001654
209.0228	0.000325
209.2276	0.001000
209.4325	-0.000118
209.6373	0.000262
209.8422	0.000199
210.0471	0.000768
210.2520	-0.000371
210.4569	0.000536
210.6618	-0.000076
210.8668	0.000388
211.0718	0.000220
211.2767	0.000873
211.4817	0.000641
211.6867	0.000410
211.8918	0.001000
212.0968	0.000367
212.3018	0.000009
212.5069	0.001232
212.7120	0.000810
212.9171	0.000388
213.1222	0.001063
213.3273	0.000262
213.5325	0.000515
213.7376	-0.000118
213.9428	0.000789
214.1480	0.001295
214.3532	0.000684
214.5584	0.000747
214.7636	0.000051
214.9689	-0.000350
215.1741	-0.000329
215.3794	0.000873
215.5847	0.000641
215.7900	0.002413
215.9953	0.000768
216.2007	-0.000202
216.4060	0.000852
216.6114	0.000852
216.8168	0.000262
217.0222	0.000051
217.2276	0.000494
217.4330	0.001443
217.6384	-0.000350
217.8439	0.001380
218.0494	-0.000687
218.2548	0.000937
218.4603	-0.000202
218.6659	0.000958
218.8714	0.001401
219.0769	0.001000
219.2825	-0.000181
219.4881	0.000726
219.6936	0.000873
219.8992	0.000473
220.1049	-0.000244
220.3105	0.000620
220.5161	-0.000561
220.7218	0.000325
220.9275	0.000367
221.1332	0.000599
221.3389	0.000663
221.5446	0.000473
221.7503	-0.000054
221.9561	0.002371
222.1618	0.000410
222.3676	0.000831
222.5734	0.000684
222.7792	0.000895
222.9850	0.001865
223.1909	0.000578
223.3967	0.001169
223.6026	0.001127
223.8085	-0.000076
224.0144	-0.000118
224.2203	-0.000940
224.4262	0.000178
224.6322	0.000641
224.8381	-0.000139
225.0441	0.000599
225.2501	0.002244
225.4561	0.000473
225.6621	0.000979
225.8681	-0.000750
226.0742	0.000410
226.2802	-0.000308
226.4863	-0.002185
226.6924	-0.000350
226.8985	-0.000561
227.1046	0.001105
227.3107	0.000895
227.5169	-0.000097
227.7230	0.000283
227.9292	-0.000371
228.1354	0.000726
228.3416	0.001021
228.5478	0.001190
228.7541	0.000156
228.9603	0.000747
229.1666	0.000178
229.3729	0.000515
229.5791	0.000114
229.7855	0.001063
229.9918	0.000831
230.1981	-0.000497
230.4045	-0.000139
230.6108	-0.000097
230.8172	0.000536
231.0236	0.001042
231.2300	0.000093
231.4364	0.000726
231.6429	-0.000350
231.8493	0.000431
232.0558	0.000494
232.2623	0.000241
232.4688	0.000283
232.6753	0.000663
232.8818	0.001612
233.0884	0.000051
233.2949	0.000410
233.5015	0.001042
233.7081	-0.000666
233.9147	-0.000645
234.1213	0.001105
234.3279	0.000873
234.5346	0.000494
234.7413	0.000895
234.9479	-0.000181
235.1546	0.000937
235.3613	-0.000012
235.5680	0.000789
235.7748	0.000156
235.9815	0.001464
236.1883	0.001063
236.3951	-0.000076
236.6018	-0.000729
236.8087	0.002519
237.0155	0.000304
237.2223	0.001569
237.4292	-0.000118
237.6360	0.001696
237.8429	0.000262
238.0498	0.000684
238.2567	0.000747
238.4636	0.000452
238.6706	-0.000097
238.8775	0.000852
239.0845	0.000873
239.2915	-0.000308
239.4985	0.000388
239.7055	0.000557
239.9125	0.000515
240.1195	0.000473
240.3266	0.001485
240.5337	-0.000076
240.7407	0.000178
240.9478	0.000958
241.1549	-0.000097
241.3621	0.001422
241.5692	0.001464
241.7764	0.001232
241.9835	0.000093
242.1907	0.000388
242.3979	0.000789
242.6051	0.000726
242.8124	0.000241
243.0196	0.002476
243.2269	-0.000413
243.4341	0.002097
243.6414	0.001169
243.8487	0.001738
244.0560	0.000494
244.2634	0.001190
244.4707	0.000283
244.6781	0.000051
244.8854	0.000810
245.0928	0.000220
245.3002	-0.000582
245.5076	0.000388
245.7151	-0.000286
245.9225	0.001148
246.1300	0.000030
246.3375	0.000726
246.5449	-0.000624
246.7524	0.000051
246.9600	-0.000202
247.1675	0.001148
247.3750	-0.000286
247.5826	0.001991
247.7902	0.000473
247.9978	0.000578
248.2054	0.000009
248.4130	0.000515
248.6206	-0.000413
248.8283	0.001591
249.0359	0.000410
249.2436	0.000810
249.4513	0.000072
249.6590	0.000810
249.8667	-0.001383
250.0745	0.000663
250.2822	0.001696
250.4900	0.001274
250.6978	0.001738
250.9056	0.002139
251.1134	0.001464
251.3212	0.000030
251.5290	-0.000413
251.7369	0.001991
251.9447	0.002160
252.1526	0.000367
252.3605	-0.000350
252.5684	0.000557
252.7763	0.000346
252.9843	0.001844
253.1922	-0.000308
253.4002	0.002455
253.6082	0.000979
253.8162	0.000178
254.0242	0.000473
254.2322	0.001337
254.4402	-0.000076
254.6483	0.001422
254.8564	-0.000729
255.0644	0.000873
255.2725	0.000873
255.4806	0.000114
255.6888	0.000810
255.8969	0.001084
256.1051	-0.000793
256.3132	0.001717
256.5214	0.000241
256.7296	-0.000687
256.9378	0.000325
257.1460	0.001021
257.3543	0.001506
257.5625	0.001316
257.7708	-0.000814
257.9791	0.000262
258.1874	0.001084
258.3957	0.001844
258.6040	-0.000708
258.8124	0.000325
259.0207	0.000599
259.2291	0.001759
259.4375	0.001021
259.6459	0.001169
259.8543	0.000346
260.0627	0.000093
260.2711	-0.001025
260.4796	0.000410
260.6881	0.000346
260.8965	0.000768
261.1050	-0.001193
261.3135	0.001464
261.5221	0.001105
261.7306	0.000135
261.9392	0.000388
262.1477	0.000325
262.3563	0.000494
262.5649	0.001548
262.7735	-0.000097
262.9822	0.000262
263.1908	-0.000223
263.3995	0.001443
263.6081	0.000072
263.8168	0.000367
264.0255	0.000494
264.2342	0.001105
264.4429	0.000494
264.6517	0.000283
264.8604	0.000831
265.0692	0.000958
265.2780	0.001063
265.4868	0.001527
265.6956	0.000916
265.9044	0.001063
266.1133	-0.001573
266.3221	0.000473
266.5310	-0.000033
266.7399	0.000346
266.9488	0.001717
267.1577	0.000958
267.3666	0.000747
267.5755	0.000494
267.7845	0.000093
267.9935	0.000262
268.2024	0.000325
268.4114	0.001380
268.6205	-0.000666
268.8295	0.000515
269.0385	-0.000645
269.2476	0.000220
269.4566	0.000009
269.6657	0.000895
269.8748	0.000093
270.0839	0.001127
270.2931	-0.000666
270.5022	0.002582
270.7114	-0.000139
270.9205	-0.000076
271.1297	-0.000708
271.3389	0.000873
271.5481	0.000262
271.7573	0.001949
271.9666	0.000283
272.1758	0.000199
272.3851	0.000114
272.5944	-0.000202
272.8037	0.000895
273.0130	0.001021
273.2223	0.001000
273.4316	0.000789
273.6410	-0.000202
273.8504	0.001274
274.0597	0.000810
274.2691	0.001359
274.4785	0.000557
274.6880	0.000726
274.8974	0.000620
275.1069	0.000958
275.3163	-0.000877
275.5258	0.000768
275.7353	0.000304
275.9448	0.000641
276.1543	0.002012
276.3639	0.001274
276.5734	0.001063
276.7830	0.000810
276.9926	0.000852
277.2022	0.000873
277.4118	0.000220
277.6214	0.001127
277.8310	0.001316
278.0407	0.000051
278.2503	-0.000434
278.4600	0.001105
278.6697	-0.000308
278.8794	0.000979
279.0891	-0.000350
279.2989	0.001295
279.5086	0.001127
279.7184	0.002814
279.9281	0.000346
280.1379	-0.000413
280.3477	0.000684
280.5576	-0.001531
280.7674	-0.000687
280.9772	0.001928
281.1871	0.001696
281.3970	0.001148
281.6069	-0.000772
281.8168	0.001359
282.0267	-0.000329
282.2366	0.000747
282.4466	-0.000076
282.6565	0.000852
282.8665	-0.000772
283.0765	0.000557
283.2865	0.000452
283.4965	0.000199
283.7065	0.001232
283.9166	0.000431
284.1266	-0.000181
284.3367	0.000220
284.5468	0.000515
284.7569	0.001780
284.9670	-0.000476
285.1771	0.000431
285.3873	-0.001193
285.5974	-0.000371
285.8076	-0.000139
286.0178	0.002118
286.2280	0.000684
286.4382	0.000431
286.6484	0.000051
286.8587	0.000388
287.0689	0.000304
287.2792	0.002265
287.4895	0.000494
287.6998	0.000641
287.9101	0.001359
288.1204	0.000663
288.3308	-0.000645
288.5411	-0.000223
288.7515	-0.000582
288.9619	-0.000371
289.1723	0.000979
289.3827	-0.000033
289.5931	0.002118
289.8035	-0.000582
290.0140	0.000684
290.2245	0.000431
290.4349	0.000262
290.6454	0.000557
290.8559	0.000051
291.0665	0.000114
291.2770	0.000051
291.4875	-0.000181
291.6981	-0.000118
291.9087	0.000810
292.1193	0.001401
292.3299	-0.000160
292.5405	0.000536
292.7511	0.000831
292.9618	0.000852
293.1724	0.001485
293.3831	0.000473
293.5938	0.001105
293.8045	0.001633
294.0152	0.000831
294.2260	0.001021
294.4367	0.000536
294.6475	0.000494
294.8582	0.000578
295.0690	0.001253
295.2798	0.002287
295.4906	0.001105
295.7015	-0.000497
295.9123	0.001612
296.1232	-0.000118
296.3340	0.000367
296.5449	0.000536
296.7558	0.001844
296.9667	0.001253
297.1777	0.000937
297.3886	0.000895
297.5995	0.000178
297.8105	0.001148
298.0215	0.000536
298.2325	0.000009
298.4435	0.000599
298.6545	0.001865
298.8656	-0.000118
299.0766	0.001633
299.2877	0.000473
299.4988	0.000895
299.7099	0.001316
299.9210	0.001696
300.1321	0.000135
300.3432	0.000663
300.5544	0.000431
300.7655	-0.000265
300.9767	0.000789
301.1879	0.001991
301.3991	-0.000054
301.6103	0.000135
301.8215	0.000072
302.0328	0.001591
302.2441	-0.000076
302.4553	0.001527
302.6666	0.001823
302.8779	0.000852
303.0892	0.000578
303.3006	-0.000139
303.5119	0.000958
303.7233	0.000283
303.9346	0.000895
304.1460	0.001000
304.3574	0.000030
304.5688	0.000241
304.7803	0.000536
304.9917	0.000641
305.2031	0.002265
305.4146	0.000388
305.6261	-0.000476
305.8376	0.000831
306.0491	0.000641
306.2606	0.002582
306.4722	0.000873
306.6837	0.001823
306.8953	0.000958
307.1069	0.000135
307.3184	0.000346
307.5301	0.000473
307.7417	0.000283
307.9533	0.001337
308.1650	0.001253
308.3766	0.001823
308.5883	0.000009
308.8000	0.001801
309.0117	0.000768
309.2234	0.000051
309.4351	-0.000160
309.6469	0.000262
309.8586	0.001232
310.0704	0.000473
310.2822	0.001084
310.4940	0.000684
310.7058	0.000135
310.9176	0.001295
311.1295	0.000199
311.3413	0.001253
311.5532	-0.000160
311.7651	0.000684
311.9770	0.001021
312.1889	0.001380
312.4008	0.000578
312.6127	0.001801
312.8247	-0.000561
313.0366	0.000494
313.2486	-0.000350
313.4606	0.000810
313.6726	0.000114
313.8846	0.001105
314.0967	0.000452
314.3087	0.001548
314.5208	0.000283
314.7328	0.000641
314.9449	0.000979
315.1570	0.000937
315.3692	-0.000076
315.5813	0.001127
315.7934	0.001527
316.0056	0.001633
316.2177	0.000916
316.4299	-0.000265
316.6421	0.000283
316.8543	0.001169
317.0666	-0.000540
317.2788	0.003130
317.4911	0.000895
317.7033	0.000220
317.9156	0.001759
318.1279	0.000051
318.3402	0.000093
318.5525	0.000937
318.7649	-0.000308
318.9772	0.000494
319.1896	0.001654
319.4019	0.000705
319.6143	-0.000371
319.8267	0.001042
320.0392	-0.000371
320.2516	-0.001151
320.4640	0.001527
320.6765	0.001169
320.8890	0.000641
321.1014	0.000789
321.3139	0.000410
321.5265	0.000262
321.7390	0.001401
321.9515	0.000916
322.1641	0.000494
322.3766	0.000599
322.5892	-0.000160
322.8018	0.001359
323.0144	0.000937
323.2270	0.001823
323.4397	0.000852
323.6523	0.001380
323.8650	0.000536
324.0777	0.000431
324.2904	0.001506
324.5031	0.000726
324.7158	0.001295
324.9285	0.001548
325.1412	-0.000160
325.3540	0.001422
325.5668	0.001928
325.7796	0.000873
325.9924	-0.000118
326.2052	0.001105
326.4180	-0.001025
326.6308	0.000051
326.8437	0.000599
327.0566	0.000641
327.2694	0.000831
327.4823	-0.000076
327.6952	0.000051
327.9082	0.001148
328.1211	0.001991
328.3340	-0.000265
328.5470	0.000831
328.7600	0.001232
328.9730	-0.000518
329.1860	0.000578
329.3990	0.000705
329.6120	0.001612
329.8251	0.000515
330.0381	0.000178
330.2512	0.001232
330.4643	0.000895
330.6774	0.000852
330.8905	0.000747
331.1036	0.000072
331.3167	0.001211
331.5299	0.000578
331.7431	-0.000181
331.9562	0.000979
332.1694	0.001063
332.3826	0.001949
332.5959	-0.000624
332.8091	0.001548
333.0223	0.000283
333.2356	0.001253
333.4489	0.001443
333.6622	0.001316
333.8755	0.001021
334.0888	0.000536
334.3021	0.000726
334.5154	-0.000265
334.7288	0.002329
334.9422	0.000768
335.1555	0.000578
335.3689	0.001253
335.5823	0.001084
335.7958	0.001274
336.0092	0.000135
336.2227	0.001232
336.4361	0.001211
336.6496	0.000114
336.8631	0.002434
337.0766	0.000093
337.2901	0.000410
337.5036	-0.000856
337.7172	0.000747
337.9307	0.001000
338.1443	0.001063
338.3579	0.000536
338.5715	0.000410
338.7851	-0.000624
338.9987	0.002287
339.2124	0.000557
339.4260	0.000494
339.6397	-0.000054
339.8533	0.000114
340.0670	-0.000666
340.2807	0.001295
340.4945	0.001211
340.7082	0.000895
340.9219	0.000220
341.1357	0.002118
341.3495	-0.000603
341.5633	-0.000033
341.7771	0.000304
341.9909	0.001801
342.2047	0.000599
342.4185	0.001485
342.6324	0.000431
342.8463	0.000557
343.0601	-0.000877
343.2740	0.000810
343.4879	-0.000202
343.7019	0.002244
343.9158	0.000388
344.1297	0.000726
344.3437	-0.000961
344.5577	0.000009
344.7717	0.000325
344.9857	0.001359
345.1997	0.000663
345.4137	0.000895
345.6277	0.001190
345.8418	0.001949
346.0559	0.000051
346.2699	0.001295
346.4840	0.000494
346.6981	0.000051
346.9123	0.001000
347.1264	0.001021
347.3406	-0.000687
347.5547	0.001443
347.7689	0.001506
347.9831	0.000473
348.1973	0.000831
348.4115	-0.000624
348.6257	0.000768
348.8400	0.000367
349.0542	-0.001025
349.2685	-0.000497
349.4828	-0.000772
349.6971	0.001801
349.9114	-0.000076
350.1257	0.001232
350.3400	0.000283
350.5544	0.001127
350.7687	-0.000118
350.9831	0.002033
351.1975	-0.001046
351.4119	0.000178
351.6263	-0.000308
351.8407	0.002729
352.0552	0.001084
352.2696	0.001443
352.4841	-0.000054
352.6986	-0.000666
352.9131	-0.000518
353.1276	-0.000202
353.3421	-0.000139
353.5566	0.000958
353.7712	0.000873
353.9858	-0.000244
354.2003	0.000810
354.4149	0.001844
354.6295	0.000494
354.8441	0.000705
355.0588	0.000515
355.2734	0.001232
355.4881	0.000873
355.7027	0.000831
355.9174	0.001148
356.1321	0.000747
356.3468	0.002497
356.5615	0.001359
356.7763	-0.000160
356.9910	0.000768
357.2058	-0.000540
357.4206	0.000051
357.6353	0.000135
357.8501	0.000663
358.0650	0.001506
358.2798	0.002076
358.4946	-0.000033
358.7095	-0.000582
358.9243	0.001337
359.1392	0.002223
359.3541	0.001232
359.5690	0.002118
359.7839	0.000979
359.9989	0.000135
360.2138	0.000178
360.4288	-0.000413
360.6438	0.000515
360.8587	0.001063
361.0737	0.000388
361.2888	0.002118
361.5038	0.000030
361.7188	0.000072
361.9339	0.000093
362.1489	0.001063
362.3640	0.000367
362.5791	0.000726
362.7942	-0.000350
363.0093	0.001274
363.2245	0.001675
363.4396	0.000789
363.6548	-0.000350
363.8699	0.001042
364.0851	0.001042
364.3003	0.000494
364.5155	0.001337
364.7308	0.001042
364.9460	0.000578
365.1612	0.001127
365.3765	0.000726
365.5918	0.001232
365.8071	0.000283
366.0224	-0.000265
366.2377	0.000367
366.4530	0.001759
366.6684	-0.000244
366.8837	-0.001236
367.0991	-0.000434
367.3145	-0.000308
367.5299	-0.000097
367.7453	0.000578
367.9607	0.001063
368.1761	0.000030
368.3916	0.000663
368.6070	0.000241
368.8225	-0.000181
369.0380	0.003130
369.2535	0.001485
369.4690	0.001464
369.6845	0.000178
369.9001	-0.000160
370.1156	0.001084
370.3312	0.000684
370.5468	0.001232
370.7624	0.001084
370.9780	-0.000497
371.1936	0.000958
371.4092	0.001042
371.6249	-0.000392
371.8405	-0.000286
372.0562	0.001063
372.2719	0.000199
372.4876	0.001295
372.7033	0.000220
372.9190	0.001738
373.1348	0.000388
373.3505	0.001485
373.5663	-0.000139
373.7820	0.000262
373.9978	0.000241
374.2136	0.002033
374.4294	0.001527
374.6453	0.002181
374.8611	0.000684
375.0770	0.000515
375.2928	0.000663
375.5087	0.001274
375.7246	0.000599
375.9405	0.001738
376.1564	-0.000265
376.3724	0.000641
376.5883	0.000473
376.8043	0.000388
377.0203	0.001232
377.2362	0.000557
377.4522	-0.000582
377.6682	0.002476
377.8843	0.000873
378.1003	0.000325
378.3164	-0.000244
378.5324	0.000536
378.7485	0.000494
378.9646	-0.000012
379.1807	0.000346
379.3968	0.001443
379.6129	-0.000455
379.8291	0.000515
380.0452	-0.000181
380.2614	0.000473
380.4776	0.000178
380.6938	0.003025
380.9100	0.000937
381.1262	-0.000940
381.3424	0.000937
381.5587	0.000895
381.7749	-0.001046
381.9912	0.000768
382.2075	-0.000286
382.4238	0.001991
382.6401	0.002097
382.8564	0.000895
383.0728	-0.000308
383.2891	0.000726
383.5055	0.000093
383.7219	0.000810
383.9382	0.000093
384.1546	0.002181
384.3711	-0.000097
384.5875	0.001780
384.8039	-0.000033
385.0204	0.001169
385.2368	0.000494
385.4533	0.001148
385.6698	0.001042
385.8863	0.001105
386.1028	0.000536
386.3194	0.001612
386.5359	0.000494
386.7525	0.002223
386.9690	-0.000139
387.1856	0.001105
387.4022	0.002687
387.6188	0.002033
387.8355	0.000599
388.0521	0.001295
388.2687	-0.000308
388.4854	0.001253
388.7021	0.001211
388.9188	0.001928
389.1355	0.001063
389.3522	0.002012
389.5689	0.002097
389.7856	0.001886
390.0024	0.001105
390.2192	0.001886
390.4359	0.001253
390.6527	0.000431
390.8695	0.001211
391.0863	0.002265
391.3032	0.002708
391.5200	0.002772
391.7369	0.002772
391.9537	0.003025
392.1706	0.003130
392.3875	0.003362
392.6044	0.002519
392.8213	0.002793
393.0383	0.003784
393.2552	0.004649
393.4722	0.002561
393.6891	0.004058
393.9061	0.002033
394.1231	0.004902
394.3401	0.002624
394.5572	0.004754
394.7742	0.003320
394.9912	0.004185
395.2083	0.005155
395.4254	0.004248
395.6425	0.004417
395.8596	0.004796
396.0767	0.004838
396.2938	0.005324
396.5109	0.004164
396.7281	0.006041
396.9453	0.004902
397.1624	0.005049
397.3796	0.005914
397.5968	0.006420
397.8140	0.005724
398.0313	0.006420
398.2485	0.007897
398.4658	0.008107
398.6830	0.007116
398.9003	0.008086
399.1176	0.008002
399.3349	0.008803
399.5522	0.007960
399.7696	0.007538
399.9869	0.009542
400.2043	0.007812
400.4216	0.008318
400.6390	0.009267
400.8564	0.007179
401.0738	0.009078
401.2912	0.008951
401.5087	0.007833
401.7261	0.008297
401.9436	0.008635
402.1610	0.009668
402.3785	0.009078
402.5960	0.009436
402.8135	0.009225
403.0310	0.010216
403.2486	0.009626
403.4661	0.010364
403.6837	0.010364
403.9013	0.010533
404.1189	0.010554
404.3365	0.010870
404.5541	0.012241
404.7717	0.011187
404.9893	0.011629
405.2070	0.011102
405.4246	0.012642
405.6423	0.012199
405.8600	0.011503
406.0777	0.011566
406.2954	0.011440
406.5131	0.010322
406.7309	0.012684
406.9486	0.010427
407.1664	0.010934
407.3842	0.011672
407.6020	0.010491
407.8198	0.012958
408.0376	0.012241
408.2554	0.014308
408.4733	0.013106
408.6911	0.012536
408.9090	0.012621
409.1269	0.012494
409.3448	0.014540
409.5627	0.013253
409.7806	0.014814
409.9985	0.014561
410.2165	0.012684
410.4344	0.013000
410.6524	0.012072
410.8704	0.014814
411.0884	0.013633
411.3064	0.015805
411.5244	0.014329
411.7424	0.013106
411.9605	0.014076
412.1785	0.015088
412.3966	0.014688
412.6147	0.015742
412.8328	0.015805
413.0509	0.015826
413.2690	0.016164
413.4871	0.014835
413.7053	0.015826
413.9234	0.015890
414.1416	0.014772
414.3598	0.015405
414.5780	0.016164
414.7962	0.013696
415.0144	0.015637
415.2326	0.016459
415.4509	0.015320
415.6692	0.016396
415.8874	0.017598
416.1057	0.015826
416.3240	0.015573
416.5423	0.015510
416.7606	0.015278
416.9790	0.016058
417.1973	0.016143
417.4157	0.017535
417.6341	0.017387
417.8524	0.016312
418.0708	0.017809
418.2893	0.017261
418.5077	0.017535
418.7261	0.017303
418.9446	0.017050
419.1630	0.015911
419.3815	0.017493
419.6000	0.019116
419.8185	0.016396
420.0370	0.017387
420.2555	0.017767
420.4741	0.019602
420.6926	0.019834
420.9112	0.021394
421.1298	0.021268
421.3483	0.020213
421.5669	0.022111
421.7856	0.020340
422.0042	0.022976
422.2228	0.022259
422.4415	0.021521
422.6601	0.020888
422.8788	0.022132
423.0975	0.021352
423.3162	0.021964
423.5349	0.020340
423.7536	0.018716
423.9724	0.020656
424.1911	0.019454
424.4099	0.022364
424.6287	0.020002
424.8475	0.020508
425.0663	0.019074
425.2851	0.020129
425.5039	0.019791
425.7228	0.019159
425.9416	0.020319
426.1605	0.015826
426.3793	0.019433
426.5982	0.019116
426.8171	0.018631
427.0361	0.020276
427.2550	0.020023
427.4739	0.022428
427.6929	0.021268
427.9118	0.020129
428.1308	0.019665
428.3498	0.022027
428.5688	0.020403
428.7878	0.019918
429.0068	0.021015
429.2259	0.021352
429.4449	0.022111
429.6640	0.023166
429.8831	0.024115
430.1022	0.024178
430.3213	0.023124
430.5404	0.023777
430.7595	0.021521
430.9787	0.024241
431.1978	0.021247
431.4170	0.022006
431.6362	0.019728
431.8553	0.020234
432.0745	0.020340
432.2938	0.019834
432.5130	0.019559
432.7322	0.019475
432.9515	0.018315
433.1707	0.018294
433.3900	0.020614
433.6093	0.022153
433.8286	0.023841
434.0479	0.022006
434.2673	0.023060
434.4866	0.021774
434.7059	0.019559
434.9253	0.020466
435.1447	0.019180
435.3641	0.023377
435.5835	0.020298
435.8029	0.020403
436.0223	0.019623
436.2418	0.021394
436.4612	0.021626
436.6807	0.021943
436.9001	0.020382
437.1196	0.020508
437.3391	0.020951
437.5586	0.021415
437.7782	0.020888
437.9977	0.021394
438.2173	0.020129
438.4368	0.019834
438.6564	0.020804
438.8760	0.021436
439.0956	0.020846
439.3152	0.021183
439.5348	0.022702
439.7545	0.020403
439.9741	0.020551
440.1938	0.019749
440.4135	0.021057
440.6331	0.020319
440.8528	0.022744
441.0725	0.023335
441.2923	0.024473
441.5120	0.027995
441.7318	0.024684
441.9515	0.024558
442.1713	0.024980
442.3911	0.024537
442.6109	0.022871
442.8307	0.023588
443.0505	0.022153
443.2703	0.023672
443.4902	0.023503
443.7101	0.024916
443.9299	0.024136
444.1498	0.024769
444.3697	0.021753
444.5896	0.023988
444.8095	0.023904
445.0295	0.023081
445.2494	0.022343
445.4694	0.022132
445.6894	0.021900
445.9093	0.023166
446.1293	0.023588
446.3493	0.022554
446.5694	0.019665
446.7894	0.023229
447.0094	0.021015
447.2295	0.021141
447.4496	0.022048
447.6696	0.022512
447.8897	0.022048
448.1098	0.020213
448.3300	0.020319
448.5501	0.020508
448.7702	0.019665
448.9904	0.019433
449.2106	0.019791
449.4307	0.021732
449.6509	0.020698
449.8711	0.020213
450.0914	0.020403
450.3116	0.020023
450.5318	0.020319
450.7521	0.021415
450.9724	0.019876
451.1926	0.020066
451.4129	0.019960
451.6332	0.019812
451.8535	0.018885
452.0739	0.019475
452.2942	0.018378
452.5146	0.018631
452.7349	0.017535
452.9553	0.018463
453.1757	0.017746
453.3961	0.016881
453.6165	0.015510
453.8369	0.016396
454.0574	0.016712
454.2778	0.017050
454.4983	0.016333
454.7188	0.018062
454.9393	0.015784
455.1597	0.015447
455.3803	0.015805
455.6008	0.016965
455.8213	0.016944
456.0419	0.017471
456.2624	0.017366
456.4830	0.015932
456.7036	0.015510
456.9242	0.015447
457.1448	0.015215
457.3654	0.015890
457.5860	0.016944
457.8067	0.015152
458.0274	0.015004
458.2480	0.017514
458.4687	0.017514
458.6894	0.015679
458.9101	0.016396
459.1308	0.015257
459.3516	0.016375
459.5723	0.015426
459.7931	0.016902
460.0138	0.015974
460.2346	0.015489
460.4554	0.015953
460.6762	0.013232
460.8970	0.016586
461.1178	0.015510
461.3387	0.016206
461.5595	0.015004
461.7804	0.016122
462.0013	0.013907
462.2222	0.013464
462.4431	0.012684
462.6640	0.012684
462.8849	0.012410
463.1059	0.010702
463.3268	0.012579
463.5478	0.012853
463.7687	0.013275
463.9897	0.012789
464.2107	0.013401
464.4317	0.013570
464.6528	0.013232
464.8738	0.014160
465.0948	0.014097
465.3159	0.013844
465.5370	0.014561
465.7581	0.013085
465.9792	0.013317
466.2003	0.012304
466.4214	0.012726
466.6425	0.011883
466.8637	0.012452
467.0848	0.010955
467.3060	0.011440
467.5272	0.011018
467.7484	0.011819
467.9696	0.012347
468.1908	0.010238
468.4120	0.008888
468.6333	0.010385
468.8545	0.010090
469.0758	0.010617
469.2970	0.007939
469.5183	0.010027
469.7396	0.009689
469.9610	0.009436
470.1823	0.007517
470.4036	0.008171
470.6250	0.007201
470.8463	0.009879
471.0677	0.006209
471.2891	0.006842
471.5105	0.007981
471.7319	0.007433
471.9533	0.007475
472.1748	0.007411
472.3962	0.009331
472.6177	0.008424
472.8391	0.009710
473.0606	0.008635
473.2821	0.007854
473.5036	0.009120
473.7251	0.008677
473.9467	0.008466
474.1682	0.006842
474.3898	0.007939
474.6113	0.008424
474.8329	0.007812
475.0545	0.007137
475.2761	0.008044
475.4977	0.007327
475.7193	0.008339
475.9410	0.006758
476.1626	0.008339
476.3843	0.007728
476.6060	0.005893
476.8277	0.006209
477.0494	0.007306
477.2711	0.008361
477.4928	0.006315
477.7145	0.007011
477.9363	0.006800
478.1580	0.006273
478.3798	0.006800
478.6016	0.008002
478.8234	0.007222
479.0452	0.006737
479.2670	0.005661
479.4888	0.005577
479.7107	0.004606
479.9325	0.006167
480.1544	0.005408
480.3763	0.008782
480.5982	0.007390
480.8201	0.006715
481.0420	0.005766
481.2639	0.006462
481.4859	0.006969
481.7078	0.005703
481.9298	0.005450
482.1517	0.007517
482.3737	0.005851
482.5957	0.005366
482.8177	0.004923
483.0398	0.006378
483.2618	0.005682
483.4838	0.005640
483.7059	0.006483
483.9280	0.006336
484.1501	0.004965
484.3721	0.006610
484.5943	0.005682
484.8164	0.006568
485.0385	0.006505
485.2606	0.004712
485.4828	0.008234
485.7050	0.013844
485.9271	0.018041
486.1493	0.017872
486.3715	0.013802
486.5937	0.009436
486.8160	0.008824
487.0382	0.008044
487.2605	0.007137
487.4827	0.006041
487.7050	0.006146
487.9273	0.005724
488.1496	0.004881
488.3719	0.004775
488.5942	0.004058
488.8165	0.004248
489.0389	0.004269
489.2612	0.003193
489.4836	0.004079
489.7060	0.003573
489.9284	0.003910
490.1508	0.005281
490.3732	0.004860
490.5956	0.003004
490.8180	0.004269
491.0405	0.003067
491.2630	0.004185
491.4854	0.005176
491.7079	0.003552
491.9304	0.002898
492.1529	0.004396
492.3755	0.003636
492.5980	0.003067
492.8205	0.004058
493.0431	0.003004
493.2657	0.003236
493.4882	0.003868
493.7108	0.002835
493.9334	0.004860
494.1561	0.004522
494.3787	0.004185
494.6013	0.004522
494.8240	0.003868
495.0466	0.003025
495.2693	0.003341
495.4920	0.004058
495.7147	0.002687
495.9374	0.004438
496.1601	0.004248
496.3829	0.004628
496.6056	0.003278
496.8284	0.003700
497.0511	0.003257
497.2739	0.002898
497.4967	0.004058
497.7195	0.004079
497.9423	0.002076
498.1652	0.002729
498.3880	0.004290
498.6109	0.002645
498.8337	0.004522
499.0566	0.001780
499.2795	0.003362
499.5024	0.002455
499.7253	0.003404
499.9482	0.003594
500.1712	0.002645
500.3941	0.003130
500.6171	0.002919
500.8400	0.003510
501.0630	0.003025
501.2860	0.002793
501.5090	0.002856
501.7320	0.004142
501.9551	0.004881
502.1781	0.003299
502.4012	0.003067
502.6242	0.001991
502.8473	0.004522
503.0704	0.002898
503.2935	0.002835
503.5166	0.002919
503.7397	0.004016
503.9628	0.002350
504.1860	0.003889
504.4092	0.002983
504.6323	0.003172
504.8555	0.003362
505.0787	0.003067
505.3019	0.002455
505.5251	0.003889
505.7483	0.002434
505.9716	0.003489
506.1948	0.002350
506.4181	0.003552
506.6414	0.002055
506.8647	0.001801
507.0880	0.002624
507.3113	0.004037
507.5346	0.000831
507.7579	0.004079
507.9813	0.002793
508.2046	0.003257
508.4280	0.002497
508.6514	0.005007
508.8748	0.003531
509.0982	0.003236
509.3216	0.003446
509.5450	0.002308
509.7685	0.003193
509.9919	0.002814
510.2154	0.002540
510.4388	0.002772
510.6623	0.001844
510.8858	0.002287
511.1093	0.001084
511.3329	0.001991
511.5564	0.002645
511.7799	0.002434
512.0035	0.003510
512.2270	0.001780
512.4506	0.002519
512.6742	0.003531
512.8978	0.002793
513.1214	0.003341
513.3451	0.003278
513.5687	0.003805
513.7923	0.003046
514.0160	0.002561
514.2397	0.001865
514.4634	0.002898
514.6871	0.002244
514.9108	0.002244
515.1345	0.003425
515.3582	0.002519
515.5819	0.001759
515.8057	0.002582
516.0295	0.002645
516.2532	0.004501
516.4770	0.002434
516.7008	0.004037
516.9246	0.003594
517.1485	0.003805
517.3723	0.003193
517.5961	0.003889
517.8200	0.002076
518.0439	0.003362
518.2677	0.002645
518.4916	0.001844
518.7155	0.002413
518.9395	0.002603
519.1634	0.001928
519.3873	0.002877
519.6113	0.001295
519.8352	0.002244
520.0592	0.003193
520.2832	0.002835
520.5072	0.003910
520.7312	0.002645
520.9552	0.002033
521.1792	0.002687
521.4033	0.003615
521.6273	0.002244
521.8514	0.004206
522.0755	0.002940
522.2996	0.002497
522.5237	0.003046
522.7478	0.002835
522.9719	0.002476
523.1960	0.003636
523.4202	0.003910
523.6443	0.003636
523.8685	0.003425
524.0927	0.003320
524.3169	0.003468
524.5411	0.003257
524.7653	0.003678
524.9895	0.003721
525.2138	0.002687
525.4380	0.004121
525.6623	0.003299
525.8865	0.002666
526.1108	0.003278
526.3351	0.003510
526.5594	0.004353
526.7837	0.002455
527.0081	0.002961
527.2324	0.004733
527.4568	0.003974
527.6811	0.004986
527.9055	0.002983
528.1299	0.003678
528.3543	0.003594
528.5787	0.004206
528.8031	0.003657
529.0276	0.003889
529.2520	0.003953
529.4765	0.003636
529.7009	0.005218
529.9254	0.004227
530.1499	0.004227
530.3744	0.005176
530.5989	0.004480
530.8234	0.004754
531.0480	0.004037
531.2725	0.005387
531.4971	0.003932
531.7217	0.005429
531.9462	0.003742
532.1708	0.005619
532.3954	0.004269
532.6200	0.004923
532.8447	0.006251
533.0693	0.005408
533.2940	0.005661
533.5186	0.005893
533.7433	0.006104
533.9680	0.007264
534.1927	0.006209
534.4174	0.005935
534.6421	0.006336
534.8668	0.006694
535.0916	0.007095
535.3163	0.006526
535.5411	0.006758
535.7659	0.007327
535.9907	0.008065
536.2155	0.006041
536.4403	0.006800
536.6651	0.006399
536.8899	0.006779
537.1148	0.006884
537.3396	0.005914
537.5645	0.006652
537.7894	0.006715
538.0143	0.007264
538.2392	0.008592
538.4641	0.007749
538.6890	0.008487
538.9139	0.006821
539.1389	0.008993
539.3638	0.009774
539.5888	0.008993
539.8138	0.009183
540.0388	0.009352
540.2638	0.008930
540.4888	0.008592
540.7138	0.008740
540.9389	0.008930
541.1639	0.009984
541.3890	0.009204
541.6140	0.010448
541.8391	0.009520
542.0642	0.010786
542.2893	0.009542
542.5144	0.009457
542.7396	0.009816
542.9647	0.012304
543.1899	0.010891
543.4150	0.011397
543.6402	0.009774
543.8654	0.012684
544.0906	0.010870
544.3158	0.012093
544.5410	0.011819
544.7662	0.011440
544.9915	0.011798
545.2167	0.011482
545.4420	0.011039
545.6673	0.012220
545.8926	0.012621
546.1179	0.011904
546.3432	0.013422
546.5685	0.012726
546.7938	0.012705
547.0192	0.014962
547.2445	0.013612
547.4699	0.014751
547.6953	0.014392
547.9206	0.017092
548.1460	0.015552
548.3715	0.017450
548.5969	0.015742
548.8223	0.017556
549.0478	0.015742
549.2732	0.015046
549.4987	0.014540
549.7242	0.016185
549.9496	0.016333
550.1751	0.014856
550.4007	0.013338
550.6262	0.016206
550.8517	0.016522
551.0773	0.013380
551.3028	0.015067
551.5284	0.016607
551.7540	0.015637
551.9796	0.018020
552.2052	0.019623
552.4308	0.019327
552.6564	0.019180
552.8820	0.018948
553.1077	0.019032
553.3333	0.019433
553.5590	0.020023
553.7847	0.019412
554.0104	0.019116
554.2361	0.020276
554.4618	0.020002
554.6875	0.018442
554.9132	0.017978
555.1390	0.020213
555.3648	0.019918
555.5905	0.020551
555.8163	0.021900
556.0421	0.022217
556.2679	0.022301
556.4937	0.021711
556.7195	0.022828
556.9454	0.020677
557.1712	0.022533
557.3971	0.021162
557.6230	0.021795
557.8488	0.021479
558.0747	0.021542
558.3006	0.019686
558.5266	0.020888
558.7525	0.021415
558.9784	0.021732
559.2044	0.021500
559.4303	0.019538
559.6563	0.022069
559.8823	0.022491
560.1083	0.024916
560.3343	0.023271
560.5603	0.023714
560.7863	0.027004
561.0124	0.028902
561.2384	0.028502
561.4645	0.030632
561.6905	0.027974
561.9166	0.028713
562.1427	0.028375
562.3688	0.029830
562.5949	0.027257
562.8211	0.028333
563.0472	0.027890
563.2733	0.027890
563.4995	0.027890
563.7257	0.029240
563.9519	0.031011
564.1781	0.031264
564.4043	0.031180
564.6305	0.033247
564.8567	0.032720
565.0829	0.033163
565.3092	0.033837
565.5355	0.034660
565.7617	0.033648
565.9880	0.033795
566.2143	0.033479
566.4406	0.038393
566.6669	0.035419
566.8932	0.037929
567.1196	0.040607
567.3459	0.041409
567.5723	0.046175
567.7987	0.046260
568.0250	0.048601
568.2514	0.049254
568.4778	0.049676
568.7043	0.052523
568.9307	0.054822
569.1571	0.058471
569.3836	0.064650
569.6100	0.072475
569.8365	0.077093
570.0630	0.083948
570.2895	0.087491
570.5160	0.088693
570.7425	0.088946
570.9690	0.094303
571.1956	0.098837
571.4221	0.106514
571.6487	0.107358
571.8752	0.111302
572.1018	0.116427
572.3284	0.112715
572.5550	0.112441
572.7816	0.097952
573.0082	0.096834
573.2349	0.104194
573.4615	0.114866
573.6882	0.123049
573.9149	0.126845
574.1415	0.131928
574.3682	0.137833
574.5949	0.144455
574.8216	0.146522
575.0484	0.144413
575.2751	0.148884
575.5018	0.146501
575.7286	0.138824
575.9554	0.131126
576.1821	0.129608
576.4089	0.135682
576.6357	0.142346
576.8626	0.151689
577.0894	0.157574
577.3162	0.159598
577.5431	0.163437
577.7699	0.181869
577.9968	0.207831
578.2237	0.206060
578.4505	0.189884
578.6774	0.181363
578.9044	0.168920
579.1313	0.159851
579.3582	0.164892
579.5851	0.165757
579.8121	0.171767
580.0391	0.176091
580.2660	0.175163
580.4930	0.174172
580.7200	0.168308
580.9470	0.169532
581.1741	0.203171
581.4011	0.246047
581.6281	0.268192
581.8552	0.272283
582.0822	0.267179
582.3093	0.256613
582.5364	0.236873
582.7635	0.215529
582.9906	0.199353
583.2177	0.185328
583.4449	0.174087
583.6720	0.163985
583.8991	0.151479
584.1263	0.157679
584.3535	0.161897
584.5807	0.164892
584.8079	0.173244
585.0351	0.186298
585.2623	0.198573
585.4895	0.198995
585.7167	0.195789
585.9440	0.192752
586.1713	0.180435
586.3985	0.169279
586.6258	0.161454
586.8531	0.167233
587.0804	0.175078
587.3077	0.187543
587.5350	0.190980
587.7624	0.194186
587.9897	0.182228
588.2171	0.176175
588.4445	0.168456
588.6718	0.165061
588.8992	0.157405
589.1266	0.150382
589.3540	0.138339
589.5815	0.133573
589.8089	0.135281
590.0363	0.133257
590.2638	0.130536
590.4913	0.126698
590.7187	0.119443
590.9462	0.113854
591.1737	0.108982
591.4012	0.106198
591.6288	0.108476
591.8563	0.108792
592.0838	0.109003
592.3114	0.113010
592.5389	0.129292
592.7665	0.153334
592.9941	0.165018
593.2217	0.171514
593.4493	0.169743
593.6769	0.168224
593.9046	0.162888
594.1322	0.152491
594.3598	0.146501
594.5875	0.144730
594.8152	0.150466
595.0429	0.161053
595.2705	0.164386
595.4983	0.163120
595.7260	0.147746
595.9537	0.140280
596.1814	0.137664
596.4092	0.128659
596.6369	0.119569
596.8647	0.119632
597.0925	0.118388
597.3203	0.124989
597.5481	0.123175
597.7759	0.124905
598.0037	0.118557
598.2315	0.116068
598.4594	0.120602
598.6872	0.131000
598.9151	0.151225
599.1430	0.155401
599.3709	0.154537
599.5988	0.145489
599.8267	0.151078
600.0546	0.149749
600.2825	0.156414
600.5105	0.152406
600.7384	0.149918
600.9664	0.155275
601.1944	0.157932
601.4223	0.154136
601.6503	0.147809
601.8783	0.143781
602.1064	0.141925
602.3344	0.137643
602.5624	0.138107
602.7905	0.142621
603.0185	0.144751
603.2466	0.148505
603.4747	0.157531
603.7028	0.156603
603.9309	0.152259
604.1590	0.149728
604.3871	0.143169
604.6152	0.138656
604.8434	0.131084
605.0715	0.127541
605.2997	0.132160
605.5279	0.134121
605.7561	0.140891
605.9843	0.144730
606.2125	0.145299
606.4407	0.140132
606.6689	0.130051
606.8972	0.132518
607.1254	0.132286
607.3537	0.133552
607.5819	0.132202
607.8102	0.132181
608.0385	0.131021
608.2668	0.127394
608.4951	0.123133
608.7235	0.121636
608.9518	0.120602
609.1801	0.113601
609.4085	0.114887
609.6369	0.109636
609.8653	0.115984
610.0936	0.124188
610.3220	0.126951
610.5505	0.126550
610.7789	0.121784
611.0073	0.116152
611.2357	0.119253
611.4642	0.115330
611.6927	0.115119
611.9211	0.116089
612.1496	0.111998
612.3781	0.110036
612.6066	0.108455
612.8351	0.108328
613.0637	0.107189
613.2922	0.107484
613.5208	0.109488
613.7493	0.104004
613.9779	0.106556
614.2065	0.105270
614.4351	0.107295
614.6637	0.106430
614.8923	0.106050
615.1209	0.106999
615.3495	0.106620
615.5782	0.108391
615.8068	0.109572
616.0355	0.107168
616.2642	0.099786
616.4929	0.097150
616.7216	0.091414
616.9503	0.094176
617.1790	0.092995
617.4077	0.094155
617.6365	0.091983
617.8652	0.092658
618.0940	0.093902
618.3227	0.091308
618.5515	0.086141
618.7803	0.082134
619.0091	0.079561
619.2379	0.077515
619.4667	0.075301
619.6956	0.072875
619.9244	0.078844
620.1533	0.081143
620.3821	0.081375
620.6110	0.080426
620.8399	0.073719
621.0688	0.066886
621.2977	0.063322
621.5266	0.062288
621.7556	0.063111
621.9845	0.070176
622.2135	0.071294
622.4424	0.069311
622.6714	0.070914
622.9004	0.073339
623.1294	0.074331
623.3584	0.075448
623.5874	0.076503
623.8164	0.072770
624.0454	0.074331
624.2745	0.072622
624.5035	0.075849
624.7326	0.074457
624.9617	0.077030
625.1908	0.072095
625.4199	0.071441
625.6490	0.068468
625.8781	0.068193
626.1072	0.062499
626.3364	0.062562
626.5655	0.058618
626.7947	0.060580
627.0238	0.060242
627.2530	0.059040
627.4822	0.062562
627.7114	0.059462
627.9406	0.057669
628.1698	0.054485
628.3991	0.050056
628.6283	0.049739
628.8576	0.049191
629.0868	0.048116
629.3161	0.052165
629.5454	0.053704
629.7747	0.054337
630.0040	0.052924
630.2333	0.051005
630.4626	0.050119
630.6920	0.049739
630.9213	0.048769
631.1507	0.045711
631.3801	0.043539
631.6094	0.044235
631.8388	0.043307
632.0682	0.045142
632.2976	0.042991
632.5271	0.041725
632.7565	0.040818
632.9859	0.038245
633.2154	0.039279
633.4448	0.036790
633.6743	0.036368
633.9038	0.039342
634.1333	0.037064
634.3628	0.036579
634.5923	0.035250
634.8218	0.035124
635.0514	0.035187
635.2809	0.035061
635.5105	0.033774
635.7400	0.033964
635.9696	0.037592
636.1992	0.038604
636.4288	0.039595
636.6584	0.038941
636.8880	0.036832
637.1177	0.036811
637.3473	0.035040
637.5770	0.034238
637.8066	0.033753
638.0363	0.033711
638.2660	0.033711
638.4957	0.035440
638.7254	0.037760
638.9551	0.034829
639.1848	0.036305
639.4145	0.035040
639.6443	0.032372
639.8740	0.032910
640.1038	0.032034
640.3336	0.030840
640.5633	0.031558
640.7931	0.031193
641.0229	0.030756
641.2528	0.029624
641.4826	0.028702
641.7124	0.028413
641.9423	0.026737
642.1721	0.025312
642.4020	0.025836
642.6319	0.025269
642.8617	0.024847
643.0916	0.024762
643.3216	0.025076
643.5515	0.024722
643.7814	0.025380
644.0113	0.024960
644.2413	0.023013
644.4712	0.023256
644.7012	0.022777
644.9312	0.022672
645.1612	0.024122
645.3912	0.022765
645.6212	0.022150
645.8512	0.022931
646.0812	0.022187
646.3113	0.023549
646.5413	0.020416
646.7714	0.021590
647.0015	0.020447
647.2316	0.020713
647.4616	0.021674
647.6918	0.023781
647.9219	0.022669
648.1520	0.024076
648.3821	0.024255
648.6123	0.026583
648.8424	0.028141
649.0726	0.027565
649.3028	0.026872
649.5329	0.028959
649.7631	0.028878
649.9933	0.027604
650.2236	0.024416
650.4538	0.026978
650.6840	0.025606
650.9143	0.023021
651.1445	0.023990
651.3748	0.024388
651.6051	0.026124
651.8354	0.027889
652.0657	0.026176
652.2960	0.025734
652.5263	0.026961
652.7566	0.027540
652.9870	0.026815
653.2173	0.026496
653.4477	0.025587
653.6780	0.027387
653.9084	0.028281
654.1388	0.030373
654.3692	0.030265
654.5996	0.031051
654.8300	0.032082
655.0605	0.048946
655.2909	0.134293
655.5213	0.403570
655.7518	0.808390
655.9823	1.000000
656.2128	1.000000
656.4433	1.000000
656.6738	1.000000
656.9043	0.924002
657.1348	0.738367
657.3653	0.607969
657.5959	0.517497
657.8264	0.450245
658.0570	0.405682
658.2875	0.366760
658.5181	0.336829
658.7487	0.317714
658.9793	0.294582
659.2099	0.246252
659.4406	0.172253
659.6712	0.106979
659.9018	0.063634
660.1325	0.041564
660.3632	0.027511
660.5938	0.024337
660.8245	0.022194
661.0552	0.019872
661.2859	0.021462
661.5166	0.020314
661.7474	0.018674
661.9781	0.020717
662.2088	0.018742
662.4396	0.018352
662.6704	0.019546
662.9011	0.018726
663.1319	0.018096
663.3627	0.019353
663.5935	0.016847
663.8243	0.019166
664.0552	0.018650
664.2860	0.019921
664.5168	0.017922
664.7477	0.019702
664.9786	0.019936
665.2094	0.020454
665.4403	0.021844
665.6712	0.021168
665.9021	0.021053
666.1330	0.019814
666.3640	0.019440
666.5949	0.018734
666.8259	0.018667
667.0568	0.018382
667.2878	0.017808
667.5188	0.018255
667.7497	0.017938
667.9807	0.019310
668.2117	0.017917
668.4428	0.018505
668.6738	0.019707
668.9048	0.018737
669.1359	0.016016
669.3669	0.018568
669.5980	0.017577
669.8291	0.018041
670.0602	0.018716
670.2913	0.018357
670.5224	0.019032
670.7535	0.019222
670.9846	0.018273
671.2157	0.020129
671.4469	0.022807
671.6781	0.023482
671.9092	0.024178
672.1404	0.027679
672.3716	0.030421
672.6028	0.029092
672.8340	0.029092
673.0652	0.028966
673.2964	0.025992
673.5277	0.024874
673.7589	0.026266
673.9902	0.025465
674.2214	0.023799
674.4527	0.025106
674.6840	0.023271
674.9153	0.023292
675.1466	0.022301
675.3779	0.022575
675.6093	0.022765
675.8406	0.021900
676.0719	0.021036
676.3033	0.021394
676.5347	0.020846
676.7661	0.019370
676.9974	0.019791
677.2288	0.020066
677.4602	0.023103
677.6917	0.024663
677.9231	0.024790
678.1545	0.025992
678.3860	0.024705
678.6174	0.028523
678.8489	0.025549
679.0804	0.028270
679.3119	0.026667
679.5434	0.027932
679.7749	0.031834
680.0064	0.030800
680.2379	0.026646
680.4694	0.031771
680.7010	0.029957
680.9325	0.028945
681.1641	0.029261
681.3957	0.030062
681.6273	0.032762
681.8589	0.028481
682.0905	0.027932
682.3221	0.025233
682.5537	0.026140
682.7854	0.026878
683.0170	0.023777
683.2487	0.026182
683.4803	0.026878
683.7120	0.027742
683.9437	0.027004
684.1754	0.028776
684.4071	0.030695
684.6388	0.031939
684.8705	0.033057
685.1023	0.036347
685.3340	0.038519
685.5658	0.037275
685.7975	0.039068
686.0293	0.037191
686.2611	0.037887
686.4929	0.035314
686.7247	0.037781
686.9565	0.037402
687.1883	0.037802
687.4202	0.035925
687.6520	0.036432
687.8838	0.034259
688.1157	0.033141
688.3476	0.032467
688.5795	0.030252
688.8114	0.031096
689.0433	0.031665
689.2752	0.031644
689.5071	0.031792
689.7390	0.030463
689.9710	0.030104
690.2029	0.031391
690.4349	0.029999
690.6669	0.028249
690.8988	0.030864
691.1308	0.029851
691.3628	0.034217
691.5948	0.033078
691.8269	0.032867
692.0589	0.033584
692.2909	0.031307
692.5230	0.032635
692.7550	0.032340
692.9871	0.031391
693.2192	0.033648
693.4513	0.033310
693.6834	0.031855
693.9155	0.029409
694.1476	0.031433
694.3797	0.029872
694.6119	0.028607
694.8440	0.028607
695.0762	0.030083
695.3083	0.029155
695.5405	0.027806
695.7727	0.025654
696.0049	0.023714
696.2371	0.025633
696.4693	0.026836
696.7016	0.029725
696.9338	0.035356
697.1660	0.034744
697.3983	0.034597
697.6306	0.033099
697.8628	0.033605
698.0951	0.032530
698.3274	0.034913
698.5597	0.032066
698.7920	0.031075
699.0243	0.029830
699.2567	0.029767
699.4890	0.028164
699.7214	0.031750
699.9537	0.026076
700.1861	0.024980
700.4185	0.027236
700.6509	0.027763
700.8833	0.027131
701.1157	0.024769
701.3481	0.024726
701.5806	0.024537
701.8130	0.024115
702.0454	0.025317
702.2779	0.026604
702.5104	0.027046
702.7429	0.025676
702.9753	0.024642
703.2078	0.026540
703.4403	0.025676
703.6729	0.022997
703.9054	0.024178
704.1379	0.023545
704.3705	0.024031
704.6030	0.022723
704.8356	0.022196
705.0682	0.023672
705.3008	0.021668
705.5334	0.020635
705.7660	0.021858
705.9986	0.020867
706.2312	0.022955
706.4638	0.026266
706.6965	0.028080
706.9291	0.030758
707.1618	0.031602
707.3945	0.031201
707.6272	0.033099
707.8599	0.032424
708.0926	0.030632
708.3253	0.034850
708.5580	0.032488
708.7907	0.031201
709.0235	0.031096
709.2562	0.030294
709.4890	0.029198
709.7217	0.028333
709.9545	0.030126
710.1873	0.030611
710.4201	0.027911
710.6529	0.030231
710.8857	0.029050
711.1186	0.027426
711.3514	0.026245
711.5842	0.026224
711.8171	0.028565
712.0500	0.026118
712.2828	0.024494
712.5157	0.024473
712.7486	0.023651
712.9815	0.025886
713.2144	0.026941
713.4474	0.028249
713.6803	0.026814
713.9132	0.030758
714.1462	0.028734
714.3791	0.028923
714.6121	0.028249
714.8451	0.031243
715.0781	0.030547
715.3111	0.030800
715.5441	0.030020
715.7771	0.028839
716.0102	0.027468
716.2432	0.025929
716.4762	0.024916
716.7093	0.023777
716.9424	0.024094
717.1754	0.023862
717.4085	0.023440
717.6416	0.024579
717.8747	0.021858
718.1078	0.024052
718.3410	0.023841
718.5741	0.026372
718.8072	0.024368
719.0404	0.024473
719.2736	0.024452
719.5067	0.024199
719.7399	0.024853
719.9731	0.023588
720.2063	0.023672
720.4395	0.024389
720.6727	0.023145
720.9060	0.027194
721.1392	0.025823
721.3725	0.026709
721.6057	0.025802
721.8390	0.025148
722.0723	0.024431
722.3055	0.024980
722.5388	0.025549
722.7721	0.022407
723.0055	0.023630
723.2388	0.025001
723.4721	0.022934
723.7055	0.023377
723.9388	0.024368
724.1722	0.023503
724.4056	0.023672
724.6389	0.023166
724.8723	0.024031
725.1057	0.023630
725.3391	0.029240
725.5726	0.029598
725.8060	0.029514
726.0394	0.027679
726.2729	0.029155
726.5063	0.027932
726.7398	0.028523
726.9733	0.029704
727.2068	0.027468
727.4403	0.026414
727.6738	0.030463
727.9073	0.029029
728.1408	0.030885
728.3743	0.028797
728.6079	0.029894
728.8414	0.029366
729.0750	0.032087
729.3086	0.029683
729.5421	0.031855
729.7757	0.031243
730.0093	0.034175
730.2429	0.031159
730.4766	0.032045
730.7102	0.033184
730.9438	0.036938
731.1775	0.035925
731.4111	0.037929
731.6448	0.036558
731.8785	0.037001
732.1122	0.035925
732.3458	0.034154
732.5795	0.034069
732.8133	0.034238
733.0470	0.037549
733.2807	0.036073
733.5145	0.036242
733.7482	0.038372
733.9820	0.040207
734.2157	0.044214
734.4495	0.045205
734.6833	0.043075
734.9171	0.040460
735.1509	0.039469
735.3847	0.039047
735.6185	0.041662
735.8524	0.043096
736.0862	0.041599
736.3201	0.038351
736.5539	0.040502
736.7878	0.042506
737.0217	0.041999
737.2556	0.041957
737.4895	0.040586
737.7234	0.039658
737.9573	0.037360
738.1912	0.034976
738.4252	0.034639
738.6591	0.034871
738.8931	0.035166
739.1271	0.035989
739.3610	0.040924
739.5950	0.039722
739.8290	0.040186
740.0630	0.037022
740.2970	0.037739
740.5310	0.034892
740.7651	0.032192
740.9991	0.031475
741.2332	0.033479
741.4672	0.029851
741.7013	0.028713
741.9354	0.031412
742.1695	0.030969
742.4036	0.028038
742.6377	0.031032
742.8718	0.030632
743.1059	0.029050
743.3400	0.026857
743.5742	0.026118
743.8083	0.026498
744.0425	0.025380
744.2767	0.025739
744.5108	0.023419
744.7450	0.026836
744.9792	0.025612
745.2134	0.026688
745.4477	0.025296
745.6819	0.022259
745.9161	0.025085
746.1504	0.026055
746.3846	0.026625
746.6189	0.023588
746.8532	0.023841
747.0874	0.023292
747.3217	0.024895
747.5560	0.025127
747.7903	0.025950
748.0247	0.025317
748.2590	0.026329
748.4933	0.023588
748.7277	0.024726
748.9620	0.025401
749.1964	0.026308
749.4308	0.027299
749.6652	0.029872
749.8995	0.030927
750.1339	0.031201
750.3684	0.035461
750.6028	0.035398
750.8372	0.033669
751.0717	0.034196
751.3061	0.031750
751.5406	0.033795
751.7750	0.035525
752.0095	0.033395
752.2440	0.034133
752.4785	0.033247
752.7130	0.031623
752.9475	0.032171
753.1820	0.028691
753.4166	0.034386
753.6511	0.034365
753.8856	0.037507
754.1202	0.036200
754.3548	0.034723
754.5894	0.034259
754.8239	0.034618
755.0585	0.034217
755.2931	0.035925
755.5278	0.035461
755.7624	0.035757
755.9970	0.037507
756.2317	0.039237
756.4663	0.041810
756.7010	0.043307
756.9356	0.043455
757.1703	0.046154
757.4050	0.049149
757.6397	0.048158
757.8744	0.051616
758.1091	0.049043
758.3438	0.049170
758.5786	0.046133
758.8133	0.045079
759.0481	0.044361
759.2828	0.048558
759.5176	0.048917
759.7524	0.049950
759.9872	0.052587
760.2220	0.053578
760.4568	0.052207
760.6916	0.053599
760.9264	0.053979
761.1613	0.054632
761.3961	0.050520
761.6310	0.050288
761.8658	0.045521
762.1007	0.045627
762.3356	0.042527
762.5705	0.043961
762.8054	0.041451
763.0403	0.041324
763.2752	0.039911
763.5101	0.043096
763.7450	0.041324
763.9800	0.041050
764.2149	0.043876
764.4499	0.047377
764.6849	0.048727
764.9198	0.051701
765.1548	0.051827
765.3898	0.049866
765.6248	0.047272
765.8599	0.043307
766.0949	0.042252
766.3299	0.039237
766.5650	0.036769
766.8000	0.035525
767.0351	0.034133
767.2701	0.032593
767.5052	0.034280
767.7403	0.031918
767.9754	0.035736
768.2105	0.037254
768.4456	0.038688
768.6808	0.040839
768.9159	0.039447
769.1510	0.040860
769.3862	0.040481
769.6214	0.039701
769.8565	0.038182
770.0917	0.039574
770.3269	0.039237
770.5621	0.039300
770.7973	0.038857
771.0325	0.044383
771.2677	0.041472
771.5030	0.039300
771.7382	0.039722
771.9735	0.036664
772.2087	0.035862
772.4440	0.035272
772.6793	0.035293
772.9146	0.036664
773.1499	0.035925
773.3852	0.033289
773.6205	0.033373
773.8558	0.032952
774.0911	0.030315
774.3265	0.030737
774.5618	0.027827
774.7972	0.026730
775.0326	0.025760
775.2679	0.025317
775.5033	0.025760
775.7387	0.025127
775.9741	0.023461
776.2095	0.024073
776.4450	0.023398
776.6804	0.021964
776.9158	0.023672
777.1513	0.021394
777.3868	0.022301
777.6222	0.020846
777.8577	0.021711
778.0932	0.021795
778.3287	0.022428
778.5642	0.024558
778.7997	0.025106
779.0352	0.025275
779.2707	0.026730
779.5063	0.026751
779.7418	0.026899
779.9774	0.027700
780.2130	0.023630
780.4485	0.022554
780.6841	0.023630
780.9197	0.027953
781.1553	0.028523
781.3909	0.030442
781.6265	0.028607
781.8622	0.031792
782.0978	0.031032
782.3335	0.027827
782.5691	0.030273
782.8048	0.030231
783.0405	0.028227
783.2761	0.027806
783.5118	0.028333
783.7475	0.028544
783.9832	0.029240
784.2190	0.027342
784.4547	0.026709
784.6904	0.025233
784.9262	0.024874
785.1619	0.025085
785.3977	0.024958
785.6335	0.022006
785.8692	0.022828
786.1050	0.023693
786.3408	0.024494
786.5766	0.023756
786.8124	0.023039
787.0483	0.023145
787.2841	0.024937
787.5199	0.025317
787.7558	0.025676
787.9917	0.026920
788.2275	0.027025
788.4634	0.023756
788.6993	0.024052
788.9352	0.026055
789.1711	0.026814
789.4070	0.025718
789.6429	0.025064
789.8789	0.022175
790.1148	0.022196
790.3507	0.023250
790.5867	0.021099
790.8227	0.019454
791.0586	0.019095
791.2946	0.018863
791.5306	0.021289
791.7666	0.021479
792.0026	0.020403
792.2387	0.020972
792.4747	0.019960
792.7107	0.019559
792.9468	0.018779
793.1828	0.020972
793.4189	0.018315
793.6550	0.019538
793.8910	0.023229
794.1271	0.024811
794.3632	0.025106
794.5993	0.027995
794.8355	0.027574
795.0716	0.028417
795.3077	0.028502
795.5439	0.026372
795.7800	0.024052
796.0162	0.021921
796.2523	0.021943
796.4885	0.020466
796.7247	0.018716
796.9609	0.020719
797.1971	0.019665
797.4333	0.019074
797.6695	0.020719
797.9058	0.022048
798.1420	0.020530
798.3783	0.021458
798.6145	0.019306
798.8508	0.019327
799.0871	0.021331
799.3233	0.019580
799.5596	0.020108
799.7959	0.017809
800.0322	0.016944
800.2686	0.018020
800.5049	0.017893
800.7412	0.017345
800.9776	0.016797
801.2139	0.016101
801.4503	0.015405
801.6867	0.016016
801.9230	0.014413
802.1594	0.014835
802.3958	0.014730
802.6322	0.012958
802.8686	0.014245
803.1051	0.014751
803.3415	0.015278
803.5779	0.016058
803.8144	0.015257
804.0508	0.015848
804.2873	0.014751
804.5238	0.014561
804.7603	0.013401
804.9968	0.016248
805.2333	0.013633
805.4698	0.014856
805.7063	0.015257
805.9428	0.016480
806.1794	0.018505
806.4159	0.021837
806.6525	0.020972
806.8890	0.021015
807.1256	0.019728
807.3622	0.018800
807.5988	0.021732
807.8354	0.017788
808.0720	0.019602
808.3086	0.018821
808.5452	0.019433
808.7818	0.018463
809.0185	0.020804
809.2551	0.017725
809.4918	0.018041
809.7284	0.017999
809.9651	0.017978
810.2018	0.015700
810.4385	0.015995
810.6752	0.016164
810.9119	0.016923
811.1486	0.016396
811.3853	0.017218
811.6221	0.015362
811.8588	0.014076
812.0956	0.013992
812.3323	0.013401
812.5691	0.012811
812.8059	0.011229
813.0427	0.013717
813.2795	0.013275
813.5163	0.013359
813.7531	0.015215
813.9899	0.016628
814.2267	0.015173
814.4636	0.016269
814.7004	0.016248
814.9373	0.014772
815.1742	0.014245
815.4110	0.014498
815.6479	0.011883
815.8848	0.011819
816.1217	0.011967
816.3586	0.011102
816.5955	0.012853
816.8324	0.012705
817.0694	0.010702
817.3063	0.011271
817.5433	0.013085
817.7802	0.011334
818.0172	0.012389
818.2542	0.011714
818.4912	0.012579
818.7282	0.011861
818.9652	0.010617
819.2022	0.010512
819.4392	0.011081
819.6762	0.011081
819.9133	0.010680
820.1503	0.011187
820.3874	0.011292
820.6244	0.012853
820.8615	0.014371
821.0986	0.014709
821.3357	0.013127
821.5727	0.010343
821.8099	0.012642
822.0470	0.011883
822.2841	0.011904
822.5212	0.010765
822.7584	0.011334
822.9955	0.009963
823.2327	0.010153
823.4698	0.010491
823.7070	0.009373
823.9442	0.009984
824.1814	0.010280
824.4186	0.010575
824.6558	0.008614
824.8930	0.010912
825.1302	0.009731
825.3675	0.010912
825.6047	0.013232
825.8419	0.012663
826.0792	0.011587
826.3165	0.010470
826.5537	0.013064
826.7910	0.009689
827.0283	0.011250
827.2656	0.010575
827.5029	0.012895
827.7402	0.011988
827.9776	0.010912
828.2149	0.010153
828.4522	0.008592
828.6896	0.011988
828.9270	0.011798
829.1643	0.010680
829.4017	0.009752
829.6391	0.011102
829.8765	0.011102
830.1139	0.009921
830.3513	0.010174
830.5887	0.010280
830.8261	0.007960
831.0636	0.008487
831.3010	0.008614
831.5385	0.006568
831.7759	0.008719
832.0134	0.008002
832.2509	0.006378
832.4884	0.007981
832.7259	0.008972
832.9634	0.009078
833.2009	0.007728
833.4384	0.007728
833.6759	0.007770
833.9135	0.007222
834.1510	0.007854
834.3886	0.008508
834.6261	0.009879
834.8637	0.009352
835.1013	0.009478
835.3389	0.009014
835.5765	0.009225
835.8141	0.008993
836.0517	0.009478
836.2893	0.007327
836.5269	0.007433
836.7646	0.006062
837.0022	0.005408
837.2399	0.008445
837.4775	0.006631
837.7152	0.005408
837.9529	0.005134
838.1906	0.007179
838.4283	0.004775
838.6660	0.006441
838.9037	0.005703
839.1414	0.005513
839.3791	0.006251
839.6169	0.006041
839.8546	0.006188
840.0924	0.007496
840.3302	0.008129
840.5679	0.008150
840.8057	0.006399
841.0435	0.005281
841.2813	0.005450
841.5191	0.006336
841.7569	0.005809
841.9947	0.005745
842.2326	0.005366
842.4704	0.004564
842.7082	0.004838
842.9461	0.002687
843.1840	0.005176
843.4218	0.003953
843.6597	0.005577
843.8976	0.005049
844.1355	0.004838
844.3734	0.005724
844.6113	0.004438
844.8492	0.004206
845.0872	0.004079
845.3251	0.005092
845.5631	0.004480
845.8010	0.005830
846.0390	0.004543
846.2770	0.004269
846.5149	0.005577
846.7529	0.003446
846.9909	0.004480
847.2289	0.003531
847.4669	0.004902
847.7050	0.003995
847.9430	0.004438
848.1810	0.004670
848.4191	0.004332
848.6571	0.005724
848.8952	0.005113
849.1333	0.004986
849.3713	0.005450
849.6094	0.005872
849.8475	0.004860
850.0856	0.003531
850.3237	0.004965
850.5619	0.004712
850.8000	0.004016
851.0381	0.004501
851.2763	0.004923
851.5144	0.003721
851.7526	0.005218
851.9908	0.004332
852.2289	0.004754
852.4671	0.005281
852.7053	0.007580
852.9435	0.008002
853.1817	0.009963
853.4200	0.012093
853.6582	0.012283
853.8964	0.012072
854.1347	0.011524
854.3729	0.011840
854.6112	0.013443
854.8495	0.012389
855.0877	0.009499
855.3260	0.011187
855.5643	0.010891
855.8026	0.010617
856.0409	0.011229
856.2792	0.010596
856.5176	0.010786
856.7559	0.010617
856.9942	0.011503
857.2326	0.010364
857.4710	0.009373
857.7093	0.009542
857.9477	0.009246
858.1861	0.008846
858.4245	0.009352
858.6629	0.008466
858.9013	0.008044
859.1397	0.008171
859.3781	0.010048
859.6166	0.007053
859.8550	0.007264
860.0935	0.005619
860.3319	0.007243
860.5704	0.004733
860.8089	0.007095
861.0473	0.005070
861.2858	0.005809
861.5243	0.005682
861.7628	0.007074
862.0013	0.005577
862.2399	0.005640
862.4784	0.005766
862.7169	0.005830
862.9555	0.005998
863.1940	0.005956
863.4326	0.006884
863.6712	0.007032
863.9098	0.005387
864.1483	0.005366
864.3869	0.006230
864.6255	0.005408
864.8642	0.004353
865.1028	0.005893
865.3414	0.004944
865.5800	0.003974
865.8187	0.005113
866.0573	0.004374
866.2960	0.004185
866.5347	0.004290
866.7733	0.004353
867.0120	0.006125
867.2507	0.004522
867.4894	0.004733
867.7281	0.004480
867.9669	0.004100
868.2056	0.005197
868.4443	0.005049
868.6831	0.006083
868.9218	0.004775
869.1606	0.004944
869.3993	0.005366
869.6381	0.004142
869.8769	0.003341
870.1157	0.004100
870.3545	0.004079
870.5933	0.003404
870.8321	0.005809
871.0709	0.004606
871.3097	0.005113
871.5486	0.005134
871.7874	0.004965
872.0263	0.005007
872.2651	0.004396
872.5040	0.004206
872.7429	0.005724
872.9818	0.003805
873.2207	0.005387
873.4596	0.003932
873.6985	0.004712
873.9374	0.005113
874.1763	0.004480
874.4153	0.004037
874.6542	0.004965
874.8932	0.004902
875.1321	0.004923
875.3711	0.004817
875.6101	0.006019
875.8491	0.005176
876.0880	0.004691
876.3270	0.004860
876.5661	0.003763
876.8051	0.006610
877.0441	0.005345
877.2831	0.005640
877.5222	0.004585
877.7612	0.003489
878.0003	0.004564
878.2393	0.006905
878.4784	0.005345
878.7175	0.006884
878.9566	0.005745
879.1957	0.006420
879.4348	0.004838
879.6739	0.008487
879.9130	0.006315
880.1521	0.007981
880.3913	0.006441
880.6304	0.007918
880.8696	0.007433
881.1087	0.008023
881.3479	0.006462
881.5871	0.007285
881.8262	0.005556
882.0654	0.005619
882.3046	0.005492
882.5438	0.005998
882.7831	0.005134
883.0223	0.007622
883.2615	0.004754
883.5007	0.006357
883.7400	0.006273
883.9792	0.004564
884.2185	0.005787
884.4578	0.006125
884.6971	0.005492
884.9363	0.005577
885.1756	0.005598
885.4149	0.005049
885.6542	0.006842
885.8936	0.007201
886.1329	0.004522
886.3722	0.006336
886.6116	0.005893
886.8509	0.004923
887.0903	0.005471
887.3296	0.006357
887.5690	0.005387
887.8084	0.004142
888.0478	0.005070
888.2872	0.006800
888.5266	0.005450
888.7660	0.005956
889.0054	0.003383
889.2448	0.004037
889.4843	0.004606
889.7237	0.004522
889.9632	0.003805
890.2026	0.003594
890.4421	0.003552
890.6816	0.004079
890.9211	0.004164
891.1606	0.004649
891.4001	0.005640
891.6396	0.004817
891.8791	0.005345
892.1186	0.004227
892.3581	0.004164
892.5977	0.004881
892.8372	0.003678
893.0768	0.003805
893.3163	0.004838
893.5559	0.003721
893.7955	0.004079
894.0351	0.004037
894.2747	0.004396
894.5143	0.002540
894.7539	0.004817
894.9935	0.003974
895.2331	0.003594
895.4727	0.004543
895.7124	0.003088
895.9520	0.004881
896.1917	0.003151
896.4314	0.004986
896.6710	0.004227
896.9107	0.003910
897.1504	0.004902
897.3901	0.005324
897.6298	0.004164
897.8695	0.003088
898.1092	0.003678
898.3489	0.004058
898.5887	0.004733
898.8284	0.004649
899.0682	0.004164
899.3079	0.004206
899.5477	0.003067
899.7875	0.004480
900.0272	0.004121
900.2670	0.004628
900.5068	0.003721
900.7466	0.005134
900.9864	0.003130
901.2263	0.003826
901.4661	0.002940
901.7059	0.005872
901.9458	0.005809
902.1856	0.004775
902.4255	0.004185
902.6654	0.004374
902.9052	0.003763
903.1451	0.004965
903.3850	0.003889
903.6249	0.005598
903.8648	0.004649
904.1047	0.005492
904.3446	0.003868
904.5846	0.005281
904.8245	0.003615
905.0644	0.004374
905.3044	0.004438
905.5444	0.003067
905.7843	0.005092
906.0243	0.006188
906.2643	0.003109
906.5043	0.004965
906.7443	0.004206
906.9843	0.003615
907.2243	0.004058
907.4643	0.003236
907.7043	0.005028
907.9444	0.003889
908.1844	0.004142
908.4245	0.004248
908.6645	0.004121
908.9046	0.003721
909.1447	0.002940
909.3847	0.003172
909.6248	0.003594
909.8649	0.003151
910.1050	0.002582
910.3452	0.002751
910.5853	0.002666
910.8254	0.002983
911.0655	0.003678
911.3057	0.003130
911.5458	0.003932
911.7860	0.003425
912.0262	0.003404
912.2663	0.003636
912.5065	0.003257
912.7467	0.004142
912.9869	0.004227
913.2271	0.002898
913.4673	0.003214
913.7075	0.003446
913.9478	0.003636
914.1880	0.004037
914.4283	0.002350
914.6685	0.002793
914.9088	0.002455
915.1490	0.004290
915.3893	0.003594
915.6296	0.002793
915.8699	0.003868
916.1102	0.003552
916.3505	0.002308
916.5908	0.003067
916.8311	0.003362
917.0714	0.004396
917.3118	0.003320
917.5521	0.005092
917.7925	0.004374
918.0328	0.003636
918.2732	0.004058
918.5136	0.004860
918.7539	0.004881
918.9943	0.005345
919.2347	0.002434
919.4751	0.003910
919.7155	0.003805
919.9560	0.004564
920.1964	0.004396
920.4368	0.002223
920.6773	0.002793
920.9177	0.003636
921.1582	0.002877
921.3986	0.001654
921.6391	0.002835
921.8796	0.003700
922.1201	0.003700
922.3606	0.003763
922.6011	0.004606
922.8416	0.002729
923.0821	0.003510
923.3226	0.003130
923.5631	0.003383
923.8037	0.003889
924.0442	0.003868
924.2848	0.004396
924.5254	0.002793
924.7659	0.001970
925.0065	0.002729
925.2471	0.002835
925.4877	0.003214
925.7283	0.002582
925.9689	0.000599
926.2095	0.002371
926.4501	0.001569
926.6908	0.001865
926.9314	0.001844
927.1720	0.001654
927.4127	0.002434
927.6533	0.003552
927.8940	0.001316
928.1347	0.002582
928.3754	0.002814
928.6161	0.003721
928.8568	0.003383
929.0975	0.004185
929.3382	0.002118
929.5789	0.002202
929.8196	0.002814
930.0604	0.002118
930.3011	0.001907
930.5419	0.002561
930.7826	0.002118
931.0234	0.002856
931.2642	0.002371
931.5049	0.001253
931.7457	0.002244
931.9865	0.003214
932.2273	0.001696
932.4681	0.001675
932.7089	0.002919
932.9498	0.003172
933.1906	0.002350
933.4314	0.002076
933.6723	0.003046
933.9131	0.002308
934.1540	0.001717
934.3949	0.002076
934.6358	0.001633
934.8766	0.002413
935.1175	0.002540
935.3584	0.001717
935.5993	0.001464
935.8403	0.001970
936.0812	0.002097
936.3221	0.001886
936.5630	0.001780
936.8040	0.001928
937.0449	0.001844
937.2859	0.002624
937.5269	0.000557
937.7678	0.000557
938.0088	0.001823
938.2498	0.002392
938.4908	0.000873
938.7318	0.001105
938.9728	0.002645
939.2138	0.001401
939.4549	0.002434
939.6959	0.000768
939.9369	0.001527
940.1780	0.000452
940.4190	0.001063
940.6601	0.002202
940.9012	0.002097
941.1422	0.000873
941.3833	0.002582
941.6244	0.001211
941.8655	0.002118
942.1066	0.002076
942.3477	0.001464
942.5889	0.000810
942.8300	0.001717
943.0711	0.001274
943.3123	0.001633
943.5534	0.001527
943.7946	0.000916
944.0357	0.001696
944.2769	0.000852
944.5181	0.002287
944.7593	0.002603
945.0005	0.000557
945.2417	0.002076
945.4829	0.000937
945.7241	0.002223
945.9653	0.001169
946.2066	0.001717
946.4478	0.000515
946.6891	0.001738
946.9303	0.000620
947.1716	0.001232
947.4128	0.002476
947.6541	0.001127
947.8954	0.001591
948.1367	0.002898
948.3780	0.001738
948.6193	0.000937
948.8606	-0.000244
949.1019	0.000916
949.3433	0.001738
949.5846	0.001844
949.8259	0.001042
950.0673	0.001295
950.3086	0.002350
950.5500	0.001612
950.7914	0.001148
951.0327	0.001949
951.2741	0.002793
951.5155	0.001443
951.7569	0.001991
951.9983	0.001612
952.2398	0.002856
952.4812	0.002877
952.7226	0.001295
952.9640	0.002012
953.2055	0.001675
953.4469	0.002287
953.6884	0.001696
953.9299	0.002076
954.1713	0.000895
954.4128	0.002708
954.6543	0.000768
954.8958	0.000093
955.1373	0.001063
955.3788	0.001612
955.6203	0.002729
955.8618	0.000979
956.1034	0.001548
956.3449	0.002118
956.5865	0.001169
956.8280	0.000663
957.0696	0.001696
957.3111	0.003214
957.5527	0.001928
957.7943	0.001928
958.0359	0.001337
958.2775	0.001021
958.5191	0.001506
958.7607	0.001274
959.0023	0.000072
959.2439	0.001021
959.4856	0.000789
959.7272	-0.000603
959.9688	0.001844
960.2105	0.002033
960.4522	0.002033
960.6938	0.000410
960.9355	0.001148
961.1772	0.001000
961.4189	0.000895
961.6606	0.000747
961.9023	0.000241
962.1440	0.001000
962.3857	0.001443
962.6274	0.000726
962.8692	0.001021
963.1109	0.000620
963.3527	0.000367
963.5944	0.000937
963.8362	-0.000097
964.0779	0.001253
964.3197	0.003109
964.5615	0.000895
964.8033	0.001865
965.0451	0.001991
965.2869	-0.000139
965.5287	0.001844
965.7705	0.001401
966.0123	0.001738
966.2542	0.000979
966.4960	0.001485
966.7379	0.002666
966.9797	0.001042
967.2216	0.001633
967.4634	0.000979
967.7053	0.000093
967.9472	0.002181
968.1891	0.000599
968.4310	0.001253
968.6729	0.000578
968.9148	-0.000118
969.1567	0.001591
969.3987	0.001907
969.6406	0.001443
969.8825	0.002329
970.1245	0.002413
970.3664	0.000726
970.6084	0.001359
970.8504	-0.000160
971.0923	0.001274
971.3343	0.001422
971.5763	0.000283
971.8183	0.002497
972.0603	0.000852
972.3023	0.000114
972.5443	0.001042
972.7864	0.000958
973.0284	0.000810
973.2704	0.001485
973.5125	0.001569
973.7545	0.001675
973.9966	0.002055
974.2387	0.001907
974.4807	-0.000982
974.7228	0.000768
974.9649	0.000241
975.2070	0.001105
975.4491	0.000557
975.6912	0.000684
975.9333	-0.000286
976.1755	0.001865
976.4176	0.000262
976.6597	0.001759
976.9019	0.000515
977.1440	0.001591
977.3862	0.000937
977.6283	0.000916
977.8705	0.000009
978.1127	0.001000
978.3549	0.001401
978.5971	0.001253
978.8393	0.000852
979.0815	0.000367
979.3237	0.001380
979.5659	0.000747
979.8082	0.001127
980.0504	0.001380
980.2926	0.000388
980.5349	-0.000033
980.7771	-0.000097
981.0194	0.000747
981.2617	-0.000476
981.5040	-0.000371
981.7462	0.000051
981.9885	0.000747
982.2308	0.000009
982.4731	0.000452
982.7155	0.000958
982.9578	0.002940
983.2001	0.001759
983.4424	0.002097
983.6848	-0.001109
983.9271	0.000895
984.1695	0.000220
984.4118	0.001105
984.6542	0.000431
984.8966	0.000156
985.1390	0.000895
985.3814	0.000262
985.6238	0.001337
985.8662	0.000452
986.1086	0.000304
986.3510	0.001401
986.5934	0.000895
986.8358	0.000494
987.0783	-0.000371
987.3207	0.000346
987.5632	0.000494
987.8056	0.000684
988.0481	-0.000624
988.2906	0.000135
988.5331	0.000410
988.7756	0.001169
989.0180	0.000156
989.2605	0.001527
989.5031	0.000093
989.7456	0.001949
989.9881	-0.000476
990.2306	-0.001025
990.4732	0.000009
990.7157	0.001169
990.9582	0.001148
991.2008	0.000831
991.4434	0.001612
991.6859	0.001021
991.9285	-0.001025
992.1711	0.000916
992.4137	0.001105
992.6563	0.000768
992.8989	-0.000223
993.1415	0.000747
993.3841	-0.000244
993.6267	0.000515
993.8694	0.000051
994.1120	0.001021
994.3547	0.000346
994.5973	-0.000518
994.8400	0.000093
995.0826	0.000325
995.3253	-0.000434
995.5680	0.000262
995.8107	0.000768
996.0534	-0.000750
996.2961	0.001401
996.5388	0.001801
996.7815	-0.000540
997.0242	0.000747
997.2670	-0.000265
997.5097	0.001000
997.7524	-0.000308
997.9952	0.000220
998.2379	0.000346
998.4807	0.000747
998.7235	0.001063
998.9662	0.001295
999.2090	0.000220
999.4518	0.000135
999.6946	-0.000856
999.9374	0.000410
1000.1802	0.000093
1000.4230	0.000072
1000.6659	-0.000202
1000.9087	0.001063
1001.1515	0.001084
1001.3944	0.000937
1001.6372	0.000304
1001.8801	0.000241
1002.1230	0.001485
1002.3658	0.001105
1002.6087	0.001021
1002.8516	0.001063
1003.0945	0.001485
1003.3374	-0.000603
1003.5803	0.000262
1003.8232	0.000093
1004.0661	0.000262
1004.3091	-0.001910
1004.5520	0.001527
1004.7949	0.000410
1005.0379	0.000494
1005.2808	0.000747
1005.5238	0.000810
1005.7667	0.000599
1006.0097	0.001612
1006.2527	0.000452
1006.4957	0.000515
1006.7387	0.000958
1006.9817	0.001211
1007.2247	0.000304
1007.4677	0.002055
1007.7107	0.000937
1007.9538	0.001148
1008.1968	0.001105
1008.4398	0.000262
1008.6829	0.000051
1008.9259	0.001148
1009.1690	0.000072
1009.4121	0.001063
1009.6551	0.001042
1009.8982	0.000916
1010.1413	0.000093
1010.3844	0.000726
1010.6275	0.000262
1010.8706	0.001084
1011.1137	-0.000097
1011.3568	-0.000223
1011.6000	0.001949
1011.8431	-0.000708
1012.0863	0.000388
1012.3294	-0.000329
1012.5726	-0.000350
1012.8157	0.001316
1013.0589	0.001042
1013.3021	0.001169
1013.5452	0.000093
1013.7884	0.001970
1014.0316	0.000473
1014.2748	0.000410
1014.5180	-0.000244
1014.7613	0.001569
1015.0045	0.000346
1015.2477	0.001844
1015.4909	-0.000497
1015.7342	0.001991
1015.9774	-0.001004
1016.2207	0.001337
1016.4640	0.000304
1016.7072	0.002033
1016.9505	-0.000097
1017.1938	0.002413
1017.4371	0.002645
1017.6804	0.000346
1017.9237	-0.000455
1018.1670	-0.000329
1018.4103	0.001084
1018.6536	0.000452
1018.8969	-0.000265
1019.1403	0.001316
1019.3836	0.000494
1019.6270	0.001000
1019.8703	0.000262
1020.1137	0.000726
1020.3571	-0.000202
1020.6004	0.000895
1020.8438	0.000093
1021.0872	0.000599
1021.3306	0.001105
1021.5740	0.001506
1021.8174	0.000431
1022.0608	0.000726
1022.3042	-0.000097
1022.5477	0.001991
1022.7911	0.000199
1023.0345	0.000578
