# Wavelength (nm)	Intensity (a.u.)
197.7802	-0.000677
197.9842	-0.000614
198.1882	-0.000255
198.3922	0.000695
198.5963	0.000484
198.8003	-0.000149
199.0044	-0.000065
199.2085	-0.000529
199.4126	0.000758
199.6168	-0.000867
199.8209	-0.001563
200.0251	-0.000635
200.2292	-0.001099
200.4334	0.000230
200.6376	-0.001120
200.8418	-0.001162
201.0461	0.000378
201.2503	-0.001922
201.4546	-0.000445
201.6589	-0.000023
201.8631	0.000673
202.0674	-0.001985
202.2718	0.000420
202.4761	0.000547
202.6805	-0.000171
202.8848	-0.001352
203.0892	-0.000761
203.2936	-0.000508
203.4980	0.001349
203.7024	0.000505
203.9069	0.000273
204.1113	0.000357
204.3158	0.000315
204.5203	-0.000740
204.7248	0.000505
204.9293	-0.001078
205.1338	-0.000192
205.3384	-0.000571
205.5430	0.000209
205.7475	-0.001458
205.9521	-0.000508
206.1567	-0.000529
206.3614	0.000484
206.5660	-0.001247
206.7706	0.000695
206.9753	0.000273
207.1800	-0.000382
207.3847	-0.000635
207.5894	0.000821
207.7941	-0.000023
207.9989	0.001159
208.2036	-0.000466
208.4084	0.000294
208.6132	-0.000318
208.8180	0.000927
209.0228	-0.000466
209.2276	-0.000044
209.4325	-0.000698
209.6373	-0.000002
209.8422	0.000209
210.0471	-0.000065
210.2520	-0.000614
210.4569	0.000019
210.6618	0.001053
210.8668	0.001222
211.0718	-0.001141
211.2767	-0.000213
211.4817	0.000673
211.6867	0.000568
211.8918	0.000104
212.0968	0.000040
212.3018	-0.001352
212.5069	0.000273
212.7120	0.000695
212.9171	0.000399
213.1222	-0.001141
213.3273	0.000716
213.5325	-0.000297
213.7376	-0.000128
213.9428	-0.000318
214.1480	-0.000445
214.3532	-0.001099
214.5584	-0.000002
214.7636	-0.000782
214.9689	0.000083
215.1741	0.000357
215.3794	-0.001373
215.5847	-0.000107
215.7900	0.001391
215.9953	0.000441
216.2007	0.000758
216.4060	-0.000656
216.6114	0.000505
216.8168	-0.000972
217.0222	-0.000635
217.2276	0.000758
217.4330	0.001032
217.6384	-0.000339
217.8439	-0.000213
218.0494	-0.000424
218.2548	-0.000276
218.4603	0.000040
218.6659	0.000505
218.8714	-0.000593
219.0769	0.000336
219.2825	0.000420
219.4881	0.000146
219.6936	0.000420
219.8992	-0.000171
220.1049	0.000927
220.3105	0.000441
220.5161	0.000990
220.7218	-0.000339
220.9275	0.000209
221.1332	-0.000318
221.3389	-0.002386
221.5446	-0.000529
221.7503	-0.000403
221.9561	0.000167
222.1618	-0.000445
222.3676	0.000906
222.5734	0.000821
222.7792	0.000631
222.9850	-0.000445
223.1909	0.000062
223.3967	-0.000234
223.6026	0.000146
223.8085	-0.000276
224.0144	-0.000677
224.2203	-0.000825
224.4262	-0.000529
224.6322	-0.001141
224.8381	0.001243
225.0441	0.000230
225.2501	0.000631
225.4561	-0.000213
225.6621	0.000673
225.8681	-0.001521
226.0742	0.000125
226.2802	-0.000044
226.4863	0.000019
226.6924	-0.000149
226.8985	-0.001310
227.1046	-0.000276
227.3107	-0.000930
227.5169	-0.001437
227.7230	-0.000698
227.9292	0.000484
228.1354	-0.000761
228.3416	-0.000761
228.5478	-0.000086
228.7541	0.000969
228.9603	-0.001120
229.1666	-0.000635
229.3729	0.001327
229.5791	-0.000740
229.7855	-0.000297
229.9918	-0.000339
230.1981	0.000209
230.4045	0.000167
230.6108	0.000568
230.8172	-0.000171
231.0236	-0.000107
231.2300	0.000230
231.4364	-0.000107
231.6429	0.000884
231.8493	0.000526
232.0558	-0.000297
232.2623	0.000083
232.4688	-0.000888
232.6753	-0.000804
232.8818	-0.000550
233.0884	0.001117
233.2949	0.001159
233.5015	-0.001057
233.7081	0.000990
233.9147	-0.000234
234.1213	-0.000297
234.3279	-0.000171
234.5346	-0.000614
234.7413	-0.000065
234.9479	-0.001669
235.1546	-0.000382
235.3613	0.000505
235.5680	0.000062
235.7748	-0.000339
235.9815	0.000568
236.1883	-0.000571
236.3951	0.000125
236.6018	0.000547
236.8087	0.000420
237.0155	0.000209
237.2223	-0.001204
237.4292	-0.001226
237.6360	0.000821
237.8429	-0.000804
238.0498	-0.000171
238.2567	0.000357
238.4636	0.001095
238.6706	-0.000424
238.8775	-0.000128
239.0845	0.001285
239.2915	-0.000339
239.4985	-0.000382
239.7055	-0.000255
239.9125	-0.000782
240.1195	0.000441
240.3266	0.000779
240.5337	-0.000445
240.7407	-0.000508
240.9478	-0.000782
241.1549	-0.000297
241.3621	0.000526
241.5692	-0.000149
241.7764	0.000083
241.9835	-0.000002
242.1907	0.000336
242.3979	0.000758
242.6051	-0.000107
242.8124	-0.000360
243.0196	-0.001268
243.2269	0.000146
243.4341	-0.000888
243.6414	0.000420
243.8487	0.001138
244.0560	-0.000993
244.2634	0.000568
244.4707	0.000167
244.6781	-0.000888
244.8854	0.000125
245.0928	0.000462
245.3002	-0.000529
245.5076	-0.000086
245.7151	-0.000339
245.9225	-0.000719
246.1300	-0.000128
246.3375	0.000505
246.5449	-0.000635
246.7524	-0.000276
246.9600	-0.002259
247.1675	-0.001057
247.3750	0.000399
247.5826	-0.001099
247.7902	0.000842
247.9978	0.000526
248.2054	-0.000171
248.4130	0.000146
248.6206	0.000420
248.8283	-0.000149
249.0359	0.001496
249.2436	-0.000276
249.4513	-0.000677
249.6590	0.000146
249.8667	0.000737
250.0745	0.000357
250.2822	0.000906
250.4900	0.001391
250.6978	-0.001120
250.9056	0.000631
251.1134	-0.000593
251.3212	-0.000719
251.5290	-0.001331
251.7369	-0.000677
251.9447	0.000188
252.1526	0.000652
252.3605	-0.000677
252.5684	-0.000888
252.7763	0.000716
252.9843	0.000462
253.1922	-0.001584
253.4002	0.000315
253.6082	-0.000339
253.8162	0.000209
254.0242	0.000652
254.2322	0.000336
254.4402	0.000209
254.6483	-0.000635
254.8564	-0.000276
255.0644	0.001222
255.2725	-0.001268
255.4806	0.000251
255.6888	-0.000593
255.8969	-0.000276
256.1051	-0.000550
256.3132	0.001222
256.5214	-0.000171
256.7296	0.000589
256.9378	0.000125
257.1460	0.001834
257.3543	0.000125
257.5625	-0.001289
257.7708	-0.000719
257.9791	0.000927
258.1874	0.000505
258.3957	-0.001415
258.6040	0.000273
258.8124	-0.001078
259.0207	-0.001331
259.2291	-0.000149
259.4375	-0.000339
259.6459	-0.000192
259.8543	-0.000255
260.0627	-0.000424
260.2711	-0.000171
260.4796	0.000568
260.6881	0.000863
260.8965	0.000568
261.1050	-0.001204
261.3135	-0.000086
261.5221	-0.000065
261.7306	0.000230
261.9392	0.000062
262.1477	0.000779
262.3563	-0.000867
262.5649	0.000673
262.7735	-0.000339
262.9822	-0.001289
263.1908	0.000209
263.3995	0.000716
263.6081	-0.000360
263.8168	0.000547
264.0255	0.000863
264.2342	0.000758
264.4429	-0.001036
264.6517	0.000589
264.8604	-0.000255
265.0692	-0.000804
265.2780	0.000251
265.4868	-0.001204
265.6956	-0.000192
265.9044	0.000737
266.1133	-0.000614
266.3221	0.000631
266.5310	-0.000107
266.7399	0.001138
266.9488	-0.000677
267.1577	-0.000234
267.3666	0.000125
267.5755	0.001538
267.7845	0.001117
267.9935	-0.000128
268.2024	-0.000424
268.4114	0.000209
268.6205	-0.000255
268.8295	-0.000804
269.0385	-0.001036
269.2476	0.000884
269.4566	-0.001310
269.6657	-0.000339
269.8748	-0.000023
270.0839	-0.001036
270.2931	-0.002048
270.5022	0.000673
270.7114	0.000399
270.9205	0.000230
271.1297	-0.001964
271.3389	0.000547
271.5481	-0.000972
271.7573	0.000758
271.9666	0.000062
272.1758	0.000040
272.3851	-0.000698
272.5944	0.000568
272.8037	-0.000930
273.0130	-0.000171
273.2223	0.000737
273.4316	0.000547
273.6410	-0.001099
273.8504	0.000906
274.0597	-0.000761
274.2691	-0.001331
274.4785	-0.000445
274.6880	-0.000171
274.8974	0.000209
275.1069	-0.000529
275.3163	-0.000804
275.5258	0.001243
275.7353	-0.000550
275.9448	0.000505
276.1543	-0.000740
276.3639	0.000758
276.5734	-0.000951
276.7830	0.000779
276.9926	-0.000487
277.2022	0.001665
277.4118	0.000378
277.6214	-0.000297
277.8310	-0.001015
278.0407	-0.000297
278.2503	-0.000318
278.4600	0.000294
278.6697	-0.000297
278.8794	-0.000297
279.0891	0.000652
279.2989	0.000230
279.5086	-0.000276
279.7184	0.001074
279.9281	0.000906
280.1379	-0.000403
280.3477	-0.001415
280.5576	0.000357
280.7674	-0.001415
280.9772	0.001201
281.1871	-0.000023
281.3970	0.000462
281.6069	-0.000466
281.8168	0.000737
282.0267	-0.000508
282.2366	0.000842
282.4466	0.000568
282.6565	0.000125
282.8665	-0.000571
283.0765	0.000526
283.2865	-0.000445
283.4965	-0.000065
283.7065	0.000800
283.9166	0.000378
284.1266	-0.000614
284.3367	-0.000382
284.5468	-0.000677
284.7569	0.000906
284.9670	0.000294
285.1771	0.000273
285.3873	-0.000951
285.5974	-0.000149
285.8076	0.000906
286.0178	0.000146
286.2280	-0.000255
286.4382	0.000969
286.6484	-0.000213
286.8587	-0.000761
287.0689	-0.000107
287.2792	0.000568
287.4895	0.000990
287.6998	-0.000782
287.9101	-0.000403
288.1204	-0.000614
288.3308	-0.001099
288.5411	-0.000571
288.7515	-0.000698
288.9619	0.000842
289.1723	0.000125
289.3827	-0.000360
289.5931	-0.000065
289.8035	-0.000149
290.0140	-0.000508
290.2245	0.000716
290.4349	-0.001415
290.6454	-0.000698
290.8559	-0.000571
291.0665	-0.000656
291.2770	-0.001542
291.4875	-0.000804
291.6981	0.000652
291.9087	-0.000804
292.1193	0.000336
292.3299	0.000990
292.5405	-0.000234
292.7511	-0.000149
292.9618	-0.000951
293.1724	0.000821
293.3831	-0.000993
293.5938	0.001749
293.8045	-0.001268
294.0152	0.000399
294.2260	-0.000128
294.4367	0.000800
294.6475	-0.001120
294.8582	0.000062
295.0690	0.000294
295.2798	0.000484
295.4906	0.000146
295.7015	0.001897
295.9123	-0.001268
296.1232	-0.000086
296.3340	-0.000951
296.5449	0.000125
296.7558	-0.000571
296.9667	0.000610
297.1777	0.000357
297.3886	0.000589
297.5995	0.000062
297.8105	0.000125
298.0215	0.000273
298.2325	0.001032
298.4435	-0.000825
298.6545	0.000167
298.8656	0.000040
299.0766	0.000484
299.2877	-0.000424
299.4988	0.000652
299.7099	-0.000846
299.9210	0.000315
300.1321	0.000906
300.3432	0.001349
300.5544	0.000547
300.7655	-0.001226
300.9767	-0.000318
301.1879	-0.000719
301.3991	-0.000023
301.6103	-0.000149
301.8215	0.000251
302.0328	0.000927
302.2441	0.000673
302.4553	0.000652
302.6666	0.001032
302.8779	-0.000593
303.0892	0.000441
303.3006	0.000399
303.5119	-0.000276
303.7233	0.000526
303.9346	-0.000550
304.1460	-0.000234
304.3574	-0.001226
304.5688	0.000800
304.7803	-0.000909
304.9917	0.000547
305.2031	-0.000614
305.4146	0.001728
305.6261	0.000019
305.8376	0.000336
306.0491	0.000695
306.2606	-0.000086
306.4722	-0.000171
306.6837	0.000399
306.8953	-0.000297
307.1069	-0.000888
307.3184	0.001475
307.5301	-0.000234
307.7417	-0.000297
307.9533	0.000420
308.1650	-0.001162
308.3766	0.000125
308.5883	0.000673
308.8000	-0.000360
309.0117	-0.000065
309.2234	0.001412
309.4351	-0.000044
309.6469	0.001138
309.8586	0.000589
310.0704	-0.000297
310.2822	0.000146
310.4940	0.000336
310.7058	-0.000993
310.9176	0.000695
311.1295	-0.000993
311.3413	-0.000107
311.5532	0.000167
311.7651	0.000441
311.9770	0.000948
312.1889	-0.000635
312.4008	0.000040
312.6127	0.000125
312.8247	-0.001015
313.0366	-0.000487
313.2486	-0.000192
313.4606	0.000568
313.6726	-0.000614
313.8846	0.000568
314.0967	0.000884
314.3087	0.000251
314.5208	-0.000107
314.7328	-0.000318
314.9449	0.000251
315.1570	0.000019
315.3692	0.000251
315.5813	0.001391
315.7934	-0.000698
316.0056	0.000209
316.2177	-0.001331
316.4299	-0.000867
316.6421	-0.001015
316.8543	0.001349
317.0666	-0.000171
317.2788	-0.000297
317.4911	-0.000023
317.7033	0.000842
317.9156	-0.001563
318.1279	-0.000382
318.3402	0.000737
318.5525	-0.000972
318.7649	-0.001669
318.9772	-0.000149
319.1896	0.000315
319.4019	0.000484
319.6143	-0.001141
319.8267	0.000990
320.0392	-0.000466
320.2516	0.000315
320.4640	0.000125
320.6765	-0.000424
320.8890	-0.000192
321.1014	-0.000044
321.3139	0.001095
321.5265	0.001095
321.7390	-0.000339
321.9515	-0.000445
322.1641	0.000800
322.3766	0.000547
322.5892	-0.000508
322.8018	-0.000339
323.0144	0.000146
323.2270	0.001117
323.4397	0.000188
323.6523	0.000083
323.8650	-0.000318
324.0777	-0.000782
324.2904	0.000230
324.5031	-0.001479
324.7158	-0.001437
324.9285	0.001560
325.1412	0.000125
325.3540	0.001053
325.5668	-0.000635
325.7796	0.000821
325.9924	-0.001226
326.2052	-0.000614
326.4180	-0.000086
326.6308	0.000315
326.8437	-0.000171
327.0566	0.001327
327.2694	-0.000149
327.4823	-0.000635
327.6952	0.000716
327.9082	0.001327
328.1211	0.001855
328.3340	-0.000656
328.5470	0.000125
328.7600	-0.001732
328.9730	-0.000044
329.1860	0.001602
329.3990	-0.000571
329.6120	0.000167
329.8251	-0.000192
330.0381	0.000399
330.2512	-0.000255
330.4643	0.000188
330.6774	-0.000656
330.8905	0.000125
331.1036	0.000336
331.3167	-0.000761
331.5299	-0.000002
331.7431	0.000167
331.9562	0.001095
332.1694	0.000357
332.3826	0.000167
332.5959	0.000990
332.8091	0.000209
333.0223	0.000758
333.2356	0.000716
333.4489	-0.001162
333.6622	-0.001373
333.8755	-0.000171
334.0888	-0.000360
334.3021	0.000610
334.5154	-0.000403
334.7288	0.000251
334.9422	0.000547
335.1555	0.000800
335.3689	-0.000635
335.5823	0.001665
335.7958	-0.000487
336.0092	0.000294
336.2227	-0.000149
336.4361	-0.000255
336.6496	0.001349
336.8631	0.000716
337.0766	0.001454
337.2901	-0.000508
337.5036	0.000842
337.7172	0.000758
337.9307	-0.002006
338.1443	0.000378
338.3579	-0.001437
338.5715	-0.000086
338.7851	-0.001690
338.9987	0.001011
339.2124	0.000652
339.4260	0.000695
339.6397	0.000294
339.8533	-0.000487
340.0670	0.000631
340.2807	0.000505
340.4945	0.000167
340.7082	-0.000867
340.9219	-0.000360
341.1357	0.000695
341.3495	-0.000635
341.5633	0.001560
341.7771	-0.000339
341.9909	-0.000761
342.2047	-0.000424
342.4185	0.000188
342.6324	-0.000149
342.8463	-0.000445
343.0601	0.000399
343.2740	0.000019
343.4879	0.000399
343.7019	-0.000424
343.9158	-0.000382
344.1297	0.000884
344.3437	0.000167
344.5577	-0.000171
344.7717	-0.000192
344.9857	0.000040
345.1997	-0.000993
345.4137	0.000547
345.6277	-0.001985
345.8418	0.000315
346.0559	0.000251
346.2699	0.000863
346.4840	-0.000445
346.6981	0.000399
346.9123	0.000484
347.1264	0.001475
347.3406	-0.000192
347.5547	-0.000339
347.7689	0.000146
347.9831	0.000779
348.1973	-0.000677
348.4115	0.000315
348.6257	-0.000487
348.8400	-0.000382
349.0542	0.001053
349.2685	0.000589
349.4828	0.001517
349.6971	0.001159
349.9114	-0.000128
350.1257	0.000484
350.3400	0.001095
350.5544	-0.001542
350.7687	-0.002259
350.9831	0.000294
351.1975	-0.000107
351.4119	0.000927
351.6263	-0.000403
351.8407	0.000273
352.0552	-0.000339
352.2696	-0.000339
352.4841	0.000146
352.6986	0.000294
352.9131	-0.000360
353.1276	0.000420
353.3421	-0.000993
353.5566	0.000779
353.7712	0.000505
353.9858	0.000209
354.2003	-0.000403
354.4149	-0.000424
354.6295	-0.000044
354.8441	0.000399
355.0588	0.000167
355.2734	0.000146
355.4881	-0.000382
355.7027	-0.000656
355.9174	0.000631
356.1321	-0.000318
356.3468	-0.001226
356.5615	0.001285
356.7763	-0.001120
356.9910	0.001707
357.2058	-0.001373
357.4206	0.000779
357.6353	0.000209
357.8501	0.000251
358.0650	0.000800
358.2798	0.000167
358.4946	-0.000698
358.7095	0.000441
358.9243	-0.000761
359.1392	0.000695
359.3541	-0.001162
359.5690	-0.000107
359.7839	0.000484
359.9989	-0.000382
360.2138	0.002636
360.4288	-0.000614
360.6438	0.000990
360.8587	0.000104
361.0737	-0.001289
361.2888	0.000863
361.5038	-0.000888
361.7188	0.000083
361.9339	0.000378
362.1489	-0.001183
362.3640	-0.000065
362.5791	0.001201
362.7942	-0.000550
363.0093	-0.001268
363.2245	-0.000192
363.4396	0.000019
363.6548	-0.000086
363.8699	0.001243
364.0851	-0.000846
364.3003	0.000062
364.5155	-0.000761
364.7308	0.000167
364.9460	0.000104
365.1612	-0.000339
365.3765	0.000040
365.5918	0.000083
365.8071	-0.000107
366.0224	-0.000065
366.2377	0.000251
366.4530	0.000652
366.6684	0.000673
366.8837	-0.000339
367.0991	-0.000635
367.3145	0.001053
367.5299	-0.000993
367.7453	0.000673
367.9607	-0.000719
368.1761	-0.000508
368.3916	0.000884
368.6070	0.000294
368.8225	-0.000149
369.0380	-0.000635
369.2535	-0.000719
369.4690	0.000673
369.6845	-0.000614
369.9001	-0.001352
370.1156	-0.000234
370.3312	0.000884
370.5468	-0.003293
370.7624	0.000906
370.9780	-0.000804
371.1936	0.000695
371.4092	-0.000403
371.6249	-0.000888
371.8405	-0.000171
372.0562	-0.000550
372.2719	-0.000297
372.4876	0.001306
372.7033	-0.000234
372.9190	-0.000107
373.1348	-0.000065
373.3505	0.000125
373.5663	-0.000614
373.7820	-0.000255
373.9978	-0.001732
374.2136	-0.000382
374.4294	0.000821
374.6453	0.000083
374.8611	-0.000339
375.0770	-0.000065
375.2928	-0.001563
375.5087	0.000357
375.7246	-0.001521
375.9405	0.001032
376.1564	0.000441
376.3724	-0.000171
376.5883	0.000104
376.8043	-0.000656
377.0203	-0.000846
377.2362	0.000821
377.4522	0.000610
377.6682	0.000884
377.8843	-0.001078
378.1003	-0.000086
378.3164	-0.000930
378.5324	-0.000086
378.7485	-0.001204
378.9646	0.000526
379.1807	-0.000213
379.3968	-0.001648
379.6129	0.000019
379.8291	-0.000846
380.0452	-0.000951
380.2614	0.001053
380.4776	-0.000339
380.6938	0.000315
380.9100	0.000040
381.1262	-0.000002
381.3424	0.000758
381.5587	0.001370
381.7749	0.000821
381.9912	0.002973
382.2075	0.000294
382.4238	0.000758
382.6401	0.000294
382.8564	-0.000086
383.0728	-0.000508
383.2891	-0.000234
383.5055	0.000716
383.7219	0.001032
383.9382	0.001117
384.1546	-0.000213
384.3711	0.000209
384.5875	0.002171
384.8039	0.000167
385.0204	0.000568
385.2368	0.000673
385.4533	0.000019
385.6698	-0.000571
385.8863	0.000758
386.1028	0.001538
386.3194	-0.000044
386.5359	0.000695
386.7525	0.000990
386.9690	0.000462
387.1856	0.001454
387.4022	0.001327
387.6188	0.001496
387.8355	0.001855
388.0521	0.001855
388.2687	0.001349
388.4854	0.000695
388.7021	0.001201
388.9188	0.002488
389.1355	0.001644
389.3522	0.002783
389.5689	0.002235
389.7856	0.003205
390.0024	0.001834
390.2192	0.003501
390.4359	0.001918
390.6527	0.002340
390.8695	0.003058
391.0863	0.002530
391.3032	0.004049
391.5200	0.004682
391.7369	0.005168
391.9537	0.003965
392.1706	0.004598
392.3875	0.003606
392.6044	0.004619
392.8213	0.004999
393.0383	0.005231
393.2552	0.006518
393.4722	0.005653
393.6891	0.006539
393.9061	0.005104
394.1231	0.006813
394.3401	0.008079
394.5572	0.007889
394.7742	0.006434
394.9912	0.008607
395.2083	0.008438
395.4254	0.008227
395.6425	0.008670
395.8596	0.009092
396.0767	0.008480
396.2938	0.008881
396.5109	0.006982
396.7281	0.010738
396.9453	0.009176
397.1624	0.010949
397.3796	0.011835
397.5968	0.010463
397.8140	0.010189
398.0313	0.012869
398.2485	0.011265
398.4658	0.014219
398.6830	0.015865
398.9003	0.013333
399.1176	0.012742
399.3349	0.013734
399.5522	0.013375
399.7696	0.015464
399.9869	0.014008
400.2043	0.015190
400.4216	0.014135
400.6390	0.015844
400.8564	0.014683
401.0738	0.015907
401.2912	0.014219
401.5087	0.015274
401.7261	0.014050
401.9436	0.015844
402.1610	0.016287
402.3785	0.015865
402.5960	0.014388
402.8135	0.015169
403.0310	0.016456
403.2486	0.015738
403.4661	0.017004
403.6837	0.017131
403.9013	0.016435
404.1189	0.017553
404.3365	0.018629
404.5541	0.017532
404.7717	0.018777
404.9893	0.017279
405.2070	0.018756
405.4246	0.020760
405.6423	0.018502
405.8600	0.020612
406.0777	0.019367
406.2954	0.017827
406.5131	0.018207
406.7309	0.018629
406.9486	0.019578
407.1664	0.019810
407.3842	0.019346
407.6020	0.018207
407.8198	0.018291
408.0376	0.018355
408.2554	0.019199
408.4733	0.020254
408.6911	0.021161
408.9090	0.020338
409.1269	0.019768
409.3448	0.019241
409.5627	0.021013
409.7806	0.020486
409.9985	0.020507
410.2165	0.019642
410.4344	0.020443
410.6524	0.020718
410.8704	0.020254
411.0884	0.020697
411.3064	0.020718
411.5244	0.020169
411.7424	0.023798
411.9605	0.019853
412.1785	0.021794
412.3966	0.023566
412.6147	0.024284
412.8328	0.022638
413.0509	0.024938
413.2690	0.022026
413.4871	0.022764
413.7053	0.022237
413.9234	0.022511
414.1416	0.022321
414.3598	0.023144
414.5780	0.024305
414.7962	0.022511
415.0144	0.021414
415.2326	0.023925
415.4509	0.022680
415.6692	0.022701
415.8874	0.022828
416.1057	0.021899
416.3240	0.022258
416.5423	0.022870
416.7606	0.024579
416.9790	0.022321
417.1973	0.023334
417.4157	0.022975
417.6341	0.022089
417.8524	0.022321
418.0708	0.024115
418.2893	0.023229
418.5077	0.023883
418.7261	0.024642
418.9446	0.025339
419.1630	0.023672
419.3815	0.023440
419.6000	0.025170
419.8185	0.023566
420.0370	0.024473
420.2555	0.025149
420.4741	0.022659
420.6926	0.026267
420.9112	0.026984
421.1298	0.025971
421.3483	0.026415
421.5669	0.030212
421.7856	0.030592
422.0042	0.028187
422.2228	0.028862
422.4415	0.027892
422.6601	0.028356
422.8788	0.026161
423.0975	0.028567
423.3162	0.028208
423.5349	0.027216
423.7536	0.024642
423.9724	0.025022
424.1911	0.025296
424.4099	0.025739
424.6287	0.022933
424.8475	0.026309
425.0663	0.025402
425.2851	0.024895
425.5039	0.025381
425.7228	0.024811
425.9416	0.025022
426.1605	0.022300
426.3793	0.023904
426.5982	0.022870
426.8171	0.023081
427.0361	0.023756
427.2550	0.025170
427.4739	0.027617
427.6929	0.024178
427.9118	0.026415
428.1308	0.024853
428.3498	0.023798
428.5688	0.025275
428.7878	0.025634
429.0068	0.024600
429.2259	0.026267
429.4449	0.025866
429.6640	0.028314
429.8831	0.028820
430.1022	0.029601
430.3213	0.026858
430.5404	0.030255
430.7595	0.028757
430.9787	0.027385
431.1978	0.027638
431.4170	0.026604
431.6362	0.025887
431.8553	0.025423
432.0745	0.023250
432.2938	0.022828
432.5130	0.021752
432.7322	0.022996
432.9515	0.024009
433.1707	0.022975
433.3900	0.023271
433.6093	0.024347
433.8286	0.027617
434.0479	0.027828
434.2673	0.027617
434.4866	0.025360
434.7059	0.023629
434.9253	0.023524
435.1447	0.025296
435.3641	0.024980
435.5835	0.023060
435.8029	0.022089
436.0223	0.024368
436.2418	0.023418
436.4612	0.024663
436.6807	0.025360
436.9001	0.026752
437.1196	0.025782
437.3391	0.024199
437.5586	0.021963
437.7782	0.023946
437.9977	0.024495
438.2173	0.023629
438.4368	0.025149
438.6564	0.024410
438.8760	0.024389
439.0956	0.024199
439.3152	0.023229
439.5348	0.023334
439.7545	0.024410
439.9741	0.023165
440.1938	0.023925
440.4135	0.023904
440.6331	0.023672
440.8528	0.022891
441.0725	0.025402
441.2923	0.026140
441.5120	0.030508
441.7318	0.028377
441.9515	0.029136
442.1713	0.027048
442.3911	0.026879
442.6109	0.025887
442.8307	0.027512
443.0505	0.025866
443.2703	0.025402
443.4902	0.026351
443.7101	0.025824
443.9299	0.027554
444.1498	0.027195
444.3697	0.026182
444.5896	0.027765
444.8095	0.027617
445.0295	0.025022
445.2494	0.025339
445.4694	0.026942
445.6894	0.025001
445.9093	0.024030
446.1293	0.024516
446.3493	0.026288
446.5694	0.023397
446.7894	0.024199
447.0094	0.024558
447.2295	0.025613
447.4496	0.024558
447.6696	0.022954
447.8897	0.023587
448.1098	0.023798
448.3300	0.022490
448.5501	0.022279
448.7702	0.023271
448.9904	0.024431
449.2106	0.022258
449.4307	0.023693
449.6509	0.022933
449.8711	0.022532
450.0914	0.021562
450.3116	0.020612
450.5318	0.020465
450.7521	0.023925
450.9724	0.021562
451.1926	0.020676
451.4129	0.019642
451.6332	0.021541
451.8535	0.019916
452.0739	0.020992
452.2942	0.021330
452.5146	0.021731
452.7349	0.021456
452.9553	0.020486
453.1757	0.018228
453.3961	0.017933
453.6165	0.018418
453.8369	0.018861
454.0574	0.018861
454.2778	0.017426
454.4983	0.017173
454.7188	0.017257
454.9393	0.016835
455.1597	0.017173
455.3803	0.018692
455.6008	0.018713
455.8213	0.018355
456.0419	0.016624
456.2624	0.017574
456.4830	0.017785
456.7036	0.014726
456.9242	0.017574
457.1448	0.015232
457.3654	0.016456
457.5860	0.017046
457.8067	0.015717
458.0274	0.016603
458.2480	0.019431
458.4687	0.016118
458.6894	0.017426
458.9101	0.016751
459.1308	0.016519
459.3516	0.017321
459.5723	0.017447
459.7931	0.016835
460.0138	0.016287
460.2346	0.014683
460.4554	0.017152
460.6762	0.015759
460.8970	0.014979
461.1178	0.013860
461.3387	0.015654
461.5595	0.016245
461.7804	0.014810
462.0013	0.013059
462.2222	0.013860
462.4431	0.013544
462.6640	0.012067
462.8849	0.014219
463.1059	0.015000
463.3268	0.013628
463.5478	0.012405
463.7687	0.014894
463.9897	0.014261
464.2107	0.015527
464.4317	0.014620
464.6528	0.015063
464.8738	0.013945
465.0948	0.015823
465.3159	0.014346
465.5370	0.014536
465.7581	0.013839
465.9792	0.014768
466.2003	0.012447
466.4214	0.013966
466.6425	0.011244
466.8637	0.013038
467.0848	0.011476
467.3060	0.011898
467.5272	0.011139
467.7484	0.012109
467.9696	0.010949
468.1908	0.011371
468.4120	0.012552
468.6333	0.011434
468.8545	0.010274
469.0758	0.008797
469.2970	0.009936
469.5183	0.008754
469.7396	0.007657
469.9610	0.008944
470.1823	0.008691
470.4036	0.008860
470.6250	0.008586
470.8463	0.008354
471.0677	0.007868
471.2891	0.007678
471.5105	0.007847
471.7319	0.008164
471.9533	0.006877
472.1748	0.010337
472.3962	0.007847
472.6177	0.007721
472.8391	0.008586
473.0606	0.008649
473.2821	0.008965
473.5036	0.007636
473.7251	0.007678
473.9467	0.009641
474.1682	0.008649
474.3898	0.007974
474.6113	0.006919
474.8329	0.008354
475.0545	0.007235
475.2761	0.009641
475.4977	0.007657
475.7193	0.007699
475.9410	0.006771
476.1626	0.007404
476.3843	0.006961
476.6060	0.008100
476.8277	0.007362
477.0494	0.007067
477.2711	0.007636
477.4928	0.006328
477.7145	0.006877
477.9363	0.006940
478.1580	0.005168
478.3798	0.007847
478.6016	0.006033
478.8234	0.006645
479.0452	0.006771
479.2670	0.007214
479.4888	0.005357
479.7107	0.006455
479.9325	0.006476
480.1544	0.006813
480.3763	0.006602
480.5982	0.008902
480.8201	0.005210
481.0420	0.005104
481.2639	0.005231
481.4859	0.006539
481.7078	0.004450
481.9298	0.006729
482.1517	0.004746
482.3737	0.007467
482.5957	0.004851
482.8177	0.005547
483.0398	0.005062
483.2618	0.005104
483.4838	0.005505
483.7059	0.005864
483.9280	0.005273
484.1501	0.005927
484.3721	0.006961
484.5943	0.004851
484.8164	0.006982
485.0385	0.006412
485.2606	0.004788
485.4828	0.008987
485.7050	0.011962
485.9271	0.018502
486.1493	0.018777
486.3715	0.015126
486.5937	0.012658
486.8160	0.012384
487.0382	0.009198
487.2605	0.009071
487.4827	0.007383
487.7050	0.005547
487.9273	0.005273
488.1496	0.005653
488.3719	0.005463
488.5942	0.006919
488.8165	0.003437
489.0389	0.003881
489.2612	0.003079
489.4836	0.005632
489.7060	0.005273
489.9284	0.005315
490.1508	0.004366
490.3732	0.003670
490.5956	0.003480
490.8180	0.004724
491.0405	0.003817
491.2630	0.005336
491.4854	0.003437
491.7079	0.002826
491.9304	0.002488
492.1529	0.003142
492.3755	0.003775
492.5980	0.004007
492.8205	0.002994
493.0431	0.003290
493.2657	0.003269
493.4882	0.004513
493.7108	0.003585
493.9334	0.003648
494.1561	0.004556
494.3787	0.003269
494.6013	0.004176
494.8240	0.004556
495.0466	0.003121
495.2693	0.004007
495.4920	0.002171
495.7147	0.002593
495.9374	0.002826
496.1601	0.003501
496.3829	0.002741
496.6056	0.003606
496.8284	0.002593
497.0511	0.004281
497.2739	0.001095
497.4967	0.003986
497.7195	0.002720
497.9423	0.004324
498.1652	0.002298
498.3880	0.001665
498.6109	0.003437
498.8337	0.003290
499.0566	0.003290
499.2795	0.002657
499.5024	0.002804
499.7253	0.004092
499.9482	0.000906
500.1712	0.002931
500.3941	0.001939
500.6171	0.004535
500.8400	0.002425
501.0630	0.002572
501.2860	0.002214
501.5090	0.002699
501.7320	0.002530
501.9551	0.002741
502.1781	0.002446
502.4012	0.003163
502.6242	0.002087
502.8473	0.003015
503.0704	0.002551
503.2935	0.002193
503.5166	0.002615
503.7397	0.002003
503.9628	0.004155
504.1860	0.003670
504.4092	0.002066
504.6323	0.003965
504.8555	0.001264
505.0787	0.002467
505.3019	0.001159
505.5251	0.002593
505.7483	0.002404
505.9716	0.002108
506.1948	0.003353
506.4181	0.003670
506.6414	0.002804
506.8647	0.002826
507.0880	0.002615
507.3113	0.001159
507.5346	0.002045
507.7579	0.002530
507.9813	0.002467
508.2046	0.003205
508.4280	0.002193
508.6514	0.002467
508.8748	0.002277
509.0982	0.002910
509.3216	0.002826
509.5450	0.002256
509.7685	0.003543
509.9919	0.003037
510.2154	0.002214
510.4388	0.001876
510.6623	0.002804
510.8858	0.002066
511.1093	0.001644
511.3329	0.001918
511.5564	0.001602
511.7799	0.002298
512.0035	0.002952
512.2270	0.002783
512.4506	0.002045
512.6742	0.003269
512.8978	0.000526
513.1214	0.003311
513.3451	0.002657
513.5687	0.002467
513.7923	0.003395
514.0160	0.001053
514.2397	0.001707
514.4634	0.001349
514.6871	0.002572
514.9108	0.002593
515.1345	0.001623
515.3582	0.001982
515.5819	0.002910
515.8057	0.002340
516.0295	0.002235
516.2532	0.003079
516.4770	0.002404
516.7008	0.002024
516.9246	0.001749
517.1485	0.003838
517.3723	0.002720
517.5961	0.003374
517.8200	0.001370
518.0439	0.002868
518.2677	0.002298
518.4916	0.002678
518.7155	0.001792
518.9395	0.003121
519.1634	0.002446
519.3873	0.001982
519.6113	0.003037
519.8352	0.004429
520.0592	0.002193
520.2832	0.000294
520.5072	0.001728
520.7312	0.001749
520.9552	0.002024
521.1792	0.001560
521.4033	0.003269
521.6273	0.002277
521.8514	0.002636
522.0755	0.002467
522.2996	0.002910
522.5237	0.002615
522.7478	0.003332
522.9719	0.003058
523.1960	0.003037
523.4202	0.003142
523.6443	0.002826
523.8685	0.003395
524.0927	0.003775
524.3169	0.002150
524.5411	0.003817
524.7653	0.002910
524.9895	0.001792
525.2138	0.003437
525.4380	0.001728
525.6623	0.002572
525.8865	0.003670
526.1108	0.002256
526.3351	0.003205
526.5594	0.002150
526.7837	0.004893
527.0081	0.004619
527.2324	0.002509
527.4568	0.004556
527.6811	0.003037
527.9055	0.003754
528.1299	0.002868
528.3543	0.002593
528.5787	0.003037
528.8031	0.003163
529.0276	0.004830
529.2520	0.003564
529.4765	0.004260
529.7009	0.004893
529.9254	0.005146
530.1499	0.003184
530.3744	0.005189
530.5989	0.003374
530.8234	0.003437
531.0480	0.003163
531.2725	0.004387
531.4971	0.004893
531.7217	0.004429
531.9462	0.005379
532.1708	0.004324
532.3954	0.004197
532.6200	0.004513
532.8447	0.005041
533.0693	0.005146
533.2940	0.006286
533.5186	0.007531
533.7433	0.004767
533.9680	0.006033
534.1927	0.006560
534.4174	0.007024
534.6421	0.006455
534.8668	0.006455
535.0916	0.005400
535.3163	0.005906
535.5411	0.008522
535.7659	0.006497
535.9907	0.005927
536.2155	0.005779
536.4403	0.006307
536.6651	0.005969
536.8899	0.006645
537.1148	0.006645
537.3396	0.006708
537.5645	0.006771
537.7894	0.008438
538.0143	0.008248
538.2392	0.006856
538.4641	0.008248
538.6890	0.008037
538.9139	0.007552
539.1389	0.008417
539.3638	0.010569
539.5888	0.008586
539.8138	0.009662
540.0388	0.008459
540.2638	0.009324
540.4888	0.008121
540.7138	0.008733
540.9389	0.007826
541.1639	0.009008
541.3890	0.009662
541.6140	0.010717
541.8391	0.009451
542.0642	0.009683
542.2893	0.010274
542.5144	0.010379
542.7396	0.009788
542.9647	0.011096
543.1899	0.011434
543.4150	0.010674
543.6402	0.011624
543.8654	0.012869
544.0906	0.012341
544.3158	0.011624
544.5410	0.011371
544.7662	0.013671
544.9915	0.013206
545.2167	0.013228
545.4420	0.014177
545.6673	0.011540
545.8926	0.013586
546.1179	0.011413
546.3432	0.013101
546.5685	0.012384
546.7938	0.013502
547.0192	0.011540
547.2445	0.013565
547.4699	0.013882
547.6953	0.015000
547.9206	0.016203
548.1460	0.017089
548.3715	0.016793
548.5969	0.018228
548.8223	0.016624
549.0478	0.015422
549.2732	0.016456
549.4987	0.016477
549.7242	0.015548
549.9496	0.014557
550.1751	0.017068
550.4007	0.015274
550.6262	0.017089
550.8517	0.016624
551.0773	0.014747
551.3028	0.016034
551.5284	0.015992
551.7540	0.015823
551.9796	0.018840
552.2052	0.020254
552.4308	0.018798
552.6564	0.019557
552.8820	0.018608
553.1077	0.020085
553.3333	0.019051
553.5590	0.019283
553.7847	0.019114
554.0104	0.021899
554.2361	0.020992
554.4618	0.020401
554.6875	0.019093
554.9132	0.018291
555.1390	0.019916
555.3648	0.020359
555.5905	0.020591
555.8163	0.021794
556.0421	0.023186
556.2679	0.021984
556.4937	0.022807
556.7195	0.022553
556.9454	0.022089
557.1712	0.022342
557.3971	0.020992
557.6230	0.022532
557.8488	0.021266
558.0747	0.021815
558.3006	0.022996
558.5266	0.021583
558.7525	0.022321
558.9784	0.021625
559.2044	0.022195
559.4303	0.022659
559.6563	0.023271
559.8823	0.023271
560.1083	0.024347
560.3343	0.028187
560.5603	0.026583
560.7863	0.028356
561.0124	0.030951
561.2384	0.031457
561.4645	0.030255
561.6905	0.028736
561.9166	0.030001
562.1427	0.030571
562.3688	0.028208
562.5949	0.028757
562.8211	0.028461
563.0472	0.027575
563.2733	0.030803
563.4995	0.030339
563.7257	0.030044
563.9519	0.030845
564.1781	0.034264
564.4043	0.034116
564.6305	0.032850
564.8567	0.032681
565.0829	0.034559
565.3092	0.034306
565.5355	0.035318
565.7617	0.035572
565.9880	0.033715
566.2143	0.037028
566.4406	0.035783
566.6669	0.037661
566.8932	0.034812
567.1196	0.039749
567.3459	0.044032
567.5723	0.045889
567.7987	0.046628
568.0250	0.046628
568.2514	0.050447
568.4778	0.053253
568.7043	0.056523
568.9307	0.058844
569.1571	0.062621
569.3836	0.063275
569.6100	0.075344
569.8365	0.079922
570.0630	0.086948
570.2895	0.087054
570.5160	0.089839
570.7425	0.090831
570.9690	0.096148
571.1956	0.101085
571.4221	0.105706
571.6487	0.107985
571.8752	0.113428
572.1018	0.120475
572.3284	0.117796
572.5550	0.108428
572.7816	0.101296
573.0082	0.098363
573.2349	0.107605
573.4615	0.118281
573.6882	0.124020
573.9149	0.130054
574.1415	0.136068
574.3682	0.140857
574.5949	0.145225
574.8216	0.148094
575.0484	0.148854
575.2751	0.149888
575.5018	0.147925
575.7286	0.143094
575.9554	0.133050
576.1821	0.134506
576.4089	0.138304
576.6357	0.143516
576.8626	0.155099
577.0894	0.157462
577.3162	0.156597
577.5431	0.162273
577.7699	0.182444
577.9968	0.216351
578.2237	0.205126
578.4505	0.197213
578.6774	0.179195
578.9044	0.167864
579.1313	0.160648
579.3582	0.160585
579.5851	0.168666
579.8121	0.171156
580.0391	0.173371
580.2660	0.181073
580.4930	0.173688
580.7200	0.171937
580.9470	0.170692
581.1741	0.205970
581.4011	0.249350
581.6281	0.272897
581.8552	0.275851
582.0822	0.266483
582.3093	0.258022
582.5364	0.243168
582.7635	0.220803
582.9906	0.204851
583.2177	0.185208
583.4449	0.173034
583.6720	0.163138
583.8991	0.157948
584.1263	0.163096
584.3535	0.165754
584.5807	0.164488
584.8079	0.171789
585.0351	0.190778
585.2623	0.199513
585.4895	0.199999
585.7167	0.197509
585.9440	0.191643
586.1713	0.184575
586.3985	0.169257
586.6258	0.163729
586.8531	0.169067
587.0804	0.179933
587.3077	0.192424
587.5350	0.194154
587.7624	0.190694
587.9897	0.186790
588.2171	0.169468
588.4445	0.169721
588.6718	0.166493
588.8992	0.160395
589.1266	0.146660
589.3540	0.139190
589.5815	0.135245
589.8089	0.133008
590.0363	0.135076
590.2638	0.127565
590.4913	0.127438
590.7187	0.122100
590.9462	0.112563
591.1737	0.106887
591.4012	0.106170
591.6288	0.111951
591.8563	0.111339
592.0838	0.109715
592.3114	0.110643
592.5389	0.130624
592.7665	0.153939
592.9941	0.165206
593.2217	0.172000
593.4493	0.173751
593.6769	0.173329
593.9046	0.162653
594.1322	0.156007
594.3598	0.144381
594.5875	0.141638
594.8152	0.153074
595.0429	0.161703
595.2705	0.165480
595.4983	0.160880
595.7260	0.153643
595.9537	0.143347
596.1814	0.134802
596.4092	0.125518
596.6369	0.124695
596.8647	0.119842
597.0925	0.122248
597.3203	0.122817
597.5481	0.125666
597.7759	0.127248
598.0037	0.119209
598.2315	0.114462
598.4594	0.116340
598.6872	0.130645
598.9151	0.149761
599.1430	0.158243
599.3709	0.152399
599.5988	0.147082
599.8267	0.149846
600.0546	0.151787
600.2825	0.154403
600.5105	0.152778
600.7384	0.153601
600.9664	0.153454
601.1944	0.159045
601.4223	0.149255
601.6503	0.146723
601.8783	0.142503
602.1064	0.141786
602.3344	0.137059
602.5624	0.140878
602.7905	0.145288
603.0185	0.145119
603.2466	0.152145
603.4747	0.159298
603.7028	0.159952
603.9309	0.149508
604.1590	0.144972
604.3871	0.137924
604.6152	0.136342
604.8434	0.128915
605.0715	0.129358
605.2997	0.131911
605.5279	0.138199
605.7561	0.142735
605.9843	0.146470
606.2125	0.146533
606.4407	0.138705
606.6689	0.131088
606.8972	0.129379
607.1254	0.129147
607.3537	0.134823
607.5819	0.134063
607.8102	0.134000
608.0385	0.128472
608.2668	0.127375
608.4951	0.122332
608.7235	0.121931
608.9518	0.116783
609.1801	0.115390
609.4085	0.111803
609.6369	0.110179
609.8653	0.112479
610.0936	0.125982
610.3220	0.124906
610.5505	0.122564
610.7789	0.117964
611.0073	0.115306
611.2357	0.115327
611.4642	0.118133
611.6927	0.113597
611.9211	0.115475
612.1496	0.111951
612.3781	0.109947
612.6066	0.108744
612.8351	0.108807
613.0637	0.108174
613.2922	0.106951
613.5208	0.107689
613.7493	0.105474
613.9779	0.107963
614.2065	0.108976
614.4351	0.105621
614.6637	0.106613
614.8923	0.104313
615.1209	0.106486
615.3495	0.109926
615.5782	0.111550
615.8068	0.112711
616.0355	0.106297
616.2642	0.097561
616.4929	0.093320
616.7216	0.091991
616.9503	0.092561
617.1790	0.091295
617.4077	0.090599
617.6365	0.093721
617.8652	0.094713
618.0940	0.091126
618.3227	0.090303
618.5515	0.082286
618.7803	0.080091
619.0091	0.077264
619.2379	0.075850
619.4667	0.074880
619.6956	0.072559
619.9244	0.081146
620.1533	0.080745
620.3821	0.080956
620.6110	0.083214
620.8399	0.072981
621.0688	0.066313
621.2977	0.062579
621.5266	0.062051
621.7556	0.063845
621.9845	0.068655
622.2135	0.068170
622.4424	0.070449
622.6714	0.072791
622.9004	0.070301
623.1294	0.071757
623.3584	0.076589
623.5874	0.073951
623.8164	0.072854
624.0454	0.074922
624.2745	0.071187
624.5035	0.074310
624.7326	0.075407
624.9617	0.078424
625.1908	0.069077
625.4199	0.072221
625.6490	0.069077
625.8781	0.068022
626.1072	0.065090
626.3364	0.062452
626.5655	0.061693
626.7947	0.057684
627.0238	0.060216
627.2530	0.056840
627.4822	0.058380
627.7114	0.060764
627.9406	0.059498
628.1698	0.052430
628.3991	0.050278
628.6283	0.049518
628.8576	0.049835
629.0868	0.050510
629.3161	0.050995
629.5454	0.054709
629.7747	0.053865
630.0040	0.050468
630.2333	0.051607
630.4626	0.050721
630.6920	0.048759
630.9213	0.044370
631.1507	0.045024
631.3801	0.043695
631.6094	0.044328
631.8388	0.044940
632.0682	0.044518
632.2976	0.043273
632.5271	0.040298
632.7565	0.038926
632.9859	0.038378
633.2154	0.038715
633.4448	0.037724
633.6743	0.039053
633.9038	0.038104
634.1333	0.037682
634.3628	0.036331
634.5923	0.035572
634.8218	0.035783
635.0514	0.033567
635.2809	0.033293
635.5105	0.034221
635.7400	0.035508
635.9696	0.036690
636.1992	0.036795
636.4288	0.038652
636.6584	0.039053
636.8880	0.039602
637.1177	0.037745
637.3473	0.037492
637.5770	0.035783
637.8066	0.034411
638.0363	0.036437
638.2660	0.034580
638.4957	0.034664
638.7254	0.035508
638.9551	0.033631
639.1848	0.035044
639.4145	0.033187
639.6443	0.031406
639.8740	0.032233
640.1038	0.030536
640.3336	0.032751
640.5633	0.032348
640.7931	0.032005
641.0229	0.030003
641.2528	0.029521
641.4826	0.027432
641.7124	0.028669
641.9423	0.027437
642.1721	0.027908
642.4020	0.025518
642.6319	0.024343
642.8617	0.023941
643.0916	0.024193
643.3216	0.024666
643.5515	0.025654
643.7814	0.025585
644.0113	0.024983
644.2413	0.024924
644.4712	0.023968
644.7012	0.022731
644.9312	0.021513
645.1612	0.023740
645.3912	0.023256
645.6212	0.023527
645.8512	0.023401
646.0812	0.022297
646.3113	0.020964
646.5413	0.021919
646.7714	0.020589
647.0015	0.021378
647.2316	0.020269
647.4616	0.021051
647.6918	0.022202
647.9219	0.022999
648.1520	0.026972
648.3821	0.025787
648.6123	0.025770
648.8424	0.024962
649.0726	0.028429
649.3028	0.031222
649.5329	0.028234
649.7631	0.027580
649.9933	0.028710
650.2236	0.025552
650.4538	0.025340
650.6840	0.024633
650.9143	0.024167
651.1445	0.024799
651.3748	0.023515
651.6051	0.024114
651.8354	0.024897
652.0657	0.026792
652.2960	0.026918
652.5263	0.025851
652.7566	0.026582
652.9870	0.025793
653.2173	0.026560
653.4477	0.025736
653.6780	0.027667
653.9084	0.027264
654.1388	0.028116
654.3692	0.030183
654.5996	0.029367
654.8300	0.035245
655.0605	0.048487
655.2909	0.131022
655.5213	0.398790
655.7518	0.807288
655.9823	1.000000
656.2128	1.000000
656.4433	1.000000
656.6738	1.000000
656.9043	0.914301
657.1348	0.730026
657.3653	0.596641
657.5959	0.509746
657.8264	0.447687
658.0570	0.402375
658.2875	0.365873
658.5181	0.334418
658.7487	0.317189
658.9793	0.290961
659.2099	0.241145
659.4406	0.167746
659.6712	0.097335
659.9018	0.057689
660.1325	0.039470
660.3632	0.028598
660.5938	0.022272
660.8245	0.021219
661.0552	0.020714
661.2859	0.018987
661.5166	0.019596
661.7474	0.019010
661.9781	0.016906
662.2088	0.018698
662.4396	0.018036
662.6704	0.019098
662.9011	0.018216
663.1319	0.019125
663.3627	0.017685
663.5935	0.019083
663.8243	0.017635
664.0552	0.017336
664.2860	0.018759
664.5168	0.019500
664.7477	0.018232
664.9786	0.019428
665.2094	0.020893
665.4403	0.021009
665.6712	0.020622
665.9021	0.020094
666.1330	0.019119
666.3640	0.020868
666.5949	0.017888
666.8259	0.017529
667.0568	0.016939
667.2878	0.019315
667.5188	0.016777
667.7497	0.018336
667.9807	0.017557
668.2117	0.016826
668.4428	0.017321
668.6738	0.018186
668.9048	0.020064
669.1359	0.017405
669.3669	0.018207
669.5980	0.018545
669.8291	0.019536
670.0602	0.017257
670.2913	0.018587
670.5224	0.018840
670.7535	0.019199
670.9846	0.018101
671.2157	0.018629
671.4469	0.020971
671.6781	0.025022
671.9092	0.026204
672.1404	0.029136
672.3716	0.029558
672.6028	0.031267
672.8340	0.030107
673.0652	0.027934
673.2964	0.027237
673.5277	0.026204
673.7589	0.023883
673.9902	0.025993
674.2214	0.022659
674.4527	0.024009
674.6840	0.023313
674.9153	0.022996
675.1466	0.021161
675.3779	0.020971
675.6093	0.022258
675.8406	0.021414
676.0719	0.019895
676.3033	0.021646
676.5347	0.021625
676.7661	0.020992
676.9974	0.020971
677.2288	0.020148
677.4602	0.020064
677.6917	0.021836
677.9231	0.023186
678.1545	0.024051
678.3860	0.023629
678.6174	0.027723
678.8489	0.026077
679.0804	0.025486
679.3119	0.027470
679.5434	0.029769
679.7749	0.029664
680.0064	0.028356
680.2379	0.030360
680.4694	0.029685
680.7010	0.030656
680.9325	0.029157
681.1641	0.027997
681.3957	0.030107
681.6273	0.029516
681.8589	0.030170
682.0905	0.026858
682.3221	0.027892
682.5537	0.026119
682.7854	0.027026
683.0170	0.025381
683.2487	0.024684
683.4803	0.027702
683.7120	0.026963
683.9437	0.026668
684.1754	0.029706
684.4071	0.030423
684.6388	0.031542
684.8705	0.033483
685.1023	0.036015
685.3340	0.036437
685.5658	0.037239
685.7975	0.038061
686.0293	0.039137
686.2611	0.036057
686.4929	0.038188
686.7247	0.034559
686.9565	0.037281
687.1883	0.036563
687.4202	0.035973
687.6520	0.036627
687.8838	0.037260
688.1157	0.033736
688.3476	0.034221
688.5795	0.032196
688.8114	0.031879
689.0433	0.030972
689.2752	0.030845
689.5071	0.031689
689.7390	0.030255
689.9710	0.029748
690.2029	0.029685
690.4349	0.027955
690.6669	0.028461
690.8988	0.030719
691.1308	0.030529
691.3628	0.031478
691.5948	0.032069
691.8269	0.031352
692.0589	0.030065
692.2909	0.031900
692.5230	0.032301
692.7550	0.031183
692.9871	0.033019
693.2192	0.034285
693.4513	0.033082
693.6834	0.030951
693.9155	0.030339
694.1476	0.029579
694.3797	0.028989
694.6119	0.026858
694.8440	0.028736
695.0762	0.029579
695.3083	0.030761
695.5405	0.025149
695.7727	0.024853
696.0049	0.025950
696.2371	0.023967
696.4693	0.028250
696.7016	0.030191
696.9338	0.031521
697.1660	0.035023
697.3983	0.032892
697.6306	0.032618
697.8628	0.032829
698.0951	0.031331
698.3274	0.034496
698.5597	0.031774
698.7920	0.031183
699.0243	0.031816
699.2567	0.030845
699.4890	0.029305
699.7214	0.027195
699.9537	0.027491
700.1861	0.028145
700.4185	0.024832
700.6509	0.025296
700.8833	0.026330
701.1157	0.023186
701.3481	0.021625
701.5806	0.023186
701.8130	0.023608
702.0454	0.025001
702.2779	0.024959
702.5104	0.025022
702.7429	0.026014
702.9753	0.024811
703.2078	0.024495
703.4403	0.024874
703.6729	0.022722
703.9054	0.024642
704.1379	0.023334
704.3705	0.022996
704.6030	0.021266
704.8356	0.021984
705.0682	0.022680
705.3008	0.018882
705.5334	0.018101
705.7660	0.021330
705.9986	0.020718
706.2312	0.021920
706.4638	0.026583
706.6965	0.028968
706.9291	0.028250
707.1618	0.031246
707.3945	0.032808
707.6272	0.031753
707.8599	0.031225
708.0926	0.031816
708.3253	0.032597
708.5580	0.031394
708.7907	0.031331
709.0235	0.030782
709.2562	0.027512
709.4890	0.027744
709.7217	0.028292
709.9545	0.027681
710.1873	0.028946
710.4201	0.028841
710.6529	0.028841
710.8857	0.029326
711.1186	0.026815
711.3514	0.026372
711.5842	0.025803
711.8171	0.027259
712.0500	0.025022
712.2828	0.022617
712.5157	0.023313
712.7486	0.024431
712.9815	0.023503
713.2144	0.024495
713.4474	0.025339
713.6803	0.027807
713.9132	0.028166
714.1462	0.029094
714.3791	0.030212
714.6121	0.029833
714.8451	0.030191
715.0781	0.030149
715.3111	0.029390
715.5441	0.028103
715.7771	0.029010
716.0102	0.026393
716.2432	0.026415
716.4762	0.025718
716.7093	0.024811
716.9424	0.025718
717.1754	0.021414
717.4085	0.022068
717.6416	0.022237
717.8747	0.022722
718.1078	0.024917
718.3410	0.024642
718.5741	0.023461
718.8072	0.024094
719.0404	0.024874
719.2736	0.024938
719.5067	0.024558
719.7399	0.023819
719.9731	0.024980
720.2063	0.024621
720.4395	0.023566
720.6727	0.023503
720.9060	0.025402
721.1392	0.025908
721.3725	0.024832
721.6057	0.025275
721.8390	0.024811
722.0723	0.025022
722.3055	0.022933
722.5388	0.023672
722.7721	0.022807
723.0055	0.021498
723.2388	0.023503
723.4721	0.024684
723.7055	0.021773
723.9388	0.023735
724.1722	0.022448
724.4056	0.022237
724.6389	0.023186
724.8723	0.024030
725.1057	0.023039
725.3391	0.027259
725.5726	0.027892
725.8060	0.026267
726.0394	0.029284
726.2729	0.030023
726.5063	0.029073
726.7398	0.025402
726.9733	0.027892
727.2068	0.028103
727.4403	0.027596
727.6738	0.027807
727.9073	0.029643
728.1408	0.027934
728.3743	0.028187
728.6079	0.030191
728.8414	0.027681
729.0750	0.028588
729.3086	0.028356
729.5421	0.029875
729.7757	0.032322
730.0093	0.030508
730.2429	0.030423
730.4766	0.030782
730.7102	0.033377
730.9438	0.035656
731.1775	0.036078
731.4111	0.036373
731.6448	0.036437
731.8785	0.037133
732.1122	0.033989
732.3458	0.034643
732.5795	0.033631
732.8133	0.035719
733.0470	0.037049
733.2807	0.037872
733.5145	0.035614
733.7482	0.036015
733.9820	0.035783
734.2157	0.042366
734.4495	0.042851
734.6833	0.043779
734.9171	0.040825
735.1509	0.039433
735.3847	0.039201
735.6185	0.039159
735.8524	0.041564
736.0862	0.040382
736.3201	0.040467
736.5539	0.039770
736.7878	0.040235
737.0217	0.041437
737.2556	0.040214
737.4895	0.039053
737.7234	0.038462
737.9573	0.035171
738.1912	0.035255
738.4252	0.034369
738.6591	0.032259
738.8931	0.035888
739.1271	0.035593
739.3610	0.037850
739.5950	0.039159
739.8290	0.038610
740.0630	0.036226
740.2970	0.035297
740.5310	0.034475
740.7651	0.033673
740.9991	0.032576
741.2332	0.031837
741.4672	0.029221
741.7013	0.030529
741.9354	0.029052
742.1695	0.028440
742.4036	0.027385
742.6377	0.028862
742.8718	0.029938
743.1059	0.029179
743.3400	0.026626
743.5742	0.026921
743.8083	0.026626
744.0425	0.026837
744.2767	0.023693
744.5108	0.025993
744.7450	0.025212
744.9792	0.023608
745.2134	0.024621
745.4477	0.023798
745.6819	0.022153
745.9161	0.023018
746.1504	0.023946
746.3846	0.023313
746.6189	0.023271
746.8532	0.023545
747.0874	0.025085
747.3217	0.026140
747.5560	0.027343
747.7903	0.026140
748.0247	0.024495
748.2590	0.023039
748.4933	0.024157
748.7277	0.022828
748.9620	0.023819
749.1964	0.025106
749.4308	0.025128
749.6652	0.030698
749.8995	0.029453
750.1339	0.031879
750.3684	0.032554
750.6028	0.031035
750.8372	0.031837
751.0717	0.032618
751.3061	0.031837
751.5406	0.031289
751.7750	0.032723
752.0095	0.035361
752.2440	0.033483
752.4785	0.031668
752.7130	0.031816
752.9475	0.029537
753.1820	0.029537
753.4166	0.032428
753.6511	0.032154
753.8856	0.033715
754.1202	0.036521
754.3548	0.033145
754.5894	0.031141
754.8239	0.032871
755.0585	0.033715
755.2931	0.034285
755.5278	0.035951
755.7624	0.035276
755.9970	0.037872
756.2317	0.037492
756.4663	0.039370
756.7010	0.041923
756.9356	0.042661
757.1703	0.044159
757.4050	0.048780
757.6397	0.052325
757.8744	0.051143
758.1091	0.048632
758.3438	0.047957
758.5786	0.048020
758.8133	0.045953
759.0481	0.044813
759.2828	0.048337
759.5176	0.049202
759.7524	0.049096
759.9872	0.050004
760.2220	0.052810
760.4568	0.054350
760.6916	0.052514
760.9264	0.053612
761.1613	0.054055
761.3961	0.048906
761.6310	0.047218
761.8658	0.044792
762.1007	0.041564
762.3356	0.040994
762.5705	0.041944
762.8054	0.040467
763.0403	0.041353
763.2752	0.041880
763.5101	0.042134
763.7450	0.041121
763.9800	0.043990
764.2149	0.044201
764.4499	0.046775
764.6849	0.049561
764.9198	0.048970
765.1548	0.049877
765.3898	0.048442
765.6248	0.046522
765.8599	0.045910
766.0949	0.044539
766.3299	0.041311
766.5650	0.038230
766.8000	0.035002
767.0351	0.034580
767.2701	0.030845
767.5052	0.033145
767.7403	0.032871
767.9754	0.036078
768.2105	0.035677
768.4456	0.036859
768.6808	0.040446
768.9159	0.040108
769.1510	0.039243
769.3862	0.040087
769.6214	0.039559
769.8565	0.036352
770.0917	0.037513
770.3269	0.034432
770.5621	0.038188
770.7973	0.039897
771.0325	0.039813
771.2677	0.042366
771.5030	0.039391
771.7382	0.038715
771.9735	0.036880
772.2087	0.034242
772.4440	0.033947
772.6793	0.035255
772.9146	0.033631
773.1499	0.034285
773.3852	0.031795
773.6205	0.031837
773.8558	0.031626
774.0911	0.029748
774.3265	0.029136
774.5618	0.026752
774.7972	0.028989
775.0326	0.025571
775.2679	0.026668
775.5033	0.023587
775.7387	0.023334
775.9741	0.021182
776.2095	0.022954
776.4450	0.022996
776.6804	0.023039
776.9158	0.022195
777.1513	0.020908
777.3868	0.020169
777.6222	0.019895
777.8577	0.020971
778.0932	0.020296
778.3287	0.022617
778.5642	0.022954
778.7997	0.026710
779.0352	0.025550
779.2707	0.027280
779.5063	0.025803
779.7418	0.026161
779.9774	0.025402
780.2130	0.024706
780.4485	0.024030
780.6841	0.024684
780.9197	0.024579
781.1553	0.029390
781.3909	0.031436
781.6265	0.030044
781.8622	0.030740
782.0978	0.027681
782.3335	0.028081
782.5691	0.030824
782.8048	0.029305
783.0405	0.028419
783.2761	0.027533
783.5118	0.028714
783.7475	0.031120
783.9832	0.027512
784.2190	0.026879
784.4547	0.026077
784.6904	0.023608
784.9262	0.022722
785.1619	0.022153
785.3977	0.024368
785.6335	0.023629
785.8692	0.024980
786.1050	0.025212
786.3408	0.024030
786.5766	0.024389
786.8124	0.023165
787.0483	0.020549
787.2841	0.022659
787.5199	0.025571
787.7558	0.026182
787.9917	0.025339
788.2275	0.025128
788.4634	0.026689
788.6993	0.026499
788.9352	0.026879
789.1711	0.026984
789.4070	0.024220
789.6429	0.024706
789.8789	0.023376
790.1148	0.022954
790.3507	0.022195
790.5867	0.021498
790.8227	0.021435
791.0586	0.018566
791.2946	0.019853
791.5306	0.021477
791.7666	0.020401
792.0026	0.020823
792.2387	0.020106
792.4747	0.019241
792.7107	0.017848
792.9468	0.016835
793.1828	0.018798
793.4189	0.019114
793.6550	0.019958
793.8910	0.022764
794.1271	0.026562
794.3632	0.026689
794.5993	0.026119
794.8355	0.027659
795.0716	0.027512
795.3077	0.026921
795.5439	0.028567
795.7800	0.021688
796.0162	0.022596
796.2523	0.022321
796.4885	0.020507
796.7247	0.017658
796.9609	0.017595
797.1971	0.016941
797.4333	0.019515
797.6695	0.018967
797.9058	0.019241
798.1420	0.019536
798.3783	0.017553
798.6145	0.017954
798.8508	0.019072
799.0871	0.020043
799.3233	0.018819
799.5596	0.017785
799.7959	0.018629
800.0322	0.017785
800.2686	0.015063
800.5049	0.017869
800.7412	0.016414
800.9776	0.016329
801.2139	0.014852
801.4503	0.015021
801.6867	0.015781
801.9230	0.013439
802.1594	0.013312
802.3958	0.013333
802.6322	0.014093
802.8686	0.012932
803.1051	0.016709
803.3415	0.014177
803.5779	0.016414
803.8144	0.015907
804.0508	0.015527
804.2873	0.014071
804.5238	0.014261
804.7603	0.013903
804.9968	0.013945
805.2333	0.015295
805.4698	0.014114
805.7063	0.013565
805.9428	0.015738
806.1794	0.018882
806.4159	0.019304
806.6525	0.019937
806.8890	0.019346
807.1256	0.018502
807.3622	0.018123
807.5988	0.018270
807.8354	0.019220
808.0720	0.017743
808.3086	0.019431
808.5452	0.019051
808.7818	0.018186
809.0185	0.018692
809.2551	0.017257
809.4918	0.017447
809.7284	0.017131
809.9651	0.017574
810.2018	0.016371
810.4385	0.016624
810.6752	0.015738
810.9119	0.014620
811.1486	0.016709
811.3853	0.015781
811.6221	0.014325
811.8588	0.014050
812.0956	0.014789
812.3323	0.014536
812.5691	0.014261
812.8059	0.010253
813.0427	0.011033
813.2795	0.012067
813.5163	0.012025
813.7531	0.015274
813.9899	0.013460
814.2267	0.014261
814.4636	0.014620
814.7004	0.015717
814.9373	0.014915
815.1742	0.014219
815.4110	0.013713
815.6479	0.013228
815.8848	0.010527
816.1217	0.011518
816.3586	0.010717
816.5955	0.012362
816.8324	0.012784
817.0694	0.011940
817.3063	0.012510
817.5433	0.012215
817.7802	0.011877
818.0172	0.011729
818.2542	0.010653
818.4912	0.012257
818.7282	0.011012
818.9652	0.010084
819.2022	0.010780
819.4392	0.010928
819.6762	0.009556
819.9133	0.008269
820.1503	0.009324
820.3874	0.011307
820.6244	0.011708
820.8615	0.014346
821.0986	0.012869
821.3357	0.012869
821.5727	0.011540
821.8099	0.011582
822.0470	0.010928
822.2841	0.012869
822.5212	0.010717
822.7584	0.011835
822.9955	0.008712
823.2327	0.011223
823.4698	0.009219
823.7070	0.008100
823.9442	0.009577
824.1814	0.008143
824.4186	0.007636
824.6558	0.010590
824.8930	0.007953
825.1302	0.008121
825.3675	0.010801
825.6047	0.011497
825.8419	0.010042
826.0792	0.012067
826.3165	0.009493
826.5537	0.011012
826.7910	0.010337
827.0283	0.011202
827.2656	0.011582
827.5029	0.010442
827.7402	0.009387
827.9776	0.010105
828.2149	0.008649
828.4522	0.010759
828.6896	0.008522
828.9270	0.010611
829.1643	0.011012
829.4017	0.009683
829.6391	0.009176
829.8765	0.010168
830.1139	0.008691
830.3513	0.009809
830.5887	0.007045
830.8261	0.007383
831.0636	0.007235
831.3010	0.007953
831.5385	0.006687
831.7759	0.007003
832.0134	0.005801
832.2509	0.005505
832.4884	0.005632
832.7259	0.006455
832.9634	0.007003
833.2009	0.008417
833.4384	0.008712
833.6759	0.007868
833.9135	0.007552
834.1510	0.008754
834.3886	0.008100
834.6261	0.008586
834.8637	0.008839
835.1013	0.008248
835.3389	0.010020
835.5765	0.009345
835.8141	0.008058
836.0517	0.008459
836.2893	0.008375
836.5269	0.007805
836.7646	0.005611
837.0022	0.004957
837.2399	0.004872
837.4775	0.006771
837.7152	0.005210
837.9529	0.005632
838.1906	0.006645
838.4283	0.006834
838.6660	0.004809
838.9037	0.005695
839.1414	0.005379
839.3791	0.005189
839.6169	0.005526
839.8546	0.006813
840.0924	0.005674
840.3302	0.006286
840.5679	0.004914
840.8057	0.005379
841.0435	0.006349
841.2813	0.006201
841.5191	0.005400
841.7569	0.004577
841.9947	0.004746
842.2326	0.004155
842.4704	0.004049
842.7082	0.004303
842.9461	0.005104
843.1840	0.004914
843.4218	0.003902
843.6597	0.005505
843.8976	0.004408
844.1355	0.004303
844.3734	0.004746
844.6113	0.004640
844.8492	0.004303
845.0872	0.004999
845.3251	0.004513
845.5631	0.006244
845.8010	0.004239
846.0390	0.004935
846.2770	0.003754
846.5149	0.004260
846.7529	0.003459
846.9909	0.003775
847.2289	0.003416
847.4669	0.003986
847.7050	0.003501
847.9430	0.004218
848.1810	0.003142
848.4191	0.004767
848.6571	0.003459
848.8952	0.004070
849.1333	0.002847
849.3713	0.003585
849.6094	0.003923
849.8475	0.003817
850.0856	0.003796
850.3237	0.003817
850.5619	0.002256
850.8000	0.004872
851.0381	0.003269
851.2763	0.004598
851.5144	0.005948
851.7526	0.004176
851.9908	0.002994
852.2289	0.006180
852.4671	0.006370
852.7053	0.007045
852.9435	0.009577
853.1817	0.009409
853.4200	0.011455
853.6582	0.012426
853.8964	0.012109
854.1347	0.013291
854.3729	0.010421
854.6112	0.011307
854.8495	0.011540
855.0877	0.010738
855.3260	0.011835
855.5643	0.011518
855.8026	0.010506
856.0409	0.009514
856.2792	0.011687
856.5176	0.012194
856.7559	0.009176
856.9942	0.009282
857.2326	0.009176
857.4710	0.011223
857.7093	0.008480
857.9477	0.007699
858.1861	0.007088
858.4245	0.008396
858.6629	0.007573
858.9013	0.007446
859.1397	0.007045
859.3781	0.007847
859.6166	0.008164
859.8550	0.009219
860.0935	0.006201
860.3319	0.007868
860.5704	0.005927
860.8089	0.005632
861.0473	0.005104
861.2858	0.006138
861.5243	0.006054
861.7628	0.004935
862.0013	0.004429
862.2399	0.004260
862.4784	0.004176
862.7169	0.004303
862.9555	0.003923
863.1940	0.005252
863.4326	0.004914
863.6712	0.006391
863.9098	0.004577
864.1483	0.005906
864.3869	0.005442
864.6255	0.004914
864.8642	0.006159
865.1028	0.004535
865.3414	0.004978
865.5800	0.003965
865.8187	0.004492
866.0573	0.007130
866.2960	0.003459
866.5347	0.003775
866.7733	0.003459
867.0120	0.004872
867.2507	0.003459
867.4894	0.004197
867.7281	0.005062
867.9669	0.004535
868.2056	0.003965
868.4443	0.005168
868.6831	0.005062
868.9218	0.005674
869.1606	0.004387
869.3993	0.004978
869.6381	0.002994
869.8769	0.002319
870.1157	0.003184
870.3545	0.003564
870.5933	0.004767
870.8321	0.003817
871.0709	0.005231
871.3097	0.005146
871.5486	0.005062
871.7874	0.004197
872.0263	0.003902
872.2651	0.004746
872.5040	0.002931
872.7429	0.004007
872.9818	0.003205
873.2207	0.003881
873.4596	0.003965
873.6985	0.003754
873.9374	0.003374
874.1763	0.004703
874.4153	0.003859
874.6542	0.004767
874.8932	0.005864
875.1321	0.004260
875.3711	0.005083
875.6101	0.005442
875.8491	0.003965
876.0880	0.004914
876.3270	0.004978
876.5661	0.004682
876.8051	0.005231
877.0441	0.005927
877.2831	0.003670
877.5222	0.004324
877.7612	0.005231
878.0003	0.004724
878.2393	0.004978
878.4784	0.003817
878.7175	0.007636
878.9566	0.006223
879.1957	0.006750
879.4348	0.005758
879.6739	0.007109
879.9130	0.006455
880.1521	0.005315
880.3913	0.005547
880.6304	0.005822
880.8696	0.007425
881.1087	0.005484
881.3479	0.006982
881.5871	0.005568
881.8262	0.004556
882.0654	0.005758
882.3046	0.005568
882.5438	0.005336
882.7831	0.004872
883.0223	0.006602
883.2615	0.005864
883.5007	0.006286
883.7400	0.005125
883.9792	0.005442
884.2185	0.004471
884.4578	0.004303
884.6971	0.004935
884.9363	0.005252
885.1756	0.004619
885.4149	0.005062
885.6542	0.005843
885.8936	0.006645
886.1329	0.004387
886.3722	0.004598
886.6116	0.005484
886.8509	0.006455
887.0903	0.005632
887.3296	0.005210
887.5690	0.003585
887.8084	0.003564
888.0478	0.004999
888.2872	0.005125
888.5266	0.004155
888.7660	0.003859
889.0054	0.003311
889.2448	0.002404
889.4843	0.003015
889.7237	0.005125
889.9632	0.001728
890.2026	0.004028
890.4421	0.004324
890.6816	0.003416
890.9211	0.004049
891.1606	0.003459
891.4001	0.003712
891.6396	0.004155
891.8791	0.003100
892.1186	0.004640
892.3581	0.004851
892.5977	0.005231
892.8372	0.004239
893.0768	0.003944
893.3163	0.004788
893.5559	0.003691
893.7955	0.003733
894.0351	0.002931
894.2747	0.003163
894.5143	0.002994
894.7539	0.002382
894.9935	0.003606
895.2331	0.003015
895.4727	0.002129
895.7124	0.004092
895.9520	0.004598
896.1917	0.003986
896.4314	0.004746
896.6710	0.004661
896.9107	0.004619
897.1504	0.002657
897.3901	0.003585
897.6298	0.003501
897.8695	0.003902
898.1092	0.003859
898.3489	0.004661
898.5887	0.003100
898.8284	0.002699
899.0682	0.003480
899.3079	0.004366
899.5477	0.004197
899.7875	0.002129
900.0272	0.003754
900.2670	0.002889
900.5068	0.002235
900.7466	0.004028
900.9864	0.004851
901.2263	0.004598
901.4661	0.002910
901.7059	0.003184
901.9458	0.002720
902.1856	0.003859
902.4255	0.003037
902.6654	0.004492
902.9052	0.004535
903.1451	0.003163
903.3850	0.001728
903.6249	0.003121
903.8648	0.003459
904.1047	0.003965
904.3446	0.003480
904.5846	0.004872
904.8245	0.003543
905.0644	0.004218
905.3044	0.004134
905.5444	0.005315
905.7843	0.004197
906.0243	0.004598
906.2643	0.004746
906.5043	0.004007
906.7443	0.003332
906.9843	0.003501
907.2243	0.002741
907.4643	0.004113
907.7043	0.002319
907.9444	0.003543
908.1844	0.002108
908.4245	0.003395
908.6645	0.003353
908.9046	0.003606
909.1447	0.002150
909.3847	0.001433
909.6248	0.002340
909.8649	0.003205
910.1050	0.002108
910.3452	0.002826
910.5853	0.003226
910.8254	0.002593
911.0655	0.003015
911.3057	0.001918
911.5458	0.003459
911.7860	0.002256
912.0262	0.001939
912.2663	0.003037
912.5065	0.003691
912.7467	0.002804
912.9869	0.003226
913.2271	0.003437
913.4673	0.002382
913.7075	0.002150
913.9478	0.002868
914.1880	0.002509
914.4283	0.003437
914.6685	0.002066
914.9088	0.002973
915.1490	0.002826
915.3893	0.003121
915.6296	0.003374
915.8699	0.002467
916.1102	0.002087
916.3505	0.000610
916.5908	0.003543
916.8311	0.003754
917.0714	0.004260
917.3118	0.002129
917.5521	0.004281
917.7925	0.003184
918.0328	0.003163
918.2732	0.004809
918.5136	0.002804
918.7539	0.004155
918.9943	0.002741
919.2347	0.003121
919.4751	0.003248
919.7155	0.002973
919.9560	0.004851
920.1964	0.002066
920.4368	0.001897
920.6773	0.003037
920.9177	0.003100
921.1582	0.002847
921.3986	0.003205
921.6391	0.001707
921.8796	0.002509
922.1201	0.002572
922.3606	0.003522
922.6011	0.001560
922.8416	0.001686
923.0821	0.002171
923.3226	0.003184
923.5631	0.001454
923.8037	0.003079
924.0442	0.003543
924.2848	0.002952
924.5254	0.001074
924.7659	0.002108
925.0065	0.002678
925.2471	0.002382
925.4877	0.003585
925.7283	0.002741
925.9689	0.002488
926.2095	0.002087
926.4501	0.001939
926.6908	0.002783
926.9314	0.000779
927.1720	0.002657
927.4127	0.001560
927.6533	0.002277
927.8940	0.002804
928.1347	0.001602
928.3754	0.002804
928.6161	0.001159
928.8568	0.002235
929.0975	0.001771
929.3382	0.001159
929.5789	0.002868
929.8196	0.001138
930.0604	0.001834
930.3011	0.001792
930.5419	0.002382
930.7826	0.002340
931.0234	0.001728
931.2642	0.001264
931.5049	0.002889
931.7457	0.000589
931.9865	0.002636
932.2273	0.002572
932.4681	0.002235
932.7089	0.001581
932.9498	0.002235
933.1906	0.000863
933.4314	0.002150
933.6723	0.001285
933.9131	0.002530
934.1540	0.001581
934.3949	0.001433
934.6358	0.001623
934.8766	0.000906
935.1175	0.000863
935.3584	0.001918
935.5993	0.001517
935.8403	0.001433
936.0812	0.001728
936.3221	-0.000149
936.5630	0.000884
936.8040	0.001560
937.0449	0.001665
937.2859	0.000821
937.5269	0.001011
937.7678	0.001370
938.0088	0.000336
938.2498	0.000842
938.4908	0.000420
938.7318	0.001327
938.9728	0.002678
939.2138	0.000631
939.4549	0.001560
939.6959	0.002657
939.9369	0.000273
940.1780	0.001454
940.4190	0.001306
940.6601	0.001918
940.9012	0.000652
941.1422	0.000610
941.3833	0.000357
941.6244	0.000441
941.8655	0.000863
942.1066	0.001306
942.3477	0.001792
942.5889	0.000863
942.8300	0.001538
943.0711	0.001074
943.3123	0.001728
943.5534	0.000462
943.7946	0.001222
944.0357	0.000673
944.2769	0.000990
944.5181	0.000104
944.7593	0.001538
945.0005	-0.000276
945.2417	0.001306
945.4829	-0.001078
945.7241	0.001117
945.9653	-0.001331
946.2066	0.002150
946.4478	-0.000761
946.6891	0.001433
946.9303	0.000273
947.1716	0.001602
947.4128	-0.000719
947.6541	-0.000508
947.8954	0.000589
948.1367	0.001834
948.3780	-0.000656
948.6193	-0.000192
948.8606	-0.001057
949.1019	0.002193
949.3433	0.000441
949.5846	0.000230
949.8259	0.000357
950.0673	0.000209
950.3086	0.000125
950.5500	0.000420
950.7914	0.000737
951.0327	0.001897
951.2741	0.000526
951.5155	0.000863
951.7569	0.001960
951.9983	0.001264
952.2398	0.000062
952.4812	0.000505
952.7226	0.001771
952.9640	0.000209
953.2055	-0.000382
953.4469	0.001623
953.6884	0.001159
953.9299	0.000589
954.1713	0.000863
954.4128	0.000927
954.6543	0.002868
954.8958	0.000948
955.1373	0.000420
955.3788	0.001792
955.6203	0.000695
955.8618	-0.000128
956.1034	0.001412
956.3449	0.002319
956.5865	0.000167
956.8280	0.001180
957.0696	0.001264
957.3111	0.001602
957.5527	-0.000635
957.7943	0.000758
958.0359	0.000969
958.2775	0.000673
958.5191	0.000399
958.7607	0.000779
959.0023	-0.000508
959.2439	0.000399
959.4856	0.000146
959.7272	0.001876
959.9688	0.001496
960.2105	0.001454
960.4522	0.000251
960.6938	0.001053
960.9355	-0.000698
961.1772	0.000273
961.4189	-0.000002
961.6606	0.000589
961.9023	0.000040
962.1440	0.002699
962.3857	0.000673
962.6274	-0.000508
962.8692	0.000547
963.1109	0.000378
963.3527	-0.000339
963.5944	-0.000909
963.8362	-0.000044
964.0779	-0.000698
964.3197	-0.000508
964.5615	0.000695
964.8033	-0.000550
965.0451	0.000695
965.2869	0.000610
965.5287	0.000188
965.7705	0.000040
966.0123	-0.000107
966.2542	-0.000466
966.4960	0.000083
966.7379	0.000589
966.9797	0.001560
967.2216	0.000188
967.4634	-0.000276
967.7053	0.001053
967.9472	0.001517
968.1891	0.001159
968.4310	-0.000677
968.6729	0.000526
968.9148	-0.000107
969.1567	-0.000255
969.3987	0.001538
969.6406	0.000040
969.8825	0.000167
970.1245	-0.000403
970.3664	-0.000761
970.6084	0.000040
970.8504	0.000610
971.0923	0.000209
971.3343	-0.000023
971.5763	0.000420
971.8183	-0.000234
972.0603	-0.000213
972.3023	0.000673
972.5443	-0.000719
972.7864	0.000420
973.0284	-0.000529
973.2704	0.001370
973.5125	0.000927
973.7545	0.000420
973.9966	0.000737
974.2387	0.000336
974.4807	0.000821
974.7228	0.001180
974.9649	0.000019
975.2070	0.001433
975.4491	0.000125
975.6912	-0.000128
975.9333	0.000336
976.1755	0.000378
976.4176	-0.000297
976.6597	0.000673
976.9019	-0.001247
977.1440	0.000019
977.3862	-0.000571
977.6283	0.000230
977.8705	-0.000171
978.1127	-0.000487
978.3549	0.001032
978.5971	-0.000339
978.8393	0.000969
979.0815	-0.000550
979.3237	0.000610
979.5659	0.000399
979.8082	0.001201
980.0504	0.000441
980.2926	0.000336
980.5349	-0.002048
980.7771	0.002045
981.0194	0.000990
981.2617	-0.000023
981.5040	0.000842
981.7462	-0.000445
981.9885	-0.001120
982.2308	0.000294
982.4731	0.000420
982.7155	-0.001648
982.9578	0.000948
983.2001	-0.000445
983.4424	-0.000065
983.6848	0.000462
983.9271	0.001538
984.1695	-0.000339
984.4118	0.000315
984.6542	0.000294
984.8966	-0.001120
985.1390	0.001159
985.3814	-0.000255
985.6238	0.000336
985.8662	0.001264
986.1086	0.000083
986.3510	-0.000086
986.5934	0.000251
986.8358	0.000673
987.0783	-0.000403
987.3207	-0.002196
987.5632	-0.000487
987.8056	0.000800
988.0481	-0.000128
988.2906	0.000399
988.5331	-0.000445
988.7756	-0.001521
989.0180	0.000906
989.2605	0.001602
989.5031	0.000040
989.7456	-0.000023
989.9881	-0.000909
990.2306	0.000716
990.4732	0.000336
990.7157	-0.000234
990.9582	0.000800
991.2008	0.000188
991.4434	0.000884
991.6859	0.000062
991.9285	-0.000192
992.1711	-0.001057
992.4137	0.000737
992.6563	0.000083
992.8989	-0.000930
993.1415	0.000948
993.3841	-0.000740
993.6267	0.000863
993.8694	0.000863
994.1120	-0.000698
994.3547	0.000800
994.5973	-0.000508
994.8400	0.000336
995.0826	0.001306
995.3253	0.000104
995.5680	0.000673
995.8107	0.000378
996.0534	-0.000424
996.2961	0.001117
996.5388	0.000209
996.7815	-0.000297
997.0242	0.000146
997.2670	0.000610
997.5097	-0.000487
997.7524	-0.000529
997.9952	0.000800
998.2379	0.000251
998.4807	-0.000466
998.7235	0.000821
998.9662	0.000251
999.2090	-0.002280
999.4518	-0.001415
999.6946	-0.000614
999.9374	-0.000846
1000.1802	-0.001521
1000.4230	0.000399
1000.6659	0.000800
1000.9087	-0.000846
1001.1515	-0.000276
1001.3944	0.000695
1001.6372	-0.000297
1001.8801	-0.001373
1002.1230	0.000800
1002.3658	-0.000297
1002.6087	-0.000382
1002.8516	-0.000719
1003.0945	0.000484
1003.3374	-0.000424
1003.5803	-0.000571
1003.8232	-0.001648
1004.0661	-0.000339
1004.3091	0.000484
1004.5520	0.000420
1004.7949	-0.000149
1005.0379	0.001180
1005.2808	0.000484
1005.5238	-0.000635
1005.7667	-0.002006
1006.0097	0.000315
1006.2527	0.000104
1006.4957	0.000019
1006.7387	0.000019
1006.9817	-0.000297
1007.2247	-0.001289
1007.4677	0.000167
1007.7107	-0.000044
1007.9538	0.000104
1008.1968	0.000104
1008.4398	-0.000065
1008.6829	-0.000825
1008.9259	0.000251
1009.1690	-0.001394
1009.4121	-0.000044
1009.6551	-0.000508
1009.8982	0.000673
1010.1413	0.000315
1010.3844	-0.000339
1010.6275	-0.000846
1010.8706	-0.000614
1011.1137	0.001053
1011.3568	0.000462
1011.6000	0.000462
1011.8431	0.000167
1012.0863	-0.000909
1012.3294	0.000062
1012.5726	0.000104
1012.8157	0.000821
1013.0589	-0.000846
1013.3021	0.000209
1013.5452	-0.000614
1013.7884	0.000842
1014.0316	-0.000213
1014.2748	0.000673
1014.5180	0.001138
1014.7613	0.000652
1015.0045	0.000125
1015.2477	-0.001120
1015.4909	0.000969
1015.7342	-0.001036
1015.9774	-0.001162
1016.2207	-0.000149
1016.4640	-0.000276
1016.7072	-0.000044
1016.9505	-0.000213
1017.1938	0.001053
1017.4371	0.000167
1017.6804	0.000462
1017.9237	-0.001310
1018.1670	0.000251
1018.4103	-0.000128
1018.6536	-0.001162
1018.8969	-0.000888
1019.1403	0.000441
1019.3836	0.000399
1019.6270	-0.000002
1019.8703	-0.000297
1020.1137	0.000040
1020.3571	0.001391
1020.6004	-0.000023
1020.8438	-0.000656
1021.0872	0.000209
1021.3306	0.000547
1021.5740	-0.000424
1021.8174	-0.000719
1022.0608	-0.000065
1022.3042	-0.001331
1022.5477	-0.000445
1022.7911	-0.001858
1023.0345	0.000990
