# Wavelength (nm)	Intensity (a.u.)
197.7802	-0.000334
197.9842	0.000678
198.1882	0.002070
198.3922	0.000510
198.5963	-0.000292
198.8003	0.000404
199.0044	0.000552
199.2085	0.001332
199.4126	0.001416
199.6168	0.000868
199.8209	0.001817
200.0251	-0.000292
200.2292	0.001648
200.4334	-0.000460
200.6376	-0.001219
200.8418	-0.000081
201.0461	-0.000671
201.2503	0.001374
201.4546	0.001943
201.6589	0.001922
201.8631	0.001479
202.0674	-0.000418
202.2718	0.001142
202.4761	0.000467
202.6805	0.000404
202.8848	0.001079
203.0892	0.000025
203.2936	0.000193
203.4980	0.000320
203.7024	0.000952
203.9069	0.000425
204.1113	-0.000060
204.3158	0.001501
204.5203	0.001711
204.7248	-0.000123
204.9293	0.000320
205.1338	0.000362
205.3384	0.000193
205.5430	0.001311
205.7475	0.001627
205.9521	0.001479
206.1567	0.000763
206.3614	0.000573
206.5660	0.001037
206.7706	-0.000018
206.9753	0.001353
207.1800	0.000826
207.3847	0.000320
207.5894	0.000763
207.7941	-0.000418
207.9989	0.001332
208.2036	-0.000039
208.4084	0.001100
208.6132	0.000784
208.8180	-0.000081
209.0228	0.000910
209.2276	0.001606
209.4325	0.000109
209.6373	0.001374
209.8422	0.000805
210.0471	0.001733
210.2520	0.000742
210.4569	0.000973
210.6618	0.000995
210.8668	0.000720
211.0718	0.000868
211.2767	0.002724
211.4817	0.000383
211.6867	0.001269
211.8918	0.000973
212.0968	0.001142
212.3018	-0.000102
212.5069	0.002492
212.7120	-0.000671
212.9171	0.001205
213.1222	0.000636
213.3273	0.000763
213.5325	0.000067
213.7376	0.001901
213.9428	-0.000186
214.1480	0.001353
214.3532	-0.000018
214.5584	0.001479
214.7636	0.001922
214.9689	0.001648
215.1741	0.001079
215.3794	-0.000861
215.5847	-0.000165
215.7900	0.001458
215.9953	0.001037
216.2007	0.001311
216.4060	0.001669
216.6114	0.001479
216.8168	0.000868
217.0222	0.000763
217.2276	0.000404
217.4330	0.000446
217.6384	0.001248
217.8439	0.001964
218.0494	-0.000418
218.2548	0.001332
218.4603	-0.000734
218.6659	0.001711
218.8714	0.001606
219.0769	0.000446
219.2825	0.001079
219.4881	0.000046
219.6936	0.001311
219.8992	0.000636
220.1049	0.000615
220.3105	0.001079
220.5161	-0.000545
220.7218	0.000931
220.9275	0.001416
221.1332	0.000742
221.3389	0.000004
221.5446	0.000552
221.7503	0.000193
221.9561	0.001522
222.1618	-0.000650
222.3676	0.001627
222.5734	0.001353
222.7792	0.000341
222.9850	0.001184
223.1909	0.000341
223.3967	0.000257
223.6026	0.001437
223.8085	0.000615
224.0144	0.000826
224.2203	0.000488
224.4262	0.001648
224.6322	0.000699
224.8381	0.000446
225.0441	0.000193
225.2501	0.000868
225.4561	0.001416
225.6621	0.001458
225.8681	0.000235
226.0742	0.000826
226.2802	0.001374
226.4863	0.001901
226.6924	0.001585
226.8985	0.000446
227.1046	0.000362
227.3107	0.000130
227.5169	-0.000123
227.7230	0.001922
227.9292	0.000826
228.1354	0.001058
228.3416	0.001184
228.5478	0.000130
228.7541	0.000257
228.9603	0.001142
229.1666	-0.000798
229.3729	0.001733
229.5791	0.001163
229.7855	0.001627
229.9918	0.001817
230.1981	0.001037
230.4045	0.001479
230.6108	0.000320
230.8172	-0.000608
231.0236	0.000784
231.2300	0.001290
231.4364	0.000488
231.6429	0.000025
231.8493	0.001058
232.0558	0.000889
232.2623	0.000826
232.4688	0.000088
232.6753	0.000130
232.8818	-0.000798
233.0884	0.000299
233.2949	-0.000123
233.5015	0.002471
233.7081	-0.000060
233.9147	0.000636
234.1213	-0.000186
234.3279	0.000214
234.5346	0.000214
234.7413	-0.000018
234.9479	-0.000629
235.1546	0.000130
235.3613	-0.000144
235.5680	0.003483
235.7748	0.000995
235.9815	-0.000545
236.1883	0.000299
236.3951	0.002049
236.6018	0.000109
236.8087	0.000868
237.0155	0.001543
237.2223	0.001564
237.4292	0.001184
237.6360	0.000004
237.8429	-0.000060
238.0498	0.000235
238.2567	0.001416
238.4636	0.000910
238.6706	0.000088
238.8775	0.002386
239.0845	0.001353
239.2915	0.002028
239.4985	0.000067
239.7055	0.001142
239.9125	0.001037
240.1195	0.001311
240.3266	0.001374
240.5337	-0.000503
240.7407	0.001458
240.9478	0.002007
241.1549	0.000636
241.3621	0.000973
241.5692	-0.000250
241.7764	0.001226
241.9835	0.000067
242.1907	0.000615
242.3979	-0.000271
242.6051	0.001290
242.8124	0.001901
243.0196	0.001395
243.2269	0.002407
243.4341	0.001269
243.6414	0.000214
243.8487	-0.000250
244.0560	0.002091
244.2634	0.000784
244.4707	0.000446
244.6781	0.002070
244.8854	0.000636
245.0928	0.000805
245.3002	-0.000292
245.5076	0.001796
245.7151	0.000995
245.9225	0.002766
246.1300	-0.000397
246.3375	0.000784
246.5449	-0.000861
246.7524	0.000636
246.9600	0.001205
247.1675	0.001543
247.3750	0.000973
247.5826	-0.000734
247.7902	0.000004
247.9978	-0.001515
248.2054	-0.000924
248.4130	0.002196
248.6206	-0.000292
248.8283	0.001163
249.0359	0.000446
249.2436	0.001479
249.4513	0.000046
249.6590	0.000826
249.8667	0.000278
250.0745	0.000488
250.2822	0.001248
250.4900	0.001100
250.6978	-0.000228
250.9056	0.001100
251.1134	0.001585
251.3212	0.001163
251.5290	0.000088
251.7369	0.001226
251.9447	0.001142
252.1526	0.001226
252.3605	0.000763
252.5684	0.000320
252.7763	-0.000039
252.9843	0.002365
253.1922	0.000889
253.4002	0.000404
253.6082	0.000214
253.8162	0.001079
254.0242	0.001226
254.2322	0.001543
254.4402	0.000805
254.6483	0.002702
254.8564	0.001543
255.0644	0.000678
255.2725	0.001880
255.4806	-0.000060
255.6888	0.001184
255.8969	0.000151
256.1051	0.000594
256.3132	0.000214
256.5214	-0.001114
256.7296	0.001669
256.9378	-0.000018
257.1460	0.002154
257.3543	0.000615
257.5625	0.001332
257.7708	0.000383
257.9791	0.000657
258.1874	0.001332
258.3957	0.000172
258.6040	0.001226
258.8124	0.000931
259.0207	0.000699
259.2291	0.001479
259.4375	0.000025
259.6459	0.001332
259.8543	0.000952
260.0627	-0.000460
260.2711	0.001311
260.4796	0.000446
260.6881	0.000320
260.8965	0.000889
261.1050	0.002787
261.3135	0.000573
261.5221	0.000594
261.7306	0.001711
261.9392	0.000678
262.1477	0.001058
262.3563	0.000889
262.5649	0.000826
262.7735	0.000657
262.9822	0.001395
263.1908	0.000531
263.3995	0.000151
263.6081	-0.000355
263.8168	0.000720
264.0255	0.001733
264.2342	0.000889
264.4429	0.000720
264.6517	0.000341
264.8604	0.001226
265.0692	0.000341
265.2780	0.000784
265.4868	0.000320
265.6956	0.001121
265.9044	0.000699
266.1133	0.001248
266.3221	-0.000060
266.5310	0.000109
266.7399	0.000151
266.9488	0.000109
267.1577	0.000826
267.3666	0.000425
267.5755	0.000910
267.7845	0.001501
267.9935	0.000615
268.2024	-0.000081
268.4114	0.001248
268.6205	0.000278
268.8295	0.001669
269.0385	0.000952
269.2476	0.001079
269.4566	-0.000207
269.6657	0.001775
269.8748	0.000784
270.0839	0.000615
270.2931	0.000025
270.5022	0.001374
270.7114	0.001332
270.9205	0.000973
271.1297	0.001100
271.3389	0.000742
271.5481	0.000004
271.7573	0.000531
271.9666	-0.000481
272.1758	0.000425
272.3851	0.000214
272.5944	0.000151
272.8037	0.001269
273.0130	0.001690
273.2223	-0.000081
273.4316	0.001332
273.6410	0.000995
273.8504	0.001479
274.0597	0.000362
274.2691	0.000931
274.4785	0.002049
274.6880	0.001163
274.8974	0.000868
275.1069	0.002513
275.3163	0.001880
275.5258	0.000488
275.7353	0.000383
275.9448	0.001986
276.1543	0.001311
276.3639	0.000763
276.5734	-0.000629
276.7830	-0.000102
276.9926	0.001374
277.2022	0.000995
277.4118	0.000763
277.6214	0.001248
277.8310	0.000362
278.0407	0.001100
278.2503	0.000278
278.4600	0.001543
278.6697	0.001332
278.8794	0.001754
279.0891	0.001248
279.2989	0.000720
279.5086	0.000278
279.7184	0.001226
279.9281	-0.000481
280.1379	0.001205
280.3477	0.000889
280.5576	0.001332
280.7674	-0.000987
280.9772	-0.000018
281.1871	0.000320
281.3970	0.001458
281.6069	-0.000397
281.8168	0.000763
282.0267	0.000889
282.2366	0.000109
282.4466	-0.000756
282.6565	0.000109
282.8665	0.000784
283.0765	0.000193
283.2865	0.000446
283.4965	-0.000228
283.7065	0.000488
283.9166	0.000446
284.1266	-0.000481
284.3367	0.001733
284.5468	0.000510
284.7569	-0.000060
284.9670	0.000615
285.1771	0.000278
285.3873	0.001585
285.5974	-0.000018
285.8076	0.000004
286.0178	0.000320
286.2280	-0.000228
286.4382	0.001986
286.6484	-0.000292
286.8587	0.000720
287.0689	0.001100
287.2792	0.001184
287.4895	0.000257
287.6998	0.000362
287.9101	0.000742
288.1204	0.001859
288.3308	0.000889
288.5411	0.001501
288.7515	-0.000566
288.9619	0.001627
289.1723	-0.000123
289.3827	0.001374
289.5931	0.002597
289.8035	0.000193
290.0140	0.000636
290.2245	0.001901
290.4349	0.000805
290.6454	0.000636
290.8559	-0.000165
291.0665	0.000763
291.2770	0.000404
291.4875	0.001479
291.6981	0.000952
291.9087	0.000235
292.1193	0.000067
292.3299	0.000910
292.5405	0.002091
292.7511	0.000784
292.9618	0.000257
293.1724	0.002639
293.3831	0.000826
293.5938	0.002639
293.8045	0.000720
294.0152	0.000257
294.2260	0.000910
294.4367	0.001163
294.6475	0.000720
294.8582	0.001416
295.0690	-0.000481
295.2798	0.002471
295.4906	-0.000060
295.7015	-0.000460
295.9123	0.000025
296.1232	0.000004
296.3340	0.000488
296.5449	0.001184
296.7558	0.001880
296.9667	0.001648
297.1777	0.000510
297.3886	0.001226
297.5995	0.000573
297.8105	0.001016
298.0215	0.000067
298.2325	0.001606
298.4435	-0.000081
298.6545	0.000742
298.8656	0.001332
299.0766	0.001332
299.2877	0.001079
299.4988	0.000510
299.7099	-0.000545
299.9210	0.001479
300.1321	0.000383
300.3432	0.000573
300.5544	0.001775
300.7655	0.001290
300.9767	0.000973
301.1879	0.000847
301.3991	0.000488
301.6103	0.000573
301.8215	0.000025
302.0328	0.000404
302.2441	0.000847
302.4553	0.002871
302.6666	0.001690
302.8779	0.001627
303.0892	0.000784
303.3006	0.000404
303.5119	0.000320
303.7233	0.002344
303.9346	0.000720
304.1460	0.000257
304.3574	0.000931
304.5688	0.001079
304.7803	0.001100
304.9917	0.001016
305.2031	0.000383
305.4146	0.000973
305.6261	0.000826
305.8376	0.001353
306.0491	-0.000207
306.2606	0.001796
306.4722	0.000763
306.6837	0.000257
306.8953	-0.000186
307.1069	0.000235
307.3184	0.000151
307.5301	0.000109
307.7417	0.000172
307.9533	0.000573
308.1650	0.000573
308.3766	0.001100
308.5883	0.000720
308.8000	0.001269
309.0117	0.001037
309.2234	-0.000271
309.4351	0.000531
309.6469	0.000995
309.8586	0.001796
310.0704	0.001205
310.2822	-0.000039
310.4940	0.001585
310.7058	0.000552
310.9176	0.002028
311.1295	0.001627
311.3413	0.001184
311.5532	0.000510
311.7651	0.001880
311.9770	0.000657
312.1889	0.000657
312.4008	0.000973
312.6127	0.000362
312.8247	0.000868
313.0366	0.000067
313.2486	0.001079
313.4606	0.001163
313.6726	0.001121
313.8846	0.000931
314.0967	0.001100
314.3087	0.000320
314.5208	-0.000587
314.7328	0.002344
314.9449	0.000636
315.1570	0.001796
315.3692	0.000889
315.5813	-0.000060
315.7934	-0.000144
316.0056	0.001964
316.2177	0.000847
316.4299	0.001922
316.6421	0.000299
316.8543	0.000910
317.0666	0.000763
317.2788	-0.000608
317.4911	0.000488
317.7033	0.000025
317.9156	0.001817
318.1279	0.001121
318.3402	0.000615
318.5525	0.000151
318.7649	0.002281
318.9772	0.000531
319.1896	0.000362
319.4019	0.001016
319.6143	-0.000376
319.8267	0.001796
320.0392	0.001859
320.2516	0.001332
320.4640	0.001564
320.6765	0.002070
320.8890	0.001564
321.1014	0.000510
321.3139	0.001311
321.5265	0.000784
321.7390	0.000235
321.9515	-0.000081
322.1641	0.000299
322.3766	0.001711
322.5892	0.000046
322.8018	0.001585
323.0144	0.000193
323.2270	0.002007
323.4397	0.000910
323.6523	0.001163
323.8650	-0.000587
324.0777	0.001205
324.2904	0.000826
324.5031	0.000699
324.7158	0.000868
324.9285	0.001479
325.1412	0.001543
325.3540	0.000299
325.5668	0.000995
325.7796	0.000742
325.9924	0.000235
326.2052	0.001416
326.4180	0.000868
326.6308	0.001100
326.8437	0.002007
327.0566	0.000826
327.2694	0.001226
327.4823	0.000615
327.6952	0.000868
327.9082	0.000868
328.1211	0.001058
328.3340	0.001880
328.5470	0.000636
328.7600	0.000973
328.9730	0.000763
329.1860	0.002175
329.3990	0.001522
329.6120	0.000868
329.8251	0.000931
330.0381	0.002007
330.2512	0.001205
330.4643	0.000889
330.6774	0.000973
330.8905	0.001353
331.1036	0.000109
331.3167	0.000425
331.5299	-0.000018
331.7431	0.001711
331.9562	-0.000734
332.1694	0.000004
332.3826	0.001269
332.5959	0.000025
332.8091	0.000467
333.0223	0.001711
333.2356	-0.000081
333.4489	0.001353
333.6622	0.000720
333.8755	0.000847
334.0888	-0.000144
334.3021	0.001479
334.5154	0.000615
334.7288	0.000889
334.9422	0.000172
335.1555	0.001416
335.3689	0.001479
335.5823	0.001585
335.7958	0.001585
336.0092	0.001838
336.2227	0.000257
336.4361	-0.000039
336.6496	0.000193
336.8631	0.000826
337.0766	0.000299
337.2901	0.000046
337.5036	0.000151
337.7172	0.002745
337.9307	0.001690
338.1443	0.000341
338.3579	0.002576
338.5715	0.001479
338.7851	0.000467
338.9987	0.001986
339.2124	0.001669
339.4260	0.001163
339.6397	0.000615
339.8533	0.001690
340.0670	0.000678
340.2807	0.000067
340.4945	0.000278
340.7082	0.000615
340.9219	-0.000566
341.1357	0.001163
341.3495	0.000025
341.5633	0.001416
341.7771	-0.000439
341.9909	0.000130
342.2047	0.000067
342.4185	0.001037
342.6324	0.000889
342.8463	0.001395
343.0601	0.000868
343.2740	0.000004
343.4879	0.000805
343.7019	0.001037
343.9158	0.000341
344.1297	0.001711
344.3437	0.000931
344.5577	0.000446
344.7717	-0.000207
344.9857	0.000699
345.1997	-0.000840
345.4137	0.001395
345.6277	-0.000102
345.8418	0.002913
346.0559	0.000425
346.2699	0.001775
346.4840	0.000889
346.6981	0.000594
346.9123	0.000320
347.1264	0.000847
347.3406	-0.000713
347.5547	0.001838
347.7689	0.000594
347.9831	0.000257
348.1973	0.000636
348.4115	-0.000039
348.6257	0.001374
348.8400	0.001184
349.0542	-0.000018
349.2685	0.001585
349.4828	0.000004
349.6971	0.000805
349.9114	0.000235
350.1257	0.000742
350.3400	0.000784
350.5544	0.001016
350.7687	0.000425
350.9831	0.001458
351.1975	0.001290
351.4119	0.000889
351.6263	-0.000271
351.8407	0.001142
352.0552	0.002513
352.2696	0.000763
352.4841	0.000446
352.6986	0.002049
352.9131	0.000257
353.1276	0.001248
353.3421	0.000214
353.5566	0.000636
353.7712	0.001733
353.9858	0.001332
354.2003	-0.001641
354.4149	0.001142
354.6295	0.001543
354.8441	0.000510
355.0588	0.001058
355.2734	-0.000165
355.4881	0.001395
355.7027	0.001184
355.9174	0.001437
356.1321	0.001058
356.3468	0.000678
356.5615	0.000383
356.7763	0.001163
356.9910	0.001079
357.2058	-0.000481
357.4206	0.001269
357.6353	0.001248
357.8501	0.002112
358.0650	0.000404
358.2798	0.000025
358.4946	0.000320
358.7095	0.001205
358.9243	0.001458
359.1392	0.000109
359.3541	0.002196
359.5690	0.001037
359.7839	0.001859
359.9989	0.001437
360.2138	0.000130
360.4288	0.001711
360.6438	0.000636
360.8587	0.000320
361.0737	0.000784
361.2888	-0.000228
361.5038	0.000467
361.7188	0.000151
361.9339	0.001374
362.1489	0.002302
362.3640	0.000383
362.5791	0.001353
362.7942	0.001037
363.0093	0.001817
363.2245	-0.001051
363.4396	0.001543
363.6548	0.001522
363.8699	0.001016
364.0851	-0.000334
364.3003	0.000172
364.5155	-0.000165
364.7308	0.000868
364.9460	0.000952
365.1612	0.000995
365.3765	0.001353
365.5918	0.001037
365.8071	0.000235
366.0224	0.001290
366.2377	0.000404
366.4530	0.001627
366.6684	0.001079
366.8837	-0.000165
367.0991	0.000784
367.3145	0.000720
367.5299	0.001311
367.7453	0.001838
367.9607	0.001775
368.1761	0.001142
368.3916	-0.000144
368.6070	0.002070
368.8225	0.001733
369.0380	0.000193
369.2535	0.001395
369.4690	0.001121
369.6845	0.000847
369.9001	0.001564
370.1156	-0.000144
370.3312	0.001964
370.5468	0.001817
370.7624	0.001058
370.9780	0.000531
371.1936	0.001606
371.4092	0.000510
371.6249	0.001606
371.8405	0.002070
372.0562	0.000847
372.2719	-0.000207
372.4876	0.000193
372.7033	-0.000924
372.9190	0.001374
373.1348	0.000657
373.3505	0.000510
373.5663	0.000404
373.7820	0.001374
373.9978	0.000193
374.2136	0.001416
374.4294	0.000910
374.6453	0.000699
374.8611	0.000552
375.0770	0.000615
375.2928	0.000995
375.5087	-0.000587
375.7246	-0.000418
375.9405	-0.000144
376.1564	0.001416
376.3724	0.001121
376.5883	-0.000439
376.8043	-0.000987
377.0203	-0.000439
377.2362	0.002007
377.4522	0.001163
377.6682	0.001374
377.8843	0.000910
378.1003	0.001733
378.3164	0.001880
378.5324	0.000151
378.7485	0.000889
378.9646	0.000720
379.1807	0.000172
379.3968	-0.000460
379.6129	0.002196
379.8291	-0.000608
380.0452	-0.000629
380.2614	0.000151
380.4776	0.001184
380.6938	0.001353
380.9100	0.000278
381.1262	0.001395
381.3424	0.001311
381.5587	0.000446
381.7749	0.002049
381.9912	0.001416
382.2075	0.001374
382.4238	0.002386
382.6401	0.000383
382.8564	0.000531
383.0728	0.001058
383.2891	0.000425
383.5055	-0.000777
383.7219	0.000826
383.9382	0.001100
384.1546	0.001184
384.3711	0.001564
384.5875	0.002302
384.8039	0.001690
385.0204	0.003187
385.2368	0.000594
385.4533	0.001248
385.6698	0.000362
385.8863	0.001733
386.1028	0.001775
386.3194	0.001016
386.5359	0.001458
386.7525	0.000383
386.9690	0.000784
387.1856	0.001142
387.4022	-0.000039
387.6188	0.001648
387.8355	0.001859
388.0521	0.003145
388.2687	0.002365
388.4854	0.001690
388.7021	0.001543
388.9188	0.001922
389.1355	0.001880
389.3522	0.002007
389.5689	0.001943
389.7856	0.001733
390.0024	0.003525
390.2192	0.002724
390.4359	0.002449
390.6527	0.003483
390.8695	0.002597
391.0863	0.003208
391.3032	0.002745
391.5200	0.004178
391.7369	0.004052
391.9537	0.004811
392.1706	0.004579
392.3875	0.005085
392.6044	0.005675
392.8213	0.004537
393.0383	0.004263
393.2552	0.004558
393.4722	0.006603
393.6891	0.006182
393.9061	0.005085
394.1231	0.007151
394.3401	0.004516
394.5572	0.006941
394.7742	0.005380
394.9912	0.006456
395.2083	0.006224
395.4254	0.006730
395.6425	0.008058
395.8596	0.008332
396.0767	0.008227
396.2938	0.008100
396.5109	0.008817
396.7281	0.007679
396.9453	0.007531
397.1624	0.009787
397.3796	0.008438
397.5968	0.008501
397.8140	0.009703
398.0313	0.011706
398.2485	0.011221
398.4658	0.009745
398.6830	0.012001
398.9003	0.011390
399.1176	0.011938
399.3349	0.011917
399.5522	0.013119
399.7696	0.014236
399.9869	0.012465
400.2043	0.013013
400.4216	0.010694
400.6390	0.011411
400.8564	0.012634
401.0738	0.011769
401.2912	0.012823
401.5087	0.012296
401.7261	0.011959
401.9436	0.012866
402.1610	0.013372
402.3785	0.014004
402.5960	0.013857
402.8135	0.014173
403.0310	0.013351
403.2486	0.015881
403.4661	0.014827
403.6837	0.015312
403.9013	0.013140
404.1189	0.015080
404.3365	0.014974
404.5541	0.015839
404.7717	0.016071
404.9893	0.017420
405.2070	0.016345
405.4246	0.018685
405.6423	0.018263
405.8600	0.015839
406.0777	0.016619
406.2954	0.016766
406.5131	0.016787
406.7309	0.017568
406.9486	0.016387
407.1664	0.014616
407.3842	0.017736
407.6020	0.016345
407.8198	0.017779
408.0376	0.016176
408.2554	0.016303
408.4733	0.018200
408.6911	0.017399
408.9090	0.018390
409.1269	0.015986
409.3448	0.018770
409.5627	0.017294
409.7806	0.019001
409.9985	0.016998
410.2165	0.017294
410.4344	0.017989
410.6524	0.018285
410.8704	0.019550
411.0884	0.018306
411.3064	0.020815
411.5244	0.019381
411.7424	0.019065
411.9605	0.020035
412.1785	0.020182
412.3966	0.020224
412.6147	0.019044
412.8328	0.020625
413.0509	0.020477
413.2690	0.021131
413.4871	0.020604
413.7053	0.021089
413.9234	0.019634
414.1416	0.019529
414.3598	0.020267
414.5780	0.018474
414.7962	0.020161
415.0144	0.019929
415.2326	0.021321
415.4509	0.021595
415.6692	0.020372
415.8874	0.021237
416.1057	0.020983
416.3240	0.021279
416.5423	0.021426
416.7606	0.019634
416.9790	0.021827
417.1973	0.019908
417.4157	0.019782
417.6341	0.020836
417.8524	0.021890
418.0708	0.022628
418.2893	0.021131
418.5077	0.020435
418.7261	0.021152
418.9446	0.022228
419.1630	0.021806
419.3815	0.021953
419.6000	0.020836
419.8185	0.023113
420.0370	0.021764
420.2555	0.022691
420.4741	0.023725
420.6926	0.023176
420.9112	0.023429
421.1298	0.025433
421.3483	0.026192
421.5669	0.026424
421.7856	0.025939
422.0042	0.026171
422.2228	0.027372
422.4415	0.025433
422.6601	0.025074
422.8788	0.023619
423.0975	0.026107
423.3162	0.026318
423.5349	0.026360
423.7536	0.021279
423.9724	0.024716
424.1911	0.023197
424.4099	0.024589
424.6287	0.024610
424.8475	0.023303
425.0663	0.023809
425.2851	0.024652
425.5039	0.023261
425.7228	0.022586
425.9416	0.021953
426.1605	0.023429
426.3793	0.023050
426.5982	0.022544
426.8171	0.021068
427.0361	0.023134
427.2550	0.022797
427.4739	0.025011
427.6929	0.024231
427.9118	0.022249
428.1308	0.024167
428.3498	0.021975
428.5688	0.021553
428.7878	0.022459
429.0068	0.023071
429.2259	0.023472
429.4449	0.024547
429.6640	0.027710
429.8831	0.027963
430.1022	0.029080
430.3213	0.027351
430.5404	0.027183
430.7595	0.024779
430.9787	0.027162
431.1978	0.026192
431.4170	0.026086
431.6362	0.024146
431.8553	0.024210
432.0745	0.020667
432.2938	0.021511
432.5130	0.020435
432.7322	0.021405
432.9515	0.021279
433.1707	0.021047
433.3900	0.021806
433.6093	0.026339
433.8286	0.027246
434.0479	0.026677
434.2673	0.025137
434.4866	0.025179
434.7059	0.023240
434.9253	0.022712
435.1447	0.023092
435.3641	0.022438
435.5835	0.023134
435.8029	0.023514
436.0223	0.021785
436.2418	0.023493
436.4612	0.024442
436.6807	0.025327
436.9001	0.024083
437.1196	0.023704
437.3391	0.023134
437.5586	0.023429
437.7782	0.021574
437.9977	0.023851
438.2173	0.023429
438.4368	0.023514
438.6564	0.024568
438.8760	0.024631
439.0956	0.024526
439.3152	0.023893
439.5348	0.023556
439.7545	0.024231
439.9741	0.023155
440.1938	0.024673
440.4135	0.022818
440.6331	0.024589
440.8528	0.023092
441.0725	0.024146
441.2923	0.027878
441.5120	0.026930
441.7318	0.028996
441.9515	0.027035
442.1713	0.026571
442.3911	0.026424
442.6109	0.024842
442.8307	0.025686
443.0505	0.024420
443.2703	0.026381
443.4902	0.025664
443.7101	0.026213
443.9299	0.026424
444.1498	0.024336
444.3697	0.025433
444.5896	0.025095
444.8095	0.025749
445.0295	0.024547
445.2494	0.026107
445.4694	0.024990
445.6894	0.025622
445.9093	0.023767
446.1293	0.024652
446.3493	0.024020
446.5694	0.025201
446.7894	0.026592
447.0094	0.024884
447.2295	0.025454
447.4496	0.023303
447.6696	0.023598
447.8897	0.023809
448.1098	0.021384
448.3300	0.022712
448.5501	0.022038
448.7702	0.023029
448.9904	0.021848
449.2106	0.022291
449.4307	0.023767
449.6509	0.022038
449.8711	0.022923
450.0914	0.022944
450.3116	0.022249
450.5318	0.019950
450.7521	0.023071
450.9724	0.020878
451.1926	0.020246
451.4129	0.019550
451.6332	0.020477
451.8535	0.018306
452.0739	0.019655
452.2942	0.020119
452.5146	0.019508
452.7349	0.018770
452.9553	0.020604
453.1757	0.017378
453.3961	0.018453
453.6165	0.018559
453.8369	0.017251
454.0574	0.018116
454.2778	0.017315
454.4983	0.017610
454.7188	0.017462
454.9393	0.016661
455.1597	0.019233
455.3803	0.018959
455.6008	0.019971
455.8213	0.018580
456.0419	0.017800
456.2624	0.017062
456.4830	0.017631
456.7036	0.015965
456.9242	0.016513
457.1448	0.017146
457.3654	0.016345
457.5860	0.016661
457.8067	0.017779
458.0274	0.017104
458.2480	0.017357
458.4687	0.017441
458.6894	0.017399
458.9101	0.017694
459.1308	0.016745
459.3516	0.016176
459.5723	0.015839
459.7931	0.018095
460.0138	0.018137
460.2346	0.016366
460.4554	0.014974
460.6762	0.016534
460.8970	0.016809
461.1178	0.014552
461.3387	0.015628
461.5595	0.014447
461.7804	0.013435
462.0013	0.014468
462.2222	0.013329
462.4431	0.012908
462.6640	0.012402
462.8849	0.013772
463.1059	0.013456
463.3268	0.014004
463.5478	0.013836
463.7687	0.012781
463.9897	0.012212
464.2107	0.014531
464.4317	0.014763
464.6528	0.015501
464.8738	0.014595
465.0948	0.013878
465.3159	0.014953
465.5370	0.013329
465.7581	0.013224
465.9792	0.014869
466.2003	0.012085
466.4214	0.013604
466.6425	0.011137
466.8637	0.012149
467.0848	0.012971
467.3060	0.012317
467.5272	0.011116
467.7484	0.011917
467.9696	0.011516
468.1908	0.010926
468.4120	0.011158
468.6333	0.009829
468.8545	0.009682
469.0758	0.011390
469.2970	0.010841
469.5183	0.009091
469.7396	0.009829
469.9610	0.008902
470.1823	0.009914
470.4036	0.008269
470.6250	0.007679
470.8463	0.009408
471.0677	0.006856
471.2891	0.008965
471.5105	0.009787
471.7319	0.008733
471.9533	0.008121
472.1748	0.008206
472.3962	0.007067
472.6177	0.009387
472.8391	0.008817
473.0606	0.008353
473.2821	0.008986
473.5036	0.008121
473.7251	0.009597
473.9467	0.010378
474.1682	0.010040
474.3898	0.007953
474.6113	0.008417
474.8329	0.008185
475.0545	0.009176
475.2761	0.008965
475.4977	0.007615
475.7193	0.007383
475.9410	0.006392
476.1626	0.008691
476.3843	0.005886
476.6060	0.007109
476.8277	0.008438
477.0494	0.007362
477.2711	0.007215
477.4928	0.006730
477.7145	0.005760
477.9363	0.008290
478.1580	0.007468
478.3798	0.007278
478.6016	0.007426
478.8234	0.008227
479.0452	0.007130
479.2670	0.007130
479.4888	0.006203
479.7107	0.006962
479.9325	0.007573
480.1544	0.007236
480.3763	0.006561
480.5982	0.007130
480.8201	0.006519
481.0420	0.006118
481.2639	0.006477
481.4859	0.007932
481.7078	0.007573
481.9298	0.006055
482.1517	0.006582
482.3737	0.006308
482.5957	0.006877
482.8177	0.005591
483.0398	0.005486
483.2618	0.006667
483.4838	0.004200
483.7059	0.006582
483.9280	0.004663
484.1501	0.007679
484.3721	0.006519
484.5943	0.006097
484.8164	0.007151
485.0385	0.005950
485.2606	0.004769
485.4828	0.007721
485.7050	0.013372
485.9271	0.016007
486.1493	0.018390
486.3715	0.014890
486.5937	0.012360
486.8160	0.010061
487.0382	0.009618
487.2605	0.008564
487.4827	0.009176
487.7050	0.006856
487.9273	0.005380
488.1496	0.005844
488.3719	0.004600
488.5942	0.006920
488.8165	0.005950
489.0389	0.005907
489.2612	0.004600
489.4836	0.003124
489.7060	0.002808
489.9284	0.004368
490.1508	0.004368
490.3732	0.005085
490.5956	0.003651
490.8180	0.004453
491.0405	0.003208
491.2630	0.005085
491.4854	0.002766
491.7079	0.004178
491.9304	0.004959
492.1529	0.004453
492.3755	0.003904
492.5980	0.005212
492.8205	0.004600
493.0431	0.004706
493.2657	0.003335
493.4882	0.004706
493.7108	0.003019
493.9334	0.004347
494.1561	0.003040
494.3787	0.003799
494.6013	0.004010
494.8240	0.003588
495.0466	0.003145
495.2693	0.003883
495.4920	0.001838
495.7147	0.004073
495.9374	0.003820
496.1601	0.003883
496.3829	0.002702
496.6056	0.004200
496.8284	0.002449
497.0511	0.004663
497.2739	0.003040
497.4967	0.005380
497.7195	0.002977
497.9423	0.003166
498.1652	0.002871
498.3880	0.004389
498.6109	0.003356
498.8337	0.003019
499.0566	0.003925
499.2795	0.003778
499.5024	0.004136
499.7253	0.004389
499.9482	0.003567
500.1712	0.004537
500.3941	0.003820
500.6171	0.003651
500.8400	0.003672
501.0630	0.003693
501.2860	0.003440
501.5090	0.002049
501.7320	0.005444
501.9551	0.003651
502.1781	0.002407
502.4012	0.003651
502.6242	0.003230
502.8473	0.003546
503.0704	0.002365
503.2935	0.002154
503.5166	0.003272
503.7397	0.002850
503.9628	0.004263
504.1860	0.003925
504.4092	0.003757
504.6323	0.003462
504.8555	0.002702
505.0787	0.003820
505.3019	0.003019
505.5251	0.003567
505.7483	0.002492
505.9716	0.004263
506.1948	0.002386
506.4181	0.003925
506.6414	0.002049
506.8647	0.003630
507.0880	0.003651
507.3113	0.004157
507.5346	0.003483
507.7579	0.003672
507.9813	0.004200
508.2046	0.002639
508.4280	0.003314
508.6514	0.004326
508.8748	0.002175
509.0982	0.002681
509.3216	0.002639
509.5450	0.002070
509.7685	0.002471
509.9919	0.003483
510.2154	0.000889
510.4388	0.003672
510.6623	0.003419
510.8858	0.002492
511.1093	0.002660
511.3329	0.003736
511.5564	0.002154
511.7799	0.003335
512.0035	0.003314
512.2270	0.003061
512.4506	0.002112
512.6742	0.003757
512.8978	0.002660
513.1214	0.003757
513.3451	0.002070
513.5687	0.001585
513.7923	0.002133
514.0160	0.004326
514.2397	0.003230
514.4634	0.004178
514.6871	0.003103
514.9108	0.002365
515.1345	0.002028
515.3582	0.003462
515.5819	0.001838
515.8057	0.003609
516.0295	0.002323
516.2532	0.003314
516.4770	0.003356
516.7008	0.002913
516.9246	0.002998
517.1485	0.002787
517.3723	0.002913
517.5961	0.002281
517.8200	0.002323
518.0439	0.002386
518.2677	0.003462
518.4916	0.003356
518.7155	0.002534
518.9395	0.004052
519.1634	0.004347
519.3873	0.002007
519.6113	0.004305
519.8352	0.004178
520.0592	0.004200
520.2832	0.003546
520.5072	0.002934
520.7312	0.002829
520.9552	0.002217
521.1792	0.002091
521.4033	0.002597
521.6273	0.003061
521.8514	0.003377
522.0755	0.004242
522.2996	0.003820
522.5237	0.003061
522.7478	0.004010
522.9719	0.002555
523.1960	0.002829
523.4202	0.002639
523.6443	0.003398
523.8685	0.002850
524.0927	0.005950
524.3169	0.005106
524.5411	0.003314
524.7653	0.004495
524.9895	0.004916
525.2138	0.004284
525.4380	0.005528
525.6623	0.004706
525.8865	0.003820
526.1108	0.003672
526.3351	0.005528
526.5594	0.004706
526.7837	0.004832
527.0081	0.005191
527.2324	0.004200
527.4568	0.001922
527.6811	0.003398
527.9055	0.003419
528.1299	0.004516
528.3543	0.004200
528.5787	0.004410
528.8031	0.004853
529.0276	0.005612
529.2520	0.003630
529.4765	0.005317
529.7009	0.004326
529.9254	0.005001
530.1499	0.005317
530.3744	0.004410
530.5989	0.004706
530.8234	0.005697
531.0480	0.004431
531.2725	0.005254
531.4971	0.004094
531.7217	0.005422
531.9462	0.005465
532.1708	0.005486
532.3954	0.004284
532.6200	0.005591
532.8447	0.003736
533.0693	0.005296
533.2940	0.006751
533.5186	0.006118
533.7433	0.006667
533.9680	0.006645
534.1927	0.006456
534.4174	0.007194
534.6421	0.007426
534.8668	0.006920
535.0916	0.007636
535.3163	0.007615
535.5411	0.007447
535.7659	0.007615
535.9907	0.007742
536.2155	0.007700
536.4403	0.008311
536.6651	0.006561
536.8899	0.006772
537.1148	0.007784
537.3396	0.005549
537.5645	0.007510
537.7894	0.008627
538.0143	0.009808
538.2392	0.007109
538.4641	0.009492
538.6890	0.008353
538.9139	0.008838
539.1389	0.007173
539.3638	0.008670
539.5888	0.007911
539.8138	0.010567
540.0388	0.010989
540.2638	0.009787
540.4888	0.008079
540.7138	0.009977
540.9389	0.010146
541.1639	0.010188
541.3890	0.010146
541.6140	0.009597
541.8391	0.011158
542.0642	0.010546
542.2893	0.010462
542.5144	0.011643
542.7396	0.011369
542.9647	0.010820
543.1899	0.011685
543.4150	0.011221
543.6402	0.011221
543.8654	0.012676
544.0906	0.012950
544.3158	0.012465
544.5410	0.014025
544.7662	0.013266
544.9915	0.013625
545.2167	0.012802
545.4420	0.013119
545.6673	0.013941
545.8926	0.012149
546.1179	0.013245
546.3432	0.014658
546.5685	0.013878
546.7938	0.012592
547.0192	0.013098
547.2445	0.013962
547.4699	0.014616
547.6953	0.015227
547.9206	0.015227
548.1460	0.018242
548.3715	0.017441
548.5969	0.016218
548.8223	0.017399
549.0478	0.015733
549.2732	0.015796
549.4987	0.015480
549.7242	0.015944
549.9496	0.015986
550.1751	0.015185
550.4007	0.015944
550.6262	0.015796
550.8517	0.015143
551.0773	0.016303
551.3028	0.016429
551.5284	0.016471
551.7540	0.014067
551.9796	0.019381
552.2052	0.019761
552.4308	0.020794
552.6564	0.019971
552.8820	0.019254
553.1077	0.019233
553.3333	0.018432
553.5590	0.020857
553.7847	0.021426
554.0104	0.020309
554.2361	0.020056
554.4618	0.018959
554.6875	0.019613
554.9132	0.018390
555.1390	0.018896
555.3648	0.021785
555.5905	0.022143
555.8163	0.021447
556.0421	0.024547
556.2679	0.021869
556.4937	0.021279
556.7195	0.020857
556.9454	0.023619
557.1712	0.019697
557.3971	0.021447
557.6230	0.023429
557.8488	0.022481
558.0747	0.024188
558.3006	0.021848
558.5266	0.021405
558.7525	0.023556
558.9784	0.022312
559.2044	0.022312
559.4303	0.022059
559.6563	0.021047
559.8823	0.021300
560.1083	0.024463
560.3343	0.028174
560.5603	0.026508
560.7863	0.026782
561.0124	0.031104
561.2384	0.029122
561.4645	0.028722
561.6905	0.030388
561.9166	0.029776
562.1427	0.029080
562.3688	0.030219
562.5949	0.030556
562.8211	0.028553
563.0472	0.029924
563.2733	0.030409
563.4995	0.030240
563.7257	0.029945
563.9519	0.033677
564.1781	0.032074
564.4043	0.031716
564.6305	0.033635
564.8567	0.032496
565.0829	0.035891
565.3092	0.033529
565.5355	0.035300
565.7617	0.034879
565.9880	0.034963
566.2143	0.035385
566.4406	0.034267
566.6669	0.037599
566.8932	0.037346
567.1196	0.040277
567.3459	0.042849
567.5723	0.046075
567.7987	0.047256
568.0250	0.046455
568.2514	0.049575
568.4778	0.054404
568.7043	0.055648
568.9307	0.058410
569.1571	0.062142
569.3836	0.061974
569.6100	0.075321
569.8365	0.081857
570.0630	0.087909
570.2895	0.087761
570.5160	0.088267
570.7425	0.089321
570.9690	0.094846
571.1956	0.101994
571.4221	0.108151
571.6487	0.110154
571.8752	0.114181
572.1018	0.117175
572.3284	0.117997
572.5550	0.110175
572.7816	0.104081
573.0082	0.098114
573.2349	0.105452
573.4615	0.118293
573.6882	0.125673
573.9149	0.130079
574.1415	0.133580
574.3682	0.140074
574.5949	0.146568
574.8216	0.145936
575.0484	0.149794
575.2751	0.150342
575.5018	0.150827
575.7286	0.142478
575.9554	0.135667
576.1821	0.132842
576.4089	0.139146
576.6357	0.146863
576.8626	0.155087
577.0894	0.158355
577.3162	0.158334
577.5431	0.164828
577.7699	0.183594
577.9968	0.213072
578.2237	0.208201
578.4505	0.190573
578.6774	0.181254
578.9044	0.172039
579.1313	0.162024
579.3582	0.161581
579.5851	0.168624
579.8121	0.171807
580.0391	0.173410
580.2660	0.175982
580.4930	0.175476
580.7200	0.170795
580.9470	0.174380
581.1741	0.205186
581.4011	0.249212
581.6281	0.272069
581.8552	0.275316
582.0822	0.267851
582.3093	0.254062
582.5364	0.243224
582.7635	0.219756
582.9906	0.203309
583.2177	0.188971
583.4449	0.173431
583.6720	0.161497
583.8991	0.156078
584.1263	0.162930
584.3535	0.160442
584.5807	0.163690
584.8079	0.180937
585.0351	0.193757
585.2623	0.203140
585.4895	0.204152
585.7167	0.200779
585.9440	0.193336
586.1713	0.182582
586.3985	0.173051
586.6258	0.166473
586.8531	0.168729
587.0804	0.178723
587.3077	0.189582
587.5350	0.192176
587.7624	0.193863
587.9897	0.185661
588.2171	0.174338
588.4445	0.172630
588.6718	0.169340
588.8992	0.162888
589.1266	0.148107
589.3540	0.142414
589.5815	0.137944
589.8089	0.134528
590.0363	0.133643
590.2638	0.131956
590.4913	0.124935
590.7187	0.122636
590.9462	0.116901
591.1737	0.110554
591.4012	0.108277
591.6288	0.113696
591.8563	0.111103
592.0838	0.108931
592.3114	0.112494
592.5389	0.128983
592.7665	0.153695
592.9941	0.170015
593.2217	0.168012
593.4493	0.170563
593.6769	0.171850
593.9046	0.163099
594.1322	0.153906
594.3598	0.144776
594.5875	0.147918
594.8152	0.152156
595.0429	0.164280
595.2705	0.167232
595.4983	0.157448
595.7260	0.157005
595.9537	0.142499
596.1814	0.136679
596.4092	0.127802
596.6369	0.123543
596.8647	0.119516
597.0925	0.127170
597.3203	0.123037
597.5481	0.126115
597.7759	0.125694
598.0037	0.120359
598.2315	0.113886
598.4594	0.118651
598.6872	0.131091
598.9151	0.149836
599.1430	0.158587
599.3709	0.151502
599.5988	0.150954
599.8267	0.151818
600.0546	0.156036
600.2825	0.155635
600.5105	0.156774
600.7384	0.150638
600.9664	0.156731
601.1944	0.160548
601.4223	0.152240
601.6503	0.147412
601.8783	0.143173
602.1064	0.141086
602.3344	0.139842
602.5624	0.141824
602.7905	0.142203
603.0185	0.147538
603.2466	0.151945
603.4747	0.157575
603.7028	0.158756
603.9309	0.151671
604.1590	0.145514
604.3871	0.139209
604.6152	0.139273
604.8434	0.133242
605.0715	0.130311
605.2997	0.132399
605.5279	0.134634
605.7561	0.143405
605.9843	0.148951
606.2125	0.148866
606.4407	0.138492
606.6689	0.133432
606.8972	0.131471
607.1254	0.134149
607.3537	0.134781
607.5819	0.135245
607.8102	0.132188
608.0385	0.126305
608.2668	0.127739
608.4951	0.122953
608.7235	0.124197
608.9518	0.118272
609.1801	0.116943
609.4085	0.112178
609.6369	0.111967
609.8653	0.118630
610.0936	0.124534
610.3220	0.127149
610.5505	0.122931
610.7789	0.119958
611.0073	0.118461
611.2357	0.116268
611.4642	0.117091
611.6927	0.117829
611.9211	0.113042
612.1496	0.115130
612.3781	0.110449
612.6066	0.106274
612.8351	0.108087
613.0637	0.112157
613.2922	0.107328
613.5208	0.107307
613.7493	0.106928
613.9779	0.110365
614.2065	0.110618
614.4351	0.112009
614.6637	0.107202
614.8923	0.104903
615.1209	0.106717
615.3495	0.105958
615.5782	0.112452
615.8068	0.110301
616.0355	0.105135
616.2642	0.100244
616.4929	0.095457
616.7216	0.092337
616.9503	0.093602
617.1790	0.091303
617.4077	0.092421
617.6365	0.091620
617.8652	0.094719
618.0940	0.092231
618.3227	0.091514
618.5515	0.088921
618.7803	0.083122
619.0091	0.078673
619.2379	0.075553
619.4667	0.076122
619.6956	0.075257
619.9244	0.078188
620.1533	0.081920
620.3821	0.085104
620.6110	0.082300
620.8399	0.073528
621.0688	0.067477
621.2977	0.064778
621.5266	0.063049
621.7556	0.066444
621.9845	0.065874
622.2135	0.073022
622.4424	0.070513
622.6714	0.071525
622.9004	0.071230
623.1294	0.073676
623.3584	0.076881
623.5874	0.077661
623.8164	0.073887
624.0454	0.073086
624.2745	0.074815
624.5035	0.077345
624.7326	0.078104
624.9617	0.077872
625.1908	0.070471
625.4199	0.069649
625.6490	0.068046
625.8781	0.068868
626.1072	0.062817
626.3364	0.063049
626.5655	0.060498
626.7947	0.061763
627.0238	0.058241
627.2530	0.059064
627.4822	0.060582
627.7114	0.060034
627.9406	0.057651
628.1698	0.052822
628.3991	0.052084
628.6283	0.050693
628.8576	0.049871
629.0868	0.050102
629.3161	0.050735
629.5454	0.052928
629.7747	0.054088
630.0040	0.054467
630.2333	0.051895
630.4626	0.051115
630.6920	0.051473
630.9213	0.048036
631.1507	0.047108
631.3801	0.045970
631.6094	0.044177
631.8388	0.046876
632.0682	0.045738
632.2976	0.044304
632.5271	0.041879
632.7565	0.039813
632.9859	0.039560
633.2154	0.038126
633.4448	0.038105
633.6743	0.036186
633.9038	0.037514
634.1333	0.038864
634.3628	0.034900
634.5923	0.035132
634.8218	0.034731
635.0514	0.033846
635.2809	0.034246
635.5105	0.036144
635.7400	0.033150
635.9696	0.035659
636.1992	0.035617
636.4288	0.039960
636.6584	0.037767
636.8880	0.037894
637.1177	0.038906
637.3473	0.035195
637.5770	0.033171
637.8066	0.035722
638.0363	0.035005
638.2660	0.035511
638.4957	0.035575
638.7254	0.036924
638.9551	0.036523
639.1848	0.034225
639.4145	0.036123
639.6443	0.033540
639.8740	0.032430
640.1038	0.032339
640.3336	0.031878
640.5633	0.029314
640.7931	0.030840
641.0229	0.028332
641.2528	0.029887
641.4826	0.030343
641.7124	0.027361
641.9423	0.027954
642.1721	0.026088
642.4020	0.025910
642.6319	0.026163
642.8617	0.025384
643.0916	0.026961
643.3216	0.025259
643.5515	0.026220
643.7814	0.026601
644.0113	0.027041
644.2413	0.024981
644.4712	0.024091
644.7012	0.021763
644.9312	0.022216
645.1612	0.023954
645.3912	0.023627
645.6212	0.020606
645.8512	0.023302
646.0812	0.022688
646.3113	0.020265
646.5413	0.020981
646.7714	0.022401
647.0015	0.021192
647.2316	0.020814
647.4616	0.021508
647.6918	0.022104
647.9219	0.024403
648.1520	0.026104
648.3821	0.025381
648.6123	0.027340
648.8424	0.026911
649.0726	0.028502
649.3028	0.027639
649.5329	0.029354
649.7631	0.026246
649.9933	0.026383
650.2236	0.024237
650.4538	0.025455
650.6840	0.024727
650.9143	0.025048
651.1445	0.026533
651.3748	0.024825
651.6051	0.025034
651.8354	0.026774
652.0657	0.026971
652.2960	0.027201
652.5263	0.026501
652.7566	0.025653
652.9870	0.025335
653.2173	0.028085
653.4477	0.028167
653.6780	0.027782
653.9084	0.028439
654.1388	0.026995
654.3692	0.029195
654.5996	0.030676
654.8300	0.033606
655.0605	0.049164
655.2909	0.129529
655.5213	0.398232
655.7518	0.800401
655.9823	1.000000
656.2128	1.000000
656.4433	1.000000
656.6738	1.000000
656.9043	0.928317
657.1348	0.730077
657.3653	0.601583
657.5959	0.516843
657.8264	0.449316
658.0570	0.405879
658.2875	0.373939
658.5181	0.339397
658.7487	0.316418
658.9793	0.300969
659.2099	0.245745
659.4406	0.172591
659.6712	0.106115
659.9018	0.063403
660.1325	0.038474
660.3632	0.031422
660.5938	0.023168
660.8245	0.020766
661.0552	0.021654
661.2859	0.021832
661.5166	0.020136
661.7474	0.018644
661.9781	0.019861
662.2088	0.019367
662.4396	0.018843
662.6704	0.017585
662.9011	0.018569
663.1319	0.017204
663.3627	0.019322
663.5935	0.017946
663.8243	0.019220
664.0552	0.018534
664.2860	0.018420
664.5168	0.018629
664.7477	0.021915
664.9786	0.019147
665.2094	0.021766
665.4403	0.022063
665.6712	0.020886
665.9021	0.020418
666.1330	0.021839
666.3640	0.019662
666.5949	0.018324
666.8259	0.018048
667.0568	0.017505
667.2878	0.017798
667.5188	0.018077
667.7497	0.017886
667.9807	0.017657
668.2117	0.016736
668.4428	0.018158
668.6738	0.017610
668.9048	0.017673
669.1359	0.018748
669.3669	0.016914
669.5980	0.018095
669.8291	0.018432
670.0602	0.017905
670.2913	0.018074
670.5224	0.019381
670.7535	0.020140
670.9846	0.018369
671.2157	0.019444
671.4469	0.021806
671.6781	0.023282
671.9092	0.023935
672.1404	0.029165
672.3716	0.030071
672.6028	0.031041
672.8340	0.030366
673.0652	0.028195
673.2964	0.024716
673.5277	0.028912
673.7589	0.027035
673.9902	0.026424
674.2214	0.022607
674.4527	0.024969
674.6840	0.023240
674.9153	0.024547
675.1466	0.024041
675.3779	0.023893
675.6093	0.023176
675.8406	0.022797
676.0719	0.022459
676.3033	0.023345
676.5347	0.020815
676.7661	0.020983
676.9974	0.019339
677.2288	0.019992
677.4602	0.021300
677.6917	0.021637
677.9231	0.024526
678.1545	0.024589
678.3860	0.025179
678.6174	0.026698
678.8489	0.026424
679.0804	0.027309
679.3119	0.026171
679.5434	0.030788
679.7749	0.031821
680.0064	0.029734
680.2379	0.030683
680.4694	0.030662
680.7010	0.030999
680.9325	0.028701
681.1641	0.029882
681.3957	0.030345
681.6273	0.030472
681.8589	0.028532
682.0905	0.029734
682.3221	0.028363
682.5537	0.027478
682.7854	0.026339
683.0170	0.025433
683.2487	0.025454
683.4803	0.024336
683.7120	0.026445
683.9437	0.028701
684.1754	0.031842
684.4071	0.031632
684.6388	0.031695
684.8705	0.033065
685.1023	0.033719
685.3340	0.039180
685.5658	0.037999
685.7975	0.041774
686.0293	0.037683
686.2611	0.038442
686.4929	0.037008
686.7247	0.037346
686.9565	0.034014
687.1883	0.036798
687.4202	0.039243
687.6520	0.038379
687.8838	0.038168
688.1157	0.034394
688.3476	0.035111
688.5795	0.032623
688.8114	0.030514
689.0433	0.032876
689.2752	0.031294
689.5071	0.031716
689.7390	0.030177
689.9710	0.028701
690.2029	0.028553
690.4349	0.028553
690.6669	0.030936
690.8988	0.029207
691.1308	0.032517
691.3628	0.033234
691.5948	0.034352
691.8269	0.031442
692.0589	0.032285
692.2909	0.034436
692.5230	0.033614
692.7550	0.031821
692.9871	0.034520
693.2192	0.033614
693.4513	0.036376
693.6834	0.033909
693.9155	0.033318
694.1476	0.028490
694.3797	0.029544
694.6119	0.027646
694.8440	0.029397
695.0762	0.029228
695.3083	0.029860
695.5405	0.028616
695.7727	0.026192
696.0049	0.026634
696.2371	0.025622
696.4693	0.026845
696.7016	0.031168
696.9338	0.033719
697.1660	0.033044
697.3983	0.034752
697.6306	0.031927
697.8628	0.034731
698.0951	0.032580
698.3274	0.033782
698.5597	0.032327
698.7920	0.032433
699.0243	0.034647
699.2567	0.031189
699.4890	0.029839
699.7214	0.029122
699.9537	0.026930
700.1861	0.025454
700.4185	0.026508
700.6509	0.027836
700.8833	0.027140
701.1157	0.024104
701.3481	0.023408
701.5806	0.023619
701.8130	0.025559
702.0454	0.024378
702.2779	0.025643
702.5104	0.026171
702.7429	0.025939
702.9753	0.024463
703.2078	0.025137
703.4403	0.025517
703.6729	0.022818
703.9054	0.024188
704.1379	0.022565
704.3705	0.023661
704.6030	0.022944
704.8356	0.022691
705.0682	0.020119
705.3008	0.021806
705.5334	0.019676
705.7660	0.019360
705.9986	0.022354
706.2312	0.023029
706.4638	0.027077
706.6965	0.027646
706.9291	0.030598
707.1618	0.032433
707.3945	0.033951
707.6272	0.032412
707.8599	0.031463
708.0926	0.033192
708.3253	0.035195
708.5580	0.031421
708.7907	0.030261
709.0235	0.030366
709.2562	0.031104
709.4890	0.027457
709.7217	0.029692
709.9545	0.030894
710.1873	0.029502
710.4201	0.029755
710.6529	0.028975
710.8857	0.028363
711.1186	0.027752
711.3514	0.028153
711.5842	0.025981
711.8171	0.025643
712.0500	0.023788
712.2828	0.023071
712.5157	0.025580
712.7486	0.024948
712.9815	0.025580
713.2144	0.026107
713.4474	0.027541
713.6803	0.029818
713.9132	0.028848
714.1462	0.028701
714.3791	0.031315
714.6121	0.028912
714.8451	0.028933
715.0781	0.029755
715.3111	0.030683
715.5441	0.028153
715.7771	0.028722
716.0102	0.026951
716.2432	0.024884
716.4762	0.024336
716.7093	0.025201
716.9424	0.025179
717.1754	0.023893
717.4085	0.023282
717.6416	0.022038
717.8747	0.023408
718.1078	0.023282
718.3410	0.026487
718.5741	0.024842
718.8072	0.024125
719.0404	0.023957
719.2736	0.024863
719.5067	0.025201
719.7399	0.024420
719.9731	0.023577
720.2063	0.024273
720.4395	0.023134
720.6727	0.023050
720.9060	0.024273
721.1392	0.024821
721.3725	0.026972
721.6057	0.026149
721.8390	0.026930
722.0723	0.027162
722.3055	0.024420
722.5388	0.025707
722.7721	0.023556
723.0055	0.024041
723.2388	0.021721
723.4721	0.025137
723.7055	0.024210
723.9388	0.023071
724.1722	0.024990
724.4056	0.024041
724.6389	0.022712
724.8723	0.022902
725.1057	0.025496
725.3391	0.027942
725.5726	0.026761
725.8060	0.026255
726.0394	0.029312
726.2729	0.030788
726.5063	0.029671
726.7398	0.027752
726.9733	0.028363
727.2068	0.027984
727.4403	0.027140
727.6738	0.029228
727.9073	0.027625
728.1408	0.031568
728.3743	0.028933
728.6079	0.031126
728.8414	0.028216
729.0750	0.028574
729.3086	0.029734
729.5421	0.031315
729.7757	0.032538
730.0093	0.032370
730.2429	0.030219
730.4766	0.031379
730.7102	0.034436
730.9438	0.036608
731.1775	0.034626
731.4111	0.037451
731.6448	0.036038
731.8785	0.036608
732.1122	0.037599
732.3458	0.035069
732.5795	0.032159
732.8133	0.035743
733.0470	0.036608
733.2807	0.035111
733.5145	0.038252
733.7482	0.038252
733.9820	0.040445
734.2157	0.044452
734.4495	0.043882
734.6833	0.043482
734.9171	0.039960
735.1509	0.039581
735.3847	0.040572
735.6185	0.040382
735.8524	0.039876
736.0862	0.042575
736.3201	0.039518
736.5539	0.039180
736.7878	0.041394
737.0217	0.040656
737.2556	0.041542
737.4895	0.042765
737.7234	0.039454
737.9573	0.038147
738.1912	0.035764
738.4252	0.033930
738.6591	0.033888
738.8931	0.038084
739.1271	0.037409
739.3610	0.039750
739.5950	0.040635
739.8290	0.039075
740.0630	0.039665
740.2970	0.036798
740.5310	0.033065
740.7651	0.033445
740.9991	0.031969
741.2332	0.031716
741.4672	0.029502
741.7013	0.029734
741.9354	0.028806
742.1695	0.029671
742.4036	0.027984
742.6377	0.030008
742.8718	0.031948
743.1059	0.029460
743.3400	0.028005
743.5742	0.025833
743.8083	0.024547
744.0425	0.025201
744.2767	0.024336
744.5108	0.026171
744.7450	0.025011
744.9792	0.024442
745.2134	0.024589
745.4477	0.023872
745.6819	0.024273
745.9161	0.022966
746.1504	0.023767
746.3846	0.025137
746.6189	0.023029
746.8532	0.023261
747.0874	0.025496
747.3217	0.027625
747.5560	0.026613
747.7903	0.027162
748.0247	0.025475
748.2590	0.024505
748.4933	0.022902
748.7277	0.024062
748.9620	0.024842
749.1964	0.027225
749.4308	0.027457
749.6652	0.030662
749.8995	0.031695
750.1339	0.032180
750.3684	0.034520
750.6028	0.035364
750.8372	0.032939
751.0717	0.032770
751.3061	0.033340
751.5406	0.032707
751.7750	0.033087
752.0095	0.033782
752.2440	0.032770
752.4785	0.032876
752.7130	0.032559
752.9475	0.029586
753.1820	0.030198
753.4166	0.030303
753.6511	0.035743
753.8856	0.035448
754.1202	0.033972
754.3548	0.032707
754.5894	0.031653
754.8239	0.034120
755.0585	0.034647
755.2931	0.034035
755.5278	0.037261
755.7624	0.035828
755.9970	0.034837
756.2317	0.039349
756.4663	0.040403
756.7010	0.042575
756.9356	0.042976
757.1703	0.045063
757.4050	0.047509
757.6397	0.049596
757.8744	0.051410
758.1091	0.050313
758.3438	0.047783
758.5786	0.045000
758.8133	0.046223
759.0481	0.045843
759.2828	0.048795
759.5176	0.049723
759.7524	0.050166
759.9872	0.050819
760.2220	0.051178
760.4568	0.054024
760.6916	0.056006
760.9264	0.056196
761.1613	0.052548
761.3961	0.048331
761.6310	0.047087
761.8658	0.044810
762.1007	0.043186
762.3356	0.043439
762.5705	0.040994
762.8054	0.041542
763.0403	0.041415
763.2752	0.042828
763.5101	0.042111
763.7450	0.043271
763.9800	0.041689
764.2149	0.044494
764.4499	0.046181
764.6849	0.051220
764.9198	0.048500
765.1548	0.047952
765.3898	0.048584
765.6248	0.047551
765.8599	0.046033
766.0949	0.042111
766.3299	0.039201
766.5650	0.038906
766.8000	0.035743
767.0351	0.036313
767.2701	0.032349
767.5052	0.032665
767.7403	0.033593
767.9754	0.034689
768.2105	0.035659
768.4456	0.038927
768.6808	0.039792
768.9159	0.040129
769.1510	0.041036
769.3862	0.041457
769.6214	0.038653
769.8565	0.037873
770.0917	0.038969
770.3269	0.038147
770.5621	0.037072
770.7973	0.041162
771.0325	0.040509
771.2677	0.042027
771.5030	0.040846
771.7382	0.038252
771.9735	0.036123
772.2087	0.035427
772.4440	0.033276
772.6793	0.035659
772.9146	0.036671
773.1499	0.033382
773.3852	0.034858
773.6205	0.031864
773.8558	0.032138
774.0911	0.032602
774.3265	0.028574
774.5618	0.027857
774.7972	0.028574
775.0326	0.026930
775.2679	0.025327
775.5033	0.026698
775.7387	0.023872
775.9741	0.023408
776.2095	0.022396
776.4450	0.022143
776.6804	0.021975
776.9158	0.021068
777.1513	0.023324
777.3868	0.021363
777.6222	0.021068
777.8577	0.019887
778.0932	0.019655
778.3287	0.022502
778.5642	0.022122
778.7997	0.022270
779.0352	0.026613
779.2707	0.026297
779.5063	0.027604
779.7418	0.026866
779.9774	0.025664
780.2130	0.025496
780.4485	0.026803
780.6841	0.023830
780.9197	0.026698
781.1553	0.026719
781.3909	0.027984
781.6265	0.030936
781.8622	0.029122
782.0978	0.030851
782.3335	0.031821
782.5691	0.032074
782.8048	0.030282
783.0405	0.030029
783.2761	0.029207
783.5118	0.029249
783.7475	0.028659
783.9832	0.028616
784.2190	0.028279
784.4547	0.026634
784.6904	0.025433
784.9262	0.025538
785.1619	0.027372
785.3977	0.024231
785.6335	0.025728
785.8692	0.024463
786.1050	0.025517
786.3408	0.024273
786.5766	0.024442
786.8124	0.023746
787.0483	0.022607
787.2841	0.023366
787.5199	0.025770
787.7558	0.024673
787.9917	0.024610
788.2275	0.025327
788.4634	0.025137
788.6993	0.027267
788.9352	0.027035
789.1711	0.026171
789.4070	0.023746
789.6429	0.024378
789.8789	0.023682
790.1148	0.024020
790.3507	0.021426
790.5867	0.021595
790.8227	0.021215
791.0586	0.019149
791.2946	0.020836
791.5306	0.022228
791.7666	0.020899
792.0026	0.019023
792.2387	0.019423
792.4747	0.020520
792.7107	0.018938
792.9468	0.019128
793.1828	0.020456
793.4189	0.018411
793.6550	0.020815
793.8910	0.022438
794.1271	0.025917
794.3632	0.026782
794.5993	0.027773
794.8355	0.024695
795.0716	0.028511
795.3077	0.028321
795.5439	0.027541
795.7800	0.025348
796.0162	0.023682
796.2523	0.021637
796.4885	0.021363
796.7247	0.018896
796.9609	0.019276
797.1971	0.018959
797.4333	0.019149
797.6695	0.018917
797.9058	0.020435
798.1420	0.019170
798.3783	0.019908
798.6145	0.020309
798.8508	0.019655
799.0871	0.020941
799.3233	0.020288
799.5596	0.019233
799.7959	0.017821
800.0322	0.017905
800.2686	0.018158
800.5049	0.015796
800.7412	0.018411
800.9776	0.015860
801.2139	0.018010
801.4503	0.016197
801.6867	0.015417
801.9230	0.015902
802.1594	0.014384
802.3958	0.013583
802.6322	0.014574
802.8686	0.014363
803.1051	0.016007
803.3415	0.015016
803.5779	0.015037
803.8144	0.016830
804.0508	0.014384
804.2873	0.013351
804.5238	0.014869
804.7603	0.017019
804.9968	0.013561
805.2333	0.013920
805.4698	0.015607
805.7063	0.016155
805.9428	0.017652
806.1794	0.018327
806.4159	0.021975
806.6525	0.021953
806.8890	0.020203
807.1256	0.019803
807.3622	0.019592
807.5988	0.019887
807.8354	0.020351
808.0720	0.018474
808.3086	0.019634
808.5452	0.020773
808.7818	0.019592
809.0185	0.017989
809.2551	0.020098
809.4918	0.019191
809.7284	0.017715
809.9651	0.015712
810.2018	0.018854
810.4385	0.016914
810.6752	0.015354
810.9119	0.015396
811.1486	0.013941
811.3853	0.013941
811.6221	0.015312
811.8588	0.016071
812.0956	0.013393
812.3323	0.013519
812.5691	0.011411
812.8059	0.012950
813.0427	0.012887
813.2795	0.014637
813.5163	0.015290
813.7531	0.014299
813.9899	0.017251
814.2267	0.017631
814.4636	0.017399
814.7004	0.015733
814.9373	0.014805
815.1742	0.014194
815.4110	0.013836
815.6479	0.013435
815.8848	0.011579
816.1217	0.011600
816.3586	0.012655
816.5955	0.011179
816.8324	0.013013
817.0694	0.013034
817.3063	0.012402
817.5433	0.012191
817.7802	0.013245
818.0172	0.012613
818.2542	0.013245
818.4912	0.012149
818.7282	0.012908
818.9652	0.011432
819.2022	0.011790
819.4392	0.010420
819.6762	0.010652
819.9133	0.009914
820.1503	0.012317
820.3874	0.012655
820.6244	0.013140
820.8615	0.014299
821.0986	0.012634
821.3357	0.011685
821.5727	0.013351
821.8099	0.014468
822.0470	0.011158
822.2841	0.012360
822.5212	0.010230
822.7584	0.009850
822.9955	0.011917
823.2327	0.011010
823.4698	0.010019
823.7070	0.010694
823.9442	0.009218
824.1814	0.010209
824.4186	0.008564
824.6558	0.009893
824.8930	0.010694
825.1302	0.009766
825.3675	0.011453
825.6047	0.013519
825.8419	0.010441
826.0792	0.010356
826.3165	0.010462
826.5537	0.010525
826.7910	0.011411
827.0283	0.010609
827.2656	0.011495
827.5029	0.013182
827.7402	0.013372
827.9776	0.011347
828.2149	0.009492
828.4522	0.011284
828.6896	0.009640
828.9270	0.012845
829.1643	0.010504
829.4017	0.010335
829.6391	0.009766
829.8765	0.009049
830.1139	0.009260
830.3513	0.008859
830.5887	0.008480
830.8261	0.009661
831.0636	0.008606
831.3010	0.008290
831.5385	0.007742
831.7759	0.007510
832.0134	0.006371
832.2509	0.007700
832.4884	0.006645
832.7259	0.009197
832.9634	0.007889
833.2009	0.009471
833.4384	0.008438
833.6759	0.009007
833.9135	0.006266
834.1510	0.009408
834.3886	0.011221
834.6261	0.009281
834.8637	0.009787
835.1013	0.009618
835.3389	0.009260
835.5765	0.008353
835.8141	0.008733
836.0517	0.008206
836.2893	0.007742
836.5269	0.007763
836.7646	0.006498
837.0022	0.007573
837.2399	0.006941
837.4775	0.007447
837.7152	0.006709
837.9529	0.007953
838.1906	0.006287
838.4283	0.004937
838.6660	0.006730
838.9037	0.005802
839.1414	0.006182
839.3791	0.006877
839.6169	0.007911
839.8546	0.007088
840.0924	0.006160
840.3302	0.007447
840.5679	0.007004
840.8057	0.006561
841.0435	0.006160
841.2813	0.006456
841.5191	0.006498
841.7569	0.006160
841.9947	0.005254
842.2326	0.005907
842.4704	0.005085
842.7082	0.007362
842.9461	0.006645
843.1840	0.004368
843.4218	0.004368
843.6597	0.004305
843.8976	0.002829
844.1355	0.004832
844.3734	0.003989
844.6113	0.004242
844.8492	0.005127
845.0872	0.005401
845.3251	0.006308
845.5631	0.005675
845.8010	0.004706
846.0390	0.005233
846.2770	0.004769
846.5149	0.003693
846.7529	0.005106
846.9909	0.005043
847.2289	0.005422
847.4669	0.005507
847.7050	0.005043
847.9430	0.005001
848.1810	0.005106
848.4191	0.006688
848.6571	0.005169
848.8952	0.005359
849.1333	0.004326
849.3713	0.004495
849.6094	0.004937
849.8475	0.004495
850.0856	0.005507
850.3237	0.003799
850.5619	0.004769
850.8000	0.003841
851.0381	0.004916
851.2763	0.004959
851.5144	0.004242
851.7526	0.004706
851.9908	0.003693
852.2289	0.005760
852.4671	0.006624
852.7053	0.007700
852.9435	0.006983
853.1817	0.010652
853.4200	0.011811
853.6582	0.013245
853.8964	0.012528
854.1347	0.011284
854.3729	0.011980
854.6112	0.012275
854.8495	0.011706
855.0877	0.013076
855.3260	0.011685
855.5643	0.009998
855.8026	0.009850
856.0409	0.010862
856.2792	0.010609
856.5176	0.011158
856.7559	0.010905
856.9942	0.011938
857.2326	0.009387
857.4710	0.010103
857.7093	0.008227
857.9477	0.009091
858.1861	0.009408
858.4245	0.009091
858.6629	0.008627
858.9013	0.007362
859.1397	0.007636
859.3781	0.008269
859.6166	0.007362
859.8550	0.008438
860.0935	0.007215
860.3319	0.007531
860.5704	0.006498
860.8089	0.005591
861.0473	0.005465
861.2858	0.005486
861.5243	0.006772
861.7628	0.006498
862.0013	0.005528
862.2399	0.006013
862.4784	0.005106
862.7169	0.006435
862.9555	0.005275
863.1940	0.006688
863.4326	0.005781
863.6712	0.005760
863.9098	0.005865
864.1483	0.005865
864.3869	0.006730
864.6255	0.006118
864.8642	0.006582
865.1028	0.004621
865.3414	0.005148
865.5800	0.004748
865.8187	0.005486
866.0573	0.005528
866.2960	0.004305
866.5347	0.002934
866.7733	0.004263
867.0120	0.004937
867.2507	0.005338
867.4894	0.005507
867.7281	0.006076
867.9669	0.006245
868.2056	0.004916
868.4443	0.004790
868.6831	0.005971
868.9218	0.003736
869.1606	0.005444
869.3993	0.003672
869.6381	0.005359
869.8769	0.003483
870.1157	0.004368
870.3545	0.004495
870.5933	0.005760
870.8321	0.004706
871.0709	0.005085
871.3097	0.004579
871.5486	0.004663
871.7874	0.006076
872.0263	0.004748
872.2651	0.005338
872.5040	0.004347
872.7429	0.005359
872.9818	0.004642
873.2207	0.004642
873.4596	0.004347
873.6985	0.005001
873.9374	0.003567
874.1763	0.004874
874.4153	0.004579
874.6542	0.005444
874.8932	0.005802
875.1321	0.005422
875.3711	0.004600
875.6101	0.007130
875.8491	0.006013
876.0880	0.005359
876.3270	0.004200
876.5661	0.004621
876.8051	0.005718
877.0441	0.004495
877.2831	0.004684
877.5222	0.005043
877.7612	0.006055
878.0003	0.006139
878.2393	0.005675
878.4784	0.005781
878.7175	0.005886
878.9566	0.006371
879.1957	0.006920
879.4348	0.005591
879.6739	0.005549
879.9130	0.006118
880.1521	0.007236
880.3913	0.006308
880.6304	0.009323
880.8696	0.005865
881.1087	0.006793
881.3479	0.006751
881.5871	0.006435
881.8262	0.006055
882.0654	0.005992
882.3046	0.005823
882.5438	0.005718
882.7831	0.007489
883.0223	0.005907
883.2615	0.006203
883.5007	0.005528
883.7400	0.006456
883.9792	0.006624
884.2185	0.005823
884.4578	0.006540
884.6971	0.006076
884.9363	0.006772
885.1756	0.005570
885.4149	0.005127
885.6542	0.005675
885.8936	0.006245
886.1329	0.006182
886.3722	0.006224
886.6116	0.005212
886.8509	0.005212
887.0903	0.005654
887.3296	0.006519
887.5690	0.004284
887.8084	0.005401
888.0478	0.005022
888.2872	0.004495
888.5266	0.004916
888.7660	0.005275
889.0054	0.003968
889.2448	0.005844
889.4843	0.005169
889.7237	0.004558
889.9632	0.003946
890.2026	0.003799
890.4421	0.005169
890.6816	0.003925
890.9211	0.003377
891.1606	0.005275
891.4001	0.005697
891.6396	0.005444
891.8791	0.004221
892.1186	0.005907
892.3581	0.004579
892.5977	0.005781
892.8372	0.004431
893.0768	0.004790
893.3163	0.004368
893.5559	0.004495
893.7955	0.005148
894.0351	0.005127
894.2747	0.004937
894.5143	0.004663
894.7539	0.005191
894.9935	0.003820
895.2331	0.003672
895.4727	0.004136
895.7124	0.003525
895.9520	0.006624
896.1917	0.005296
896.4314	0.004537
896.6710	0.004010
896.9107	0.004157
897.1504	0.004284
897.3901	0.003736
897.6298	0.005591
897.8695	0.004790
898.1092	0.003778
898.3489	0.006772
898.5887	0.004832
898.8284	0.004284
899.0682	0.005507
899.3079	0.003230
899.5477	0.003904
899.7875	0.003462
900.0272	0.004326
900.2670	0.003862
900.5068	0.005950
900.7466	0.003778
900.9864	0.004115
901.2263	0.005001
901.4661	0.003946
901.7059	0.003757
901.9458	0.005064
902.1856	0.004136
902.4255	0.004663
902.6654	0.005507
902.9052	0.003546
903.1451	0.005169
903.3850	0.003230
903.6249	0.003862
903.8648	0.003778
904.1047	0.005233
904.3446	0.004579
904.5846	0.004094
904.8245	0.004284
905.0644	0.005422
905.3044	0.003820
905.5444	0.005212
905.7843	0.003588
906.0243	0.004980
906.2643	0.004389
906.5043	0.004242
906.7443	0.003504
906.9843	0.004136
907.2243	0.005043
907.4643	0.003693
907.7043	0.004537
907.9444	0.003925
908.1844	0.004073
908.4245	0.003567
908.6645	0.004347
908.9046	0.003946
909.1447	0.001733
909.3847	0.004431
909.6248	0.002196
909.8649	0.003736
910.1050	0.002112
910.3452	0.002471
910.5853	0.004347
910.8254	0.004748
911.0655	0.003525
911.3057	0.003693
911.5458	0.003946
911.7860	0.003904
912.0262	0.002576
912.2663	0.004115
912.5065	0.003588
912.7467	0.005001
912.9869	0.004284
913.2271	0.003314
913.4673	0.002681
913.7075	0.004790
913.9478	0.003398
914.1880	0.004326
914.4283	0.003208
914.6685	0.002766
914.9088	0.004410
915.1490	0.004115
915.3893	0.002133
915.6296	0.003124
915.8699	0.002513
916.1102	0.002766
916.3505	0.002934
916.5908	0.005591
916.8311	0.003841
917.0714	0.004474
917.3118	0.003272
917.5521	0.004474
917.7925	0.005001
918.0328	0.004431
918.2732	0.003082
918.5136	0.005275
918.7539	0.003904
918.9943	0.003293
919.2347	0.003230
919.4751	0.001142
919.7155	0.002323
919.9560	0.004431
920.1964	0.003230
920.4368	0.003314
920.6773	0.001690
920.9177	0.003989
921.1582	0.002850
921.3986	0.003989
921.6391	0.002281
921.8796	0.004642
922.1201	0.002407
922.3606	0.003883
922.6011	0.002892
922.8416	0.003820
923.0821	0.003251
923.3226	0.004474
923.5631	0.003314
923.8037	0.003208
924.0442	0.002745
924.2848	0.002534
924.5254	0.003693
924.7659	0.002955
925.0065	0.002154
925.2471	0.003019
925.4877	0.002070
925.7283	0.002344
925.9689	0.003293
926.2095	0.004579
926.4501	0.002745
926.6908	0.003651
926.9314	0.001501
927.1720	0.002534
927.4127	0.003588
927.6533	0.004453
927.8940	0.002618
928.1347	0.002850
928.3754	0.002365
928.6161	0.003462
928.8568	0.002702
929.0975	0.001585
929.3382	0.001754
929.5789	0.003103
929.8196	0.001901
930.0604	0.002091
930.3011	0.002281
930.5419	0.002576
930.7826	0.003925
931.0234	0.001479
931.2642	0.002217
931.5049	0.002302
931.7457	0.001733
931.9865	0.002871
932.2273	0.003293
932.4681	0.002534
932.7089	0.002471
932.9498	0.001248
933.1906	0.003546
933.4314	0.002513
933.6723	0.002639
933.9131	0.002070
934.1540	0.001901
934.3949	0.004115
934.6358	0.002597
934.8766	0.001796
935.1175	0.002850
935.3584	0.001437
935.5993	0.001079
935.8403	0.002196
936.0812	0.002449
936.3221	0.002028
936.5630	0.001205
936.8040	0.004495
937.0449	0.001100
937.2859	0.002850
937.5269	0.001817
937.7678	0.002049
938.0088	0.002681
938.2498	0.001395
938.4908	0.002007
938.7318	0.001437
938.9728	0.002217
939.2138	0.000699
939.4549	0.002681
939.6959	0.002998
939.9369	0.000931
940.1780	0.002344
940.4190	0.002260
940.6601	0.001353
940.9012	0.002702
941.1422	0.001416
941.3833	0.000889
941.6244	0.001416
941.8655	0.002049
942.1066	0.003145
942.3477	0.000699
942.5889	0.001311
942.8300	0.001311
943.0711	0.002428
943.3123	0.002576
943.5534	0.001205
943.7946	0.001606
944.0357	0.001669
944.2769	0.001374
944.5181	0.001037
944.7593	0.002239
945.0005	0.001711
945.2417	0.001100
945.4829	0.002977
945.7241	0.002217
945.9653	0.002154
946.2066	0.000720
946.4478	0.002112
946.6891	0.001648
946.9303	0.001838
947.1716	0.002344
947.4128	0.000341
947.6541	0.002386
947.8954	0.001311
948.1367	0.003356
948.3780	0.001943
948.6193	0.001437
948.8606	0.000151
949.1019	0.002829
949.3433	0.000973
949.5846	0.001037
949.8259	0.002112
950.0673	0.001016
950.3086	0.001479
950.5500	0.000847
950.7914	0.000594
951.0327	0.002618
951.2741	0.002471
951.5155	0.002787
951.7569	0.001648
951.9983	0.002070
952.2398	0.001479
952.4812	0.001986
952.7226	0.003061
952.9640	0.003293
953.2055	0.001901
953.4469	0.001922
953.6884	0.002998
953.9299	0.003166
954.1713	0.002702
954.4128	0.001669
954.6543	0.000172
954.8958	0.001754
955.1373	0.001901
955.3788	0.001121
955.6203	0.001205
955.8618	0.001901
956.1034	0.000193
956.3449	0.000446
956.5865	0.000088
956.8280	0.002344
957.0696	0.001543
957.3111	0.000531
957.5527	-0.000819
957.7943	0.001205
958.0359	0.000763
958.2775	0.000973
958.5191	0.001226
958.7607	0.001564
959.0023	0.001121
959.2439	0.002091
959.4856	0.001585
959.7272	0.003398
959.9688	0.000531
960.2105	0.001543
960.4522	0.001374
960.6938	0.000678
960.9355	-0.000460
961.1772	0.001079
961.4189	0.001269
961.6606	0.000742
961.9023	0.000383
962.1440	0.001648
962.3857	0.002281
962.6274	0.001606
962.8692	0.001648
963.1109	0.000763
963.3527	-0.000060
963.5944	0.001796
963.8362	-0.000671
964.0779	0.002028
964.3197	-0.000271
964.5615	0.002407
964.8033	-0.000966
965.0451	0.000910
965.2869	0.001374
965.5287	0.000025
965.7705	0.002808
966.0123	0.002428
966.2542	0.001269
966.4960	0.000826
966.7379	0.000636
966.9797	0.002660
967.2216	0.000889
967.4634	0.000742
967.7053	0.001374
967.9472	0.001058
968.1891	0.001733
968.4310	0.000615
968.6729	0.002154
968.9148	0.001690
969.1567	0.001543
969.3987	0.001184
969.6406	-0.000313
969.8825	0.001437
970.1245	0.000868
970.3664	0.002049
970.6084	0.001564
970.8504	0.001458
971.0923	0.000763
971.3343	0.001437
971.5763	0.000004
971.8183	0.002007
972.0603	0.001016
972.3023	0.001290
972.5443	0.000446
972.7864	0.000446
973.0284	-0.000313
973.2704	0.002660
973.5125	0.001290
973.7545	0.001184
973.9966	-0.000039
974.2387	0.000531
974.4807	0.001290
974.7228	0.001859
974.9649	0.000973
975.2070	0.002555
975.4491	0.001226
975.6912	0.000784
975.9333	0.001248
976.1755	0.000235
976.4176	0.001121
976.6597	-0.000165
976.9019	0.001564
977.1440	0.001416
977.3862	0.001353
977.6283	0.000826
977.8705	0.001332
978.1127	0.002154
978.3549	0.000425
978.5971	0.000889
978.8393	0.000383
979.0815	0.000868
979.3237	0.001353
979.5659	0.000699
979.8082	0.000046
980.0504	0.001817
980.2926	0.001353
980.5349	0.001269
980.7771	-0.000608
981.0194	0.001564
981.2617	0.000636
981.5040	0.001100
981.7462	0.000531
981.9885	0.001037
982.2308	0.001522
982.4731	0.002407
982.7155	0.000278
982.9578	0.000763
983.2001	0.000952
983.4424	0.000467
983.6848	-0.000629
983.9271	0.001711
984.1695	0.001817
984.4118	0.001248
984.6542	0.000952
984.8966	0.001733
985.1390	0.000594
985.3814	0.000763
985.6238	0.001184
985.8662	0.000615
986.1086	0.000594
986.3510	0.001501
986.5934	0.000973
986.8358	0.000868
987.0783	0.001458
987.3207	0.000594
987.5632	0.002007
987.8056	0.000510
988.0481	0.000784
988.2906	0.001648
988.5331	0.000510
988.7756	0.000088
989.0180	0.000678
989.2605	0.001543
989.5031	0.000383
989.7456	0.001226
989.9881	0.001142
990.2306	-0.000460
990.4732	-0.000081
990.7157	0.001838
990.9582	0.001374
991.2008	0.000278
991.4434	0.000657
991.6859	0.002007
991.9285	0.001458
992.1711	-0.001198
992.4137	0.002049
992.6563	0.000720
992.8989	0.000847
993.1415	0.001037
993.3841	0.001016
993.6267	0.001332
993.8694	0.000025
994.1120	0.001817
994.3547	0.001479
994.5973	0.000699
994.8400	-0.000207
995.0826	0.001458
995.3253	0.001353
995.5680	0.000699
995.8107	-0.000102
996.0534	0.000172
996.2961	-0.000144
996.5388	0.000488
996.7815	0.001585
997.0242	0.001564
997.2670	0.001142
997.5097	0.001901
997.7524	0.000910
997.9952	0.000257
998.2379	0.000004
998.4807	0.000467
998.7235	0.001648
998.9662	0.001100
999.2090	-0.000481
999.4518	0.001332
999.6946	0.001690
999.9374	-0.000123
1000.1802	0.001522
1000.4230	0.000320
1000.6659	0.001775
1000.9087	0.000889
1001.1515	0.001416
1001.3944	0.000720
1001.6372	0.000826
1001.8801	0.000488
1002.1230	0.001353
1002.3658	0.001163
1002.6087	0.000257
1002.8516	0.000467
1003.0945	0.001395
1003.3374	0.000784
1003.5803	0.001880
1003.8232	0.001226
1004.0661	0.000763
1004.3091	0.000172
1004.5520	0.000510
1004.7949	0.000488
1005.0379	0.000446
1005.2808	0.002534
1005.5238	0.000404
1005.7667	0.000678
1006.0097	0.000552
1006.2527	0.000552
1006.4957	0.000720
1006.7387	-0.001241
1006.9817	0.000805
1007.2247	0.000826
1007.4677	0.002154
1007.7107	0.000868
1007.9538	-0.000039
1008.1968	-0.000481
1008.4398	-0.000018
1008.6829	0.000889
1008.9259	0.001226
1009.1690	0.001606
1009.4121	0.001416
1009.6551	-0.000228
1009.8982	0.002850
1010.1413	0.000151
1010.3844	0.001522
1010.6275	0.000973
1010.8706	0.001205
1011.1137	0.000109
1011.3568	0.000299
1011.6000	0.001733
1011.8431	0.001416
1012.0863	0.000425
1012.3294	0.001269
1012.5726	0.000573
1012.8157	0.001163
1013.0589	-0.000250
1013.3021	0.000109
1013.5452	0.001374
1013.7884	0.001100
1014.0316	-0.000355
1014.2748	0.001353
1014.5180	0.000699
1014.7613	0.000573
1015.0045	0.001248
1015.2477	0.000552
1015.4909	0.000826
1015.7342	0.000046
1015.9774	0.000193
1016.2207	0.000720
1016.4640	0.000952
1016.7072	0.001353
1016.9505	0.000594
1017.1938	0.000130
1017.4371	0.000446
1017.6804	0.001796
1017.9237	0.001037
1018.1670	0.000615
1018.4103	0.000995
1018.6536	0.001543
1018.8969	0.000995
1019.1403	0.001100
1019.3836	-0.000692
1019.6270	0.000299
1019.8703	0.000720
1020.1137	0.001880
1020.3571	0.000446
1020.6004	0.001163
1020.8438	0.000425
1021.0872	0.001901
1021.3306	0.000404
1021.5740	0.000699
1021.8174	-0.001156
1022.0608	0.000425
1022.3042	0.000552
1022.5477	-0.000418
1022.7911	0.001564
1023.0345	0.000995
