# Wavelength (nm)	Intensity (a.u.)
197.7802	-0.000303
197.9842	0.000795
198.1882	-0.000809
198.3922	-0.001527
198.5963	-0.000197
198.8003	-0.000281
199.0044	0.000900
199.2085	-0.000303
199.4126	-0.000429
199.6168	0.000922
199.8209	0.000478
200.0251	-0.000450
200.2292	-0.000577
200.4334	-0.001126
200.6376	-0.000936
200.8418	-0.001210
201.0461	0.000457
201.2503	-0.001126
201.4546	-0.001126
201.6589	-0.000070
201.8631	0.001006
202.0674	-0.001316
202.2718	-0.000028
202.4761	0.001133
202.6805	0.000711
202.8848	0.000732
203.0892	-0.000746
203.2936	0.000246
203.4980	-0.001463
203.7024	0.000415
203.9069	0.000035
204.1113	0.000204
204.3158	0.000457
204.5203	-0.001020
204.7248	-0.000999
204.9293	-0.000703
205.1338	0.000922
205.3384	-0.000936
205.5430	-0.000239
205.7475	-0.000936
205.9521	-0.000471
206.1567	-0.001442
206.3614	0.001491
206.5660	0.000288
206.7706	0.000626
206.9753	-0.000619
207.1800	0.001323
207.3847	-0.000978
207.5894	0.000668
207.7941	-0.000767
207.9989	-0.000661
208.2036	-0.000535
208.4084	-0.000809
208.6132	-0.000028
208.8180	-0.000598
209.0228	-0.000788
209.2276	-0.000345
209.4325	-0.001273
209.6373	-0.000514
209.8422	-0.000978
210.0471	0.000056
210.2520	0.000732
210.4569	-0.000936
210.6618	0.000310
210.8668	-0.000556
211.0718	0.000415
211.2767	-0.000324
211.4817	-0.000598
211.6867	-0.000809
211.8918	-0.000049
212.0968	-0.000324
212.3018	-0.000746
212.5069	-0.000303
212.7120	0.000964
212.9171	-0.001252
213.1222	0.001006
213.3273	0.001534
213.5325	0.000668
213.7376	-0.000007
213.9428	-0.000851
214.1480	0.000584
214.3532	0.000035
214.5584	0.000478
214.7636	-0.001294
214.9689	-0.000303
215.1741	-0.001168
215.3794	-0.001252
215.5847	-0.000281
215.7900	0.000985
215.9953	0.000183
216.2007	0.000732
216.4060	0.000521
216.6114	-0.000872
216.8168	-0.000598
217.0222	-0.000197
217.2276	-0.000535
217.4330	-0.000682
217.6384	-0.000429
217.8439	0.000183
218.0494	-0.001611
218.2548	-0.001083
218.4603	-0.001316
218.6659	0.000162
218.8714	-0.000809
219.0769	0.000141
219.2825	-0.000830
219.4881	0.000373
219.6936	-0.000345
219.8992	0.000267
220.1049	-0.000007
220.3105	-0.000239
220.5161	-0.000893
220.7218	0.000415
220.9275	-0.000345
221.1332	0.001365
221.3389	0.000352
221.5446	-0.000113
221.7503	-0.000155
221.9561	0.000162
222.1618	-0.000387
222.3676	0.000120
222.5734	0.000098
222.7792	0.000753
222.9850	0.000795
223.1909	0.000436
223.3967	-0.000176
223.6026	0.000605
223.8085	0.000120
224.0144	0.001808
224.2203	-0.000682
224.4262	0.000183
224.6322	0.000035
224.8381	-0.000598
225.0441	0.000331
225.2501	-0.000767
225.4561	-0.000239
225.6621	0.000542
225.8681	0.000183
226.0742	0.000795
226.2802	-0.000239
226.4863	0.000563
226.6924	0.000668
226.8985	-0.000429
227.1046	0.000732
227.3107	0.001301
227.5169	-0.000577
227.7230	-0.000408
227.9292	0.000373
228.1354	-0.000345
228.3416	-0.001463
228.5478	-0.001759
228.7541	0.000246
228.9603	-0.001104
229.1666	0.000352
229.3729	0.001175
229.5791	-0.000471
229.7855	0.000310
229.9918	-0.000556
230.1981	-0.000598
230.4045	-0.000429
230.6108	0.001850
230.8172	-0.001590
231.0236	-0.000324
231.2300	0.000584
231.4364	0.000288
231.6429	-0.000556
231.8493	-0.000239
232.0558	-0.000070
232.2623	-0.000978
232.4688	0.001175
232.6753	-0.000429
232.8818	0.000141
233.0884	0.000014
233.2949	-0.000303
233.5015	0.000204
233.7081	-0.001273
233.9147	-0.000640
234.1213	-0.000345
234.3279	0.000373
234.5346	-0.000598
234.7413	-0.000007
234.9479	-0.000091
235.1546	0.000816
235.3613	-0.000788
235.5680	-0.000218
235.7748	0.001301
235.9815	0.000584
236.1883	-0.000366
236.3951	-0.000155
236.6018	-0.000682
236.8087	-0.000176
237.0155	-0.000007
237.2223	0.001154
237.4292	-0.000598
237.6360	0.000056
237.8429	0.000267
238.0498	-0.000936
238.2567	0.000542
238.4636	-0.001337
238.6706	-0.000303
238.8775	-0.000091
239.0845	0.001027
239.2915	-0.000070
239.4985	-0.000830
239.7055	0.000647
239.9125	-0.000218
240.1195	0.000732
240.3266	-0.000113
240.5337	0.001428
240.7407	-0.000345
240.9478	-0.000070
241.1549	0.000162
241.3621	-0.000281
241.5692	0.000647
241.7764	-0.000303
241.9835	-0.000070
242.1907	0.000795
242.3979	-0.001421
242.6051	-0.001337
242.8124	0.001154
243.0196	-0.001316
243.2269	0.001386
243.4341	-0.000070
243.6414	0.000014
243.8487	0.001238
244.0560	0.000732
244.2634	0.000141
244.4707	-0.000682
244.6781	-0.000028
244.8854	0.000732
245.0928	0.000816
245.3002	-0.001210
245.5076	0.001365
245.7151	-0.001316
245.9225	0.000605
246.1300	0.000056
246.3375	-0.000577
246.5449	-0.000851
246.7524	-0.000682
246.9600	-0.000218
247.1675	-0.000176
247.3750	-0.000957
247.5826	0.000310
247.7902	-0.000113
247.9978	0.000035
248.2054	-0.000218
248.4130	0.001449
248.6206	-0.000366
248.8283	-0.001252
249.0359	-0.000113
249.2436	0.000478
249.4513	0.000056
249.6590	0.001133
249.8667	0.000331
250.0745	-0.000176
250.2822	-0.000978
250.4900	-0.000070
250.6978	0.000288
250.9056	0.000288
251.1134	-0.000661
251.3212	-0.000134
251.5290	0.000563
251.7369	0.001301
251.9447	0.000141
252.1526	0.000352
252.3605	-0.000788
252.5684	0.000943
252.7763	0.000288
252.9843	0.000626
253.1922	-0.000746
253.4002	-0.000007
253.6082	0.000162
253.8162	0.000457
254.0242	-0.001210
254.2322	0.000457
254.4402	0.000521
254.6483	-0.000303
254.8564	-0.000345
255.0644	0.000436
255.2725	-0.000134
255.4806	0.001491
255.6888	0.000499
255.8969	0.001850
256.1051	-0.001590
256.3132	0.000647
256.5214	-0.001041
256.7296	0.000141
256.9378	-0.000682
257.1460	-0.001189
257.3543	-0.000408
257.5625	-0.001548
257.7708	-0.000366
257.9791	0.001027
258.1874	-0.000577
258.3957	0.000879
258.6040	0.000225
258.8124	-0.000155
259.0207	-0.000345
259.2291	0.000267
259.4375	-0.000197
259.6459	-0.000091
259.8543	-0.001147
260.0627	0.000542
260.2711	0.000310
260.4796	-0.001400
260.6881	-0.000218
260.8965	0.000478
261.1050	-0.000429
261.3135	0.000753
261.5221	-0.000598
261.7306	0.000310
261.9392	-0.000450
262.1477	0.000035
262.3563	-0.000682
262.5649	-0.000556
262.7735	0.000225
262.9822	0.000246
263.1908	-0.000239
263.3995	-0.000197
263.6081	-0.000197
263.8168	0.001154
264.0255	-0.000408
264.2342	-0.000239
264.4429	-0.000450
264.6517	-0.001062
264.8604	-0.000788
265.0692	0.000795
265.2780	0.000499
265.4868	-0.000070
265.6956	-0.000028
265.9044	0.000225
266.1133	0.000605
266.3221	0.000732
266.5310	-0.000725
266.7399	-0.001126
266.9488	-0.000345
267.1577	0.000162
267.3666	-0.000408
267.5755	-0.001104
267.7845	-0.000535
267.9935	-0.001463
268.2024	0.000457
268.4114	-0.000788
268.6205	-0.000218
268.8295	0.000246
269.0385	-0.000408
269.2476	-0.001210
269.4566	-0.000450
269.6657	-0.000471
269.8748	0.000563
270.0839	-0.000429
270.2931	0.000310
270.5022	-0.000851
270.7114	0.000373
270.9205	0.000246
271.1297	-0.000408
271.3389	-0.000366
271.5481	-0.001147
271.7573	0.000668
271.9666	-0.001695
272.1758	-0.001126
272.3851	-0.000303
272.5944	0.000647
272.8037	-0.000640
273.0130	-0.000324
273.2223	-0.000324
273.4316	-0.000598
273.6410	0.000647
273.8504	-0.000830
274.0597	-0.000429
274.2691	0.000120
274.4785	0.000373
274.6880	-0.000091
274.8974	0.001555
275.1069	-0.000049
275.3163	0.000711
275.5258	-0.001126
275.7353	-0.000218
275.9448	-0.000091
276.1543	0.000120
276.3639	-0.000260
276.5734	-0.000345
276.7830	0.000795
276.9926	-0.000514
277.2022	0.000457
277.4118	0.001217
277.6214	-0.001505
277.8310	-0.000176
278.0407	0.000331
278.2503	-0.000197
278.4600	0.001238
278.6697	-0.000450
278.8794	-0.000007
279.0891	-0.001316
279.2989	-0.000429
279.5086	-0.000070
279.7184	-0.000408
279.9281	-0.000303
280.1379	0.000563
280.3477	-0.000830
280.5576	0.000584
280.7674	-0.000113
280.9772	0.001048
281.1871	0.001069
281.3970	0.001280
281.6069	-0.000619
281.8168	0.000900
282.0267	0.000120
282.2366	0.000457
282.4466	-0.001442
282.6565	0.000120
282.8665	-0.000366
283.0765	0.000837
283.2865	0.001090
283.4965	0.001133
283.7065	0.000246
283.9166	-0.000113
284.1266	-0.000260
284.3367	0.000879
284.5468	0.000077
284.7569	-0.000387
284.9670	-0.001590
285.1771	0.000457
285.3873	-0.001463
285.5974	-0.000598
285.8076	-0.000366
286.0178	0.000120
286.2280	-0.000661
286.4382	-0.000218
286.6484	0.000141
286.8587	-0.000218
287.0689	-0.000281
287.2792	0.000183
287.4895	-0.000429
287.6998	-0.000725
287.9101	-0.001083
288.1204	-0.000366
288.3308	-0.001062
288.5411	0.000711
288.7515	-0.000682
288.9619	0.000964
289.1723	-0.000936
289.3827	0.001069
289.5931	-0.000197
289.8035	0.000056
290.0140	-0.000893
290.2245	0.000436
290.4349	-0.000936
290.6454	-0.000703
290.8559	-0.000999
291.0665	0.000056
291.2770	-0.000049
291.4875	0.000394
291.6981	-0.000978
291.9087	0.001006
292.1193	-0.001189
292.3299	-0.000746
292.5405	-0.000134
292.7511	0.000795
292.9618	-0.000598
293.1724	-0.000113
293.3831	-0.000872
293.5938	-0.000049
293.8045	0.001112
294.0152	0.000711
294.2260	-0.001147
294.4367	-0.000408
294.6475	-0.000239
294.8582	-0.000028
295.0690	-0.001294
295.2798	-0.000893
295.4906	0.000542
295.7015	0.000732
295.9123	0.000499
296.1232	0.002230
296.3340	-0.000281
296.5449	0.000626
296.7558	-0.001569
296.9667	0.000077
297.1777	-0.000303
297.3886	-0.000176
297.5995	-0.001210
297.8105	-0.000366
298.0215	0.000183
298.2325	0.001006
298.4435	-0.000324
298.6545	0.001491
298.8656	-0.001062
299.0766	0.001090
299.2877	-0.000303
299.4988	0.000183
299.7099	-0.000450
299.9210	0.001154
300.1321	-0.000366
300.3432	0.000626
300.5544	-0.000893
300.7655	0.001681
300.9767	-0.001379
301.1879	-0.000260
301.3991	-0.000556
301.6103	0.000542
301.8215	-0.001020
302.0328	-0.000957
302.2441	-0.001062
302.4553	0.001280
302.6666	0.000014
302.8779	0.000689
303.0892	-0.000514
303.3006	0.000077
303.5119	0.000352
303.7233	-0.001041
303.9346	0.000584
304.1460	0.000816
304.3574	-0.000218
304.5688	-0.000218
304.7803	-0.000809
304.9917	0.000267
305.2031	-0.001104
305.4146	-0.000049
305.6261	0.000668
305.8376	-0.000809
306.0491	-0.001020
306.2606	0.001280
306.4722	0.000394
306.6837	-0.000387
306.8953	-0.001062
307.1069	0.000288
307.3184	-0.000345
307.5301	-0.000197
307.7417	0.000922
307.9533	-0.000260
308.1650	0.000288
308.3766	0.000605
308.5883	-0.001231
308.8000	-0.000007
309.0117	-0.000049
309.2234	-0.000957
309.4351	-0.000746
309.6469	-0.000366
309.8586	-0.000788
310.0704	0.000120
310.2822	-0.000408
310.4940	0.000900
310.7058	-0.000661
310.9176	-0.001126
311.1295	0.000457
311.3413	0.001323
311.5532	-0.000514
311.7651	0.000626
311.9770	-0.000366
312.1889	-0.000682
312.4008	-0.000661
312.6127	-0.001548
312.8247	0.000373
313.0366	0.000056
313.2486	-0.001527
313.4606	-0.000661
313.6726	-0.000176
313.8846	-0.000176
314.0967	-0.001421
314.3087	-0.000260
314.5208	-0.001906
314.7328	0.000204
314.9449	-0.000936
315.1570	0.001069
315.3692	0.000288
315.5813	-0.000492
315.7934	-0.000176
316.0056	-0.000429
316.2177	-0.000408
316.4299	0.000098
316.6421	-0.000703
316.8543	0.000162
317.0666	-0.000176
317.2788	-0.000640
317.4911	-0.001231
317.7033	0.000668
317.9156	0.000162
318.1279	0.001555
318.3402	-0.000788
318.5525	0.000879
318.7649	-0.001020
318.9772	0.000120
319.1896	-0.001379
319.4019	0.000964
319.6143	-0.000197
319.8267	0.000816
320.0392	0.000478
320.2516	0.000098
320.4640	0.001175
320.6765	0.000098
320.8890	-0.000303
321.1014	-0.000091
321.3139	-0.001210
321.5265	0.000288
321.7390	0.000436
321.9515	-0.000682
322.1641	0.000098
322.3766	0.000837
322.5892	0.000626
322.8018	-0.000260
323.0144	-0.001168
323.2270	0.000141
323.4397	0.000626
323.6523	0.000373
323.8650	-0.001653
324.0777	0.000985
324.2904	-0.000366
324.5031	0.000331
324.7158	-0.000324
324.9285	-0.000281
325.1412	0.000310
325.3540	0.000077
325.5668	0.000668
325.7796	0.001133
325.9924	0.000900
326.2052	-0.000893
326.4180	0.000436
326.6308	0.000331
326.8437	0.001217
327.0566	0.001027
327.2694	0.000120
327.4823	-0.000682
327.6952	-0.000239
327.9082	0.000795
328.1211	0.001407
328.3340	0.000141
328.5470	-0.000915
328.7600	0.000626
328.9730	-0.000851
329.1860	0.001048
329.3990	-0.000218
329.6120	0.000542
329.8251	0.000014
330.0381	-0.000007
330.2512	-0.000978
330.4643	0.000056
330.6774	-0.000070
330.8905	0.000077
331.1036	-0.001294
331.3167	-0.001611
331.5299	-0.000218
331.7431	0.000647
331.9562	-0.001147
332.1694	0.000816
332.3826	0.000267
332.5959	0.000141
332.8091	0.000352
333.0223	-0.000366
333.2356	0.000056
333.4489	0.000668
333.6622	-0.000471
333.8755	-0.000598
334.0888	-0.000345
334.3021	-0.000345
334.5154	0.001365
334.7288	-0.000577
334.9422	-0.000260
335.1555	0.000584
335.3689	-0.000091
335.5823	-0.000577
335.7958	0.000246
336.0092	-0.000619
336.2227	0.000331
336.4361	-0.000007
336.6496	-0.000788
336.8631	0.000415
337.0766	-0.001231
337.2901	0.000879
337.5036	0.000352
337.7172	0.001006
337.9307	0.000331
338.1443	0.000542
338.3579	-0.000303
338.5715	0.000436
338.7851	-0.000535
338.9987	-0.000366
339.2124	0.000120
339.4260	0.000310
339.6397	-0.000218
339.8533	-0.000091
340.0670	0.001217
340.2807	0.000120
340.4945	0.000605
340.7082	0.000373
340.9219	-0.000134
341.1357	-0.000661
341.3495	-0.001611
341.5633	-0.000113
341.7771	0.000542
341.9909	0.000774
342.2047	-0.000218
342.4185	-0.000049
342.6324	0.000732
342.8463	-0.000682
343.0601	0.000584
343.2740	0.000584
343.4879	0.000795
343.7019	0.000837
343.9158	-0.000682
344.1297	0.000900
344.3437	0.000900
344.5577	0.001048
344.7717	-0.001484
344.9857	0.000837
345.1997	0.000584
345.4137	0.001006
345.6277	0.000014
345.8418	-0.001400
346.0559	-0.000598
346.2699	0.001006
346.4840	-0.001527
346.6981	0.000331
346.9123	-0.000218
347.1264	0.000331
347.3406	0.001724
347.5547	0.000415
347.7689	-0.001041
347.9831	-0.001590
348.1973	0.000373
348.4115	0.000056
348.6257	0.000478
348.8400	-0.000134
349.0542	-0.001041
349.2685	-0.000281
349.4828	0.000373
349.6971	-0.000134
349.9114	-0.000619
350.1257	0.000457
350.3400	-0.000514
350.5544	-0.000091
350.7687	-0.001442
350.9831	-0.000281
351.1975	-0.000007
351.4119	0.001006
351.6263	0.000584
351.8407	0.001217
352.0552	-0.001717
352.2696	-0.000619
352.4841	-0.000239
352.6986	0.001259
352.9131	-0.000387
353.1276	-0.001147
353.3421	-0.000007
353.5566	0.001048
353.7712	-0.000303
353.9858	-0.000408
354.2003	-0.000830
354.4149	-0.000851
354.6295	-0.000028
354.8441	0.000035
355.0588	-0.000155
355.2734	0.001555
355.4881	-0.000471
355.7027	0.000605
355.9174	-0.001041
356.1321	-0.000049
356.3468	-0.000197
356.5615	-0.000049
356.7763	-0.000661
356.9910	0.000035
357.2058	0.000605
357.4206	0.000394
357.6353	0.000521
357.8501	-0.000598
358.0650	0.000626
358.2798	0.001513
358.4946	-0.000471
358.7095	-0.000281
358.9243	-0.000725
359.1392	-0.000936
359.3541	0.000077
359.5690	0.000795
359.7839	-0.000113
359.9989	0.000183
360.2138	-0.000872
360.4288	0.001534
360.6438	-0.000281
360.8587	-0.000598
361.0737	-0.000387
361.2888	0.000267
361.5038	-0.000218
361.7188	0.000373
361.9339	-0.000936
362.1489	-0.000113
362.3640	0.000162
362.5791	-0.000598
362.7942	-0.000514
363.0093	0.000035
363.2245	0.000795
363.4396	0.000331
363.6548	-0.001126
363.8699	0.000120
364.0851	0.000246
364.3003	0.001344
364.5155	-0.000303
364.7308	-0.000387
364.9460	0.000310
365.1612	0.000225
365.3765	-0.000303
365.5918	0.000922
365.8071	-0.000978
366.0224	-0.001210
366.2377	0.000288
366.4530	-0.000471
366.6684	-0.000197
366.8837	-0.000957
367.0991	0.001133
367.3145	0.001534
367.5299	-0.000598
367.7453	-0.000155
367.9607	0.000499
368.1761	-0.000556
368.3916	-0.000577
368.6070	0.001154
368.8225	-0.000028
369.0380	0.001724
369.2535	-0.000978
369.4690	0.000879
369.6845	-0.000767
369.9001	-0.000007
370.1156	-0.001126
370.3312	0.000415
370.5468	-0.000155
370.7624	0.001006
370.9780	0.000605
371.1936	0.001555
371.4092	-0.000703
371.6249	-0.000176
371.8405	-0.000872
372.0562	0.000584
372.2719	-0.000197
372.4876	0.000267
372.7033	-0.000872
372.9190	0.000457
373.1348	0.000436
373.3505	0.000373
373.5663	-0.000535
373.7820	0.001006
373.9978	-0.001041
374.2136	-0.000619
374.4294	-0.000830
374.6453	0.000457
374.8611	-0.000176
375.0770	0.001027
375.2928	-0.000260
375.5087	0.000499
375.7246	-0.000197
375.9405	-0.000640
376.1564	0.000035
376.3724	-0.000366
376.5883	-0.000556
376.8043	0.000689
377.0203	0.000394
377.2362	0.000246
377.4522	0.000837
377.6682	0.000394
377.8843	0.001048
378.1003	-0.000303
378.3164	-0.000134
378.5324	0.000499
378.7485	-0.000535
378.9646	-0.000134
379.1807	0.000310
379.3968	0.000098
379.6129	-0.000978
379.8291	0.000964
380.0452	-0.000113
380.2614	0.000689
380.4776	-0.001020
380.6938	0.000563
380.9100	-0.001231
381.1262	0.000288
381.3424	-0.001695
381.5587	-0.000492
381.7749	-0.001421
381.9912	0.000563
382.2075	0.000605
382.4238	-0.000450
382.6401	-0.000535
382.8564	-0.000049
383.0728	-0.001189
383.2891	-0.001484
383.5055	-0.000028
383.7219	-0.000176
383.9382	0.000162
384.1546	-0.000345
384.3711	0.000310
384.5875	-0.000450
384.8039	-0.000345
385.0204	0.000626
385.2368	-0.000661
385.4533	0.000288
385.6698	-0.000176
385.8863	0.000141
386.1028	0.000035
386.3194	0.000584
386.5359	0.000098
386.7525	0.000774
386.9690	-0.000936
387.1856	0.000077
387.4022	0.000668
387.6188	0.000837
387.8355	-0.001041
388.0521	0.000331
388.2687	-0.000661
388.4854	0.000858
388.7021	-0.000577
388.9188	0.001956
389.1355	0.000267
389.3522	0.000816
389.5689	-0.000577
389.7856	0.000689
390.0024	0.000246
390.2192	0.000584
390.4359	0.001259
390.6527	0.001470
390.8695	0.000626
391.0863	0.001534
391.3032	0.000436
391.5200	0.001977
391.7369	0.002272
391.9537	0.001787
392.1706	0.002230
392.3875	0.001618
392.6044	0.000922
392.8213	0.001935
393.0383	0.000732
393.2552	0.002378
393.4722	0.002209
393.6891	0.001470
393.9061	0.003243
394.1231	0.001766
394.3401	0.002547
394.5572	0.004193
394.7742	0.003011
394.9912	0.002526
395.2083	0.004024
395.4254	0.003623
395.6425	0.003433
395.8596	0.003602
396.0767	0.003011
396.2938	0.003201
396.5109	0.004256
396.7281	0.004425
396.9453	0.005037
397.1624	0.003918
397.3796	0.002948
397.5968	0.004805
397.8140	0.006451
398.0313	0.005607
398.2485	0.004678
398.4658	0.006198
398.6830	0.004509
398.9003	0.006156
399.1176	0.006240
399.3349	0.005818
399.5522	0.006029
399.7696	0.005712
399.9869	0.006535
400.2043	0.005628
400.4216	0.006535
400.6390	0.006620
400.8564	0.007443
401.0738	0.007738
401.2912	0.005966
401.5087	0.006958
401.7261	0.006831
401.9436	0.007422
402.1610	0.007000
402.3785	0.008055
402.5960	0.006557
402.8135	0.007696
403.0310	0.007992
403.2486	0.008076
403.4661	0.008097
403.6837	0.008034
403.9013	0.008667
404.1189	0.010060
404.3365	0.009110
404.5541	0.008055
404.7717	0.007949
404.9893	0.008857
405.2070	0.007844
405.4246	0.010967
405.6423	0.009891
405.8600	0.010904
406.0777	0.009870
406.2954	0.009891
406.5131	0.010250
406.7309	0.010377
406.9486	0.008815
407.1664	0.010187
407.3842	0.010123
407.6020	0.009406
407.8198	0.011453
408.0376	0.009131
408.2554	0.009997
408.4733	0.010883
408.6911	0.010989
408.9090	0.011748
409.1269	0.012086
409.3448	0.012445
409.5627	0.010355
409.7806	0.013648
409.9985	0.011833
410.2165	0.010545
410.4344	0.011411
410.6524	0.012508
410.8704	0.012930
411.0884	0.012107
411.3064	0.012508
411.5244	0.011706
411.7424	0.011622
411.9605	0.011959
412.1785	0.012550
412.3966	0.012192
412.6147	0.013205
412.8328	0.013669
413.0509	0.013373
413.2690	0.012930
413.4871	0.014935
413.7053	0.013310
413.9234	0.015104
414.1416	0.011980
414.3598	0.012972
414.5780	0.012782
414.7962	0.014260
415.0144	0.013416
415.2326	0.013205
415.4509	0.014766
415.6692	0.014830
415.8874	0.015041
416.1057	0.014408
416.3240	0.013795
416.5423	0.014998
416.7606	0.014597
416.9790	0.015695
417.1973	0.015273
417.4157	0.014513
417.6341	0.014471
417.8524	0.014682
418.0708	0.013247
418.2893	0.015231
418.5077	0.015843
418.7261	0.014998
418.9446	0.014323
419.1630	0.014365
419.3815	0.015062
419.6000	0.014513
419.8185	0.013964
420.0370	0.015484
420.2555	0.017531
420.4741	0.016349
420.6926	0.016602
420.9112	0.018080
421.1298	0.017700
421.3483	0.018650
421.5669	0.019452
421.7856	0.019557
422.0042	0.020992
422.2228	0.020317
422.4415	0.019473
422.6601	0.018502
422.8788	0.017932
423.0975	0.019114
423.3162	0.018734
423.5349	0.019409
423.7536	0.018628
423.9724	0.018861
424.1911	0.017658
424.4099	0.018586
424.6287	0.018861
424.8475	0.019114
425.0663	0.017911
425.2851	0.018439
425.5039	0.017552
425.7228	0.017426
425.9416	0.019452
426.1605	0.017911
426.3793	0.016729
426.5982	0.017172
426.8171	0.017489
427.0361	0.016117
427.2550	0.018164
427.4739	0.018628
427.6929	0.018565
427.9118	0.018354
428.1308	0.016940
428.3498	0.017869
428.5688	0.018439
428.7878	0.019705
429.0068	0.020296
429.2259	0.017932
429.4449	0.017805
429.6640	0.021710
429.8831	0.022174
430.1022	0.020591
430.3213	0.021478
430.5404	0.022554
430.7595	0.021921
430.9787	0.019768
431.1978	0.020739
431.4170	0.019346
431.6362	0.018987
431.8553	0.019198
432.0745	0.019536
432.2938	0.017172
432.5130	0.019008
432.7322	0.017362
432.9515	0.018502
433.1707	0.017594
433.3900	0.019684
433.6093	0.021393
433.8286	0.019599
434.0479	0.022153
434.2673	0.018291
434.4866	0.019557
434.7059	0.016370
434.9253	0.020148
435.1447	0.019367
435.3641	0.019916
435.5835	0.020296
435.8029	0.022026
436.0223	0.019452
436.2418	0.019705
436.4612	0.020296
436.6807	0.019958
436.9001	0.021393
437.1196	0.021182
437.3391	0.019409
437.5586	0.018987
437.7782	0.019051
437.9977	0.018439
438.2173	0.019768
438.4368	0.020570
438.6564	0.020612
438.8760	0.019895
439.0956	0.021815
439.3152	0.020655
439.5348	0.020844
439.7545	0.021520
439.9741	0.019557
440.1938	0.019388
440.4135	0.016244
440.6331	0.018481
440.8528	0.020866
441.0725	0.022322
441.2923	0.022195
441.5120	0.023820
441.7318	0.024263
441.9515	0.025234
442.1713	0.022723
442.3911	0.023124
442.6109	0.022702
442.8307	0.022533
443.0505	0.021752
443.2703	0.024390
443.4902	0.021077
443.7101	0.022554
443.9299	0.022533
444.1498	0.023314
444.3697	0.021309
444.5896	0.021731
444.8095	0.024411
445.0295	0.021583
445.2494	0.021013
445.4694	0.019705
445.6894	0.021836
445.9093	0.022596
446.1293	0.023229
446.3493	0.023377
446.5694	0.023060
446.7894	0.023525
447.0094	0.021267
447.2295	0.019557
447.4496	0.020190
447.6696	0.021752
447.8897	0.020232
448.1098	0.020380
448.3300	0.019642
448.5501	0.019642
448.7702	0.021942
448.9904	0.020359
449.2106	0.021013
449.4307	0.021077
449.6509	0.020021
449.8711	0.018713
450.0914	0.017468
450.3116	0.019789
450.5318	0.019262
450.7521	0.019093
450.9724	0.019219
451.1926	0.017848
451.4129	0.016096
451.6332	0.017468
451.8535	0.017805
452.0739	0.019114
452.2942	0.018101
452.5146	0.017805
452.7349	0.018122
452.9553	0.016286
453.1757	0.016708
453.3961	0.014408
453.6165	0.014302
453.8369	0.017468
454.0574	0.013563
454.2778	0.015885
454.4983	0.016075
454.7188	0.014429
454.9393	0.015632
455.1597	0.014028
455.3803	0.015020
455.6008	0.016011
455.8213	0.015104
456.0419	0.016011
456.2624	0.013394
456.4830	0.015357
456.7036	0.015484
456.9242	0.015653
457.1448	0.016560
457.3654	0.013964
457.5860	0.015357
457.8067	0.015906
458.0274	0.013922
458.2480	0.015864
458.4687	0.014766
458.6894	0.014196
458.9101	0.014513
459.1308	0.014133
459.3516	0.013711
459.5723	0.013247
459.7931	0.014218
460.0138	0.016856
460.2346	0.012677
460.4554	0.013943
460.6762	0.011938
460.8970	0.014408
461.1178	0.013331
461.3387	0.014766
461.5595	0.013479
461.7804	0.015125
462.0013	0.012424
462.2222	0.011263
462.4431	0.012635
462.6640	0.010799
462.8849	0.010524
463.1059	0.011791
463.3268	0.012107
463.5478	0.011959
463.7687	0.012424
463.9897	0.011094
464.2107	0.013584
464.4317	0.012192
464.6528	0.012972
464.8738	0.013120
465.0948	0.012614
465.3159	0.012424
465.5370	0.012719
465.7581	0.014049
465.9792	0.010967
466.2003	0.011791
466.4214	0.011875
466.6425	0.010946
466.8637	0.009174
467.0848	0.013753
467.3060	0.009912
467.5272	0.008308
467.7484	0.008815
467.9696	0.009722
468.1908	0.009638
468.4120	0.010060
468.6333	0.010461
468.8545	0.008161
469.0758	0.008329
469.2970	0.007949
469.5183	0.007992
469.7396	0.008941
469.9610	0.009321
470.1823	0.008836
470.4036	0.007971
470.6250	0.008414
470.8463	0.008013
471.0677	0.006979
471.2891	0.007612
471.5105	0.004805
471.7319	0.006599
471.9533	0.006282
472.1748	0.007000
472.3962	0.006852
472.6177	0.007337
472.8391	0.007190
473.0606	0.007802
473.2821	0.007802
473.5036	0.008182
473.7251	0.007781
473.9467	0.008435
474.1682	0.006409
474.3898	0.008034
474.6113	0.006472
474.8329	0.007548
475.0545	0.006852
475.2761	0.008393
475.4977	0.005522
475.7193	0.006493
475.9410	0.008709
476.1626	0.007570
476.3843	0.006493
476.6060	0.007105
476.8277	0.005544
477.0494	0.007506
477.2711	0.005902
477.4928	0.006198
477.7145	0.005881
477.9363	0.007021
478.1580	0.005691
478.3798	0.004615
478.6016	0.006662
478.8234	0.005522
479.0452	0.006557
479.2670	0.005311
479.4888	0.005058
479.7107	0.005628
479.9325	0.004636
480.1544	0.005966
480.3763	0.006008
480.5982	0.006240
480.8201	0.006261
481.0420	0.006282
481.2639	0.004573
481.4859	0.006177
481.7078	0.005586
481.9298	0.005354
482.1517	0.005818
482.3737	0.003771
482.5957	0.004826
482.8177	0.004784
483.0398	0.005818
483.2618	0.007232
483.4838	0.005058
483.7059	0.006345
483.9280	0.004931
484.1501	0.005417
484.3721	0.004636
484.5943	0.004995
484.8164	0.005712
485.0385	0.005185
485.2606	0.004995
485.4828	0.005691
485.7050	0.010081
485.9271	0.014640
486.1493	0.017890
486.3715	0.013458
486.5937	0.010925
486.8160	0.009596
487.0382	0.008097
487.2605	0.006746
487.4827	0.006493
487.7050	0.006831
487.9273	0.003454
488.1496	0.004341
488.3719	0.002821
488.5942	0.003517
488.8165	0.002040
489.0389	0.005712
489.2612	0.003306
489.4836	0.004362
489.7060	0.002462
489.9284	0.003285
490.1508	0.004214
490.3732	0.003623
490.5956	0.003792
490.8180	0.003792
491.0405	0.003897
491.2630	0.002969
491.4854	0.003116
491.7079	0.001913
491.9304	0.003159
492.1529	0.002568
492.3755	0.003792
492.5980	0.001491
492.8205	0.003940
493.0431	0.002251
493.2657	0.003011
493.4882	0.002230
493.7108	0.003074
493.9334	0.003264
494.1561	0.003897
494.3787	0.003116
494.6013	0.002146
494.8240	0.001998
495.0466	0.002779
495.2693	0.003475
495.4920	0.002019
495.7147	0.003011
495.9374	0.000964
496.1601	0.004193
496.3829	0.002715
496.6056	0.003011
496.8284	0.003138
497.0511	0.003053
497.2739	0.002948
497.4967	0.003876
497.7195	0.001871
497.9423	0.000964
498.1652	0.001597
498.3880	0.002863
498.6109	0.001618
498.8337	0.002990
499.0566	0.000711
499.2795	0.003285
499.5024	0.002568
499.7253	0.004720
499.9482	0.002905
500.1712	0.001365
500.3941	0.002779
500.6171	0.002209
500.8400	0.002483
501.0630	0.002420
501.2860	0.003412
501.5090	0.002040
501.7320	0.003053
501.9551	0.001935
502.1781	0.002125
502.4012	0.002103
502.6242	0.000879
502.8473	0.002673
503.0704	0.002061
503.2935	0.003391
503.5166	0.002251
503.7397	0.002884
503.9628	0.002399
504.1860	0.003053
504.4092	0.001576
504.6323	0.003095
504.8555	0.002863
505.0787	0.002314
505.3019	0.001217
505.5251	0.002167
505.7483	0.003349
505.9716	0.003602
506.1948	0.002779
506.4181	0.003328
506.6414	0.001555
506.8647	0.001871
507.0880	0.002462
507.3113	0.000985
507.5346	0.001428
507.7579	0.002167
507.9813	0.001702
508.2046	0.002737
508.4280	0.003665
508.6514	0.003159
508.8748	0.001913
509.0982	0.002652
509.3216	0.002800
509.5450	0.001301
509.7685	0.002082
509.9919	0.001534
510.2154	0.002146
510.4388	0.001323
510.6623	0.002019
510.8858	0.002990
511.1093	0.001871
511.3329	0.002737
511.5564	0.001386
511.7799	0.003729
512.0035	0.001745
512.2270	0.002673
512.4506	0.002715
512.6742	0.001766
512.8978	0.001344
513.1214	0.002357
513.3451	0.002441
513.5687	0.004087
513.7923	0.001491
514.0160	0.002715
514.2397	0.002103
514.4634	0.003095
514.6871	0.001133
514.9108	0.002378
515.1345	0.000774
515.3582	0.003391
515.5819	0.001935
515.8057	0.001365
516.0295	0.004172
516.2532	0.002167
516.4770	0.000584
516.7008	0.001618
516.9246	0.003602
517.1485	0.002504
517.3723	0.001491
517.5961	0.003918
517.8200	0.001280
518.0439	0.003053
518.2677	0.002631
518.4916	0.001766
518.7155	0.001913
518.9395	0.000943
519.1634	0.002610
519.3873	0.002779
519.6113	0.001428
519.8352	0.002652
520.0592	0.003623
520.2832	0.001090
520.5072	0.003665
520.7312	0.001259
520.9552	0.002504
521.1792	0.000732
521.4033	0.002462
521.6273	0.002715
521.8514	0.003792
522.0755	0.001745
522.2996	0.003053
522.5237	0.000626
522.7478	0.002082
522.9719	0.001745
523.1960	0.002927
523.4202	0.002589
523.6443	0.001513
523.8685	0.001323
524.0927	0.002737
524.3169	0.003771
524.5411	0.003370
524.7653	0.002673
524.9895	0.003243
525.2138	0.002504
525.4380	0.002209
525.6623	0.002948
525.8865	0.002990
526.1108	0.001808
526.3351	0.003412
526.5594	0.002631
526.7837	0.002483
527.0081	0.003560
527.2324	0.002758
527.4568	0.002589
527.6811	0.003771
527.9055	0.002969
528.1299	0.003391
528.3543	0.001365
528.5787	0.002589
528.8031	0.003665
529.0276	0.004151
529.2520	0.003602
529.4765	0.005797
529.7009	0.004446
529.9254	0.004362
530.1499	0.004805
530.3744	0.004953
530.5989	0.004172
530.8234	0.003243
531.0480	0.002272
531.2725	0.003686
531.4971	0.003496
531.7217	0.003961
531.9462	0.002441
532.1708	0.003433
532.3954	0.004045
532.6200	0.003813
532.8447	0.004678
533.0693	0.006367
533.2940	0.004889
533.5186	0.004298
533.7433	0.005037
533.9680	0.006388
534.1927	0.005058
534.4174	0.006894
534.6421	0.006282
534.8668	0.006662
535.0916	0.005649
535.3163	0.007443
535.5411	0.007253
535.7659	0.006113
535.9907	0.006831
536.2155	0.007232
536.4403	0.005945
536.6651	0.004383
536.8899	0.006008
537.1148	0.004826
537.3396	0.006367
537.5645	0.005396
537.7894	0.006430
538.0143	0.006156
538.2392	0.006915
538.4641	0.008941
538.6890	0.007000
538.9139	0.007717
539.1389	0.007295
539.3638	0.007506
539.5888	0.008350
539.8138	0.007675
540.0388	0.007211
540.2638	0.006557
540.4888	0.008287
540.7138	0.008245
540.9389	0.007211
541.1639	0.007169
541.3890	0.008329
541.6140	0.009427
541.8391	0.008139
542.0642	0.008625
542.2893	0.009342
542.5144	0.009026
542.7396	0.009891
542.9647	0.009532
543.1899	0.010524
543.4150	0.010039
543.6402	0.010925
543.8654	0.012635
544.0906	0.010777
544.3158	0.011200
544.5410	0.011833
544.7662	0.011558
544.9915	0.009722
545.2167	0.012234
545.4420	0.011368
545.6673	0.011200
545.8926	0.011558
546.1179	0.009912
546.3432	0.011896
546.5685	0.011769
546.7938	0.011558
547.0192	0.014851
547.2445	0.012170
547.4699	0.013479
547.6953	0.014534
547.9206	0.015843
548.1460	0.016666
548.3715	0.017299
548.5969	0.014766
548.8223	0.016096
549.0478	0.014703
549.2732	0.013690
549.4987	0.014365
549.7242	0.014007
549.9496	0.015041
550.1751	0.015568
550.4007	0.013542
550.6262	0.014724
550.8517	0.013922
551.0773	0.013183
551.3028	0.014534
551.5284	0.014809
551.7540	0.012571
551.9796	0.016708
552.2052	0.018249
552.4308	0.017510
552.6564	0.019473
552.8820	0.018818
553.1077	0.017320
553.3333	0.018671
553.5590	0.020106
553.7847	0.018038
554.0104	0.018523
554.2361	0.020169
554.4618	0.018375
554.6875	0.017974
554.9132	0.017932
555.1390	0.019874
555.3648	0.019620
555.5905	0.020380
555.8163	0.020465
556.0421	0.021858
556.2679	0.022849
556.4937	0.021921
556.7195	0.022406
556.9454	0.019051
557.1712	0.022090
557.3971	0.021604
557.6230	0.021161
557.8488	0.022047
558.0747	0.022765
558.3006	0.020000
558.5266	0.020655
558.7525	0.020064
558.9784	0.018143
559.2044	0.021879
559.4303	0.020169
559.6563	0.022491
559.8823	0.021077
560.1083	0.023124
560.3343	0.023356
560.5603	0.027091
560.7863	0.027809
561.0124	0.027049
561.2384	0.026838
561.4645	0.029181
561.6905	0.028653
561.9166	0.026880
562.1427	0.026859
562.3688	0.026986
562.5949	0.027725
562.8211	0.026458
563.0472	0.026733
563.2733	0.028695
563.4995	0.029941
563.7257	0.027387
563.9519	0.030278
564.1781	0.029708
564.4043	0.030215
564.6305	0.030532
564.8567	0.031924
565.0829	0.032347
565.3092	0.033338
565.5355	0.034584
565.7617	0.032895
565.9880	0.034900
566.2143	0.034373
566.4406	0.035343
566.6669	0.033655
566.8932	0.035048
567.1196	0.038150
567.3459	0.042371
567.5723	0.041823
567.7987	0.043975
568.0250	0.046656
568.2514	0.049167
568.4778	0.049568
568.7043	0.052185
568.9307	0.054971
569.1571	0.059930
569.3836	0.063286
569.6100	0.072593
569.8365	0.078144
570.0630	0.085045
570.2895	0.086881
570.5160	0.085763
570.7425	0.087240
570.9690	0.091693
571.1956	0.099396
571.4221	0.101971
571.6487	0.105939
571.8752	0.108936
572.1018	0.114339
572.3284	0.113600
572.5550	0.106298
572.7816	0.101106
573.0082	0.096695
573.2349	0.103638
573.4615	0.113959
573.6882	0.122401
573.9149	0.128394
574.1415	0.131856
574.3682	0.138546
574.5949	0.144413
574.8216	0.144835
575.0484	0.145764
575.2751	0.145764
575.5018	0.143548
575.7286	0.139643
575.9554	0.133502
576.1821	0.130568
576.4089	0.137153
576.6357	0.145785
576.8626	0.145785
577.0894	0.152074
577.3162	0.155282
577.5431	0.158089
577.7699	0.179531
577.9968	0.207664
578.2237	0.203865
578.4505	0.187593
578.6774	0.180164
578.9044	0.169443
579.1313	0.156400
579.3582	0.159207
579.5851	0.166847
579.8121	0.173158
580.0391	0.169042
580.2660	0.175796
580.4930	0.172102
580.7200	0.168303
580.9470	0.167607
581.1741	0.203084
581.4011	0.243563
581.6281	0.269670
581.8552	0.268066
582.0822	0.262684
582.3093	0.257872
582.5364	0.237274
582.7635	0.217456
582.9906	0.199475
583.2177	0.188838
583.4449	0.170984
583.6720	0.155915
583.8991	0.156105
584.1263	0.158258
584.3535	0.162078
584.5807	0.162289
584.8079	0.169739
585.0351	0.187445
585.2623	0.197407
585.4895	0.202113
585.7167	0.195170
585.9440	0.184090
586.1713	0.179742
586.3985	0.170752
586.6258	0.163555
586.8531	0.166552
587.0804	0.176914
587.3077	0.184617
587.5350	0.189661
587.7624	0.190062
587.9897	0.184259
588.2171	0.166953
588.4445	0.166805
588.6718	0.162162
588.8992	0.158173
589.1266	0.147473
589.3540	0.137174
589.5815	0.136815
589.8089	0.133649
590.0363	0.129851
590.2638	0.127086
590.4913	0.124216
590.7187	0.119974
590.9462	0.113642
591.1737	0.107923
591.4012	0.107311
591.6288	0.110582
591.8563	0.108303
592.0838	0.107669
592.3114	0.111215
592.5389	0.126600
592.7665	0.152032
592.9941	0.166172
593.2217	0.171617
593.4493	0.170773
593.6769	0.166721
593.9046	0.161824
594.1322	0.154058
594.3598	0.145173
594.5875	0.143252
594.8152	0.151905
595.0429	0.160326
595.2705	0.163470
595.4983	0.161297
595.7260	0.153235
595.9537	0.145152
596.1814	0.136857
596.4092	0.127001
596.6369	0.119404
596.8647	0.118412
597.0925	0.121008
597.3203	0.121936
597.5481	0.126326
597.7759	0.123477
598.0037	0.118665
598.2315	0.118496
598.4594	0.115415
598.6872	0.126305
598.9151	0.145531
599.1430	0.155176
599.3709	0.152095
599.5988	0.146861
599.8267	0.148317
600.0546	0.150238
600.2825	0.152201
600.5105	0.152686
600.7384	0.151399
600.9664	0.155007
601.1944	0.159228
601.4223	0.153530
601.6503	0.149267
601.8783	0.142302
602.1064	0.141099
602.3344	0.135992
602.5624	0.137828
602.7905	0.140762
603.0185	0.145954
603.2466	0.148317
603.4747	0.157814
603.7028	0.156907
603.9309	0.147832
604.1590	0.145827
604.3871	0.140656
604.6152	0.136456
604.8434	0.127782
605.0715	0.129196
605.2997	0.129260
605.5279	0.136076
605.7561	0.143168
605.9843	0.146502
606.2125	0.147494
606.4407	0.134578
606.6689	0.127930
606.8972	0.129618
607.1254	0.129260
607.3537	0.133143
607.5819	0.134810
607.8102	0.133502
608.0385	0.129745
608.2668	0.124131
608.4951	0.122337
608.7235	0.119509
608.9518	0.120100
609.1801	0.116660
609.4085	0.110899
609.6369	0.109442
609.8653	0.114993
610.0936	0.124595
610.3220	0.125440
610.5505	0.119383
610.7789	0.117019
611.0073	0.115267
611.2357	0.113220
611.4642	0.112165
611.6927	0.115900
611.9211	0.112101
612.1496	0.111110
612.3781	0.106255
612.6066	0.106066
612.8351	0.106678
613.0637	0.111489
613.2922	0.104968
613.5208	0.105918
613.7493	0.104546
613.9779	0.105559
614.2065	0.106066
614.4351	0.106424
614.6637	0.104841
614.8923	0.109337
615.1209	0.103005
615.3495	0.106108
615.5782	0.111532
615.8068	0.109506
616.0355	0.105242
616.2642	0.100431
616.4929	0.098236
616.7216	0.093635
616.9503	0.091102
617.1790	0.094078
617.4077	0.089604
617.6365	0.090089
617.8652	0.089667
618.0940	0.094247
618.3227	0.089773
618.5515	0.086628
618.7803	0.080571
619.0091	0.076920
619.2379	0.078545
619.4667	0.073817
619.6956	0.076329
619.9244	0.076920
620.1533	0.080233
620.3821	0.082850
620.6110	0.079832
620.8399	0.074577
621.0688	0.065798
621.2977	0.060965
621.5266	0.061007
621.7556	0.063244
621.9845	0.067233
622.2135	0.070124
622.4424	0.066578
622.6714	0.070145
622.9004	0.070905
623.1294	0.072213
623.3584	0.072762
623.5874	0.076920
623.8164	0.073564
624.0454	0.072382
624.2745	0.071095
624.5035	0.077954
624.7326	0.078946
624.9617	0.074894
625.1908	0.072235
625.4199	0.068499
625.6490	0.067148
625.8781	0.067697
626.1072	0.066431
626.3364	0.061239
626.5655	0.061176
626.7947	0.056279
627.0238	0.056089
627.2530	0.058284
627.4822	0.060521
627.7114	0.060458
627.9406	0.056554
628.1698	0.051932
628.3991	0.051362
628.6283	0.051911
628.8576	0.049104
629.0868	0.051510
629.3161	0.052037
629.5454	0.052713
629.7747	0.053219
630.0040	0.053198
630.2333	0.050032
630.4626	0.048872
630.6920	0.048745
630.9213	0.044608
631.1507	0.044250
631.3801	0.043216
631.6094	0.045263
631.8388	0.045621
632.0682	0.042350
632.2976	0.041970
632.5271	0.040810
632.7565	0.040240
632.9859	0.037116
633.2154	0.038784
633.4448	0.036103
633.6743	0.036652
633.9038	0.037053
634.1333	0.037285
634.3628	0.035618
634.5923	0.036589
634.8218	0.034985
635.0514	0.032072
635.2809	0.032959
635.5105	0.034985
635.7400	0.034689
635.9696	0.034288
636.1992	0.035027
636.4288	0.039100
636.6584	0.039986
636.8880	0.037412
637.1177	0.037813
637.3473	0.036842
637.5770	0.036504
637.8066	0.033233
638.0363	0.034478
638.2660	0.033782
638.4957	0.036863
638.7254	0.035512
638.9551	0.035576
639.1848	0.034900
639.4145	0.034710
639.6443	0.031093
639.8740	0.032725
640.1038	0.031406
640.3336	0.032475
640.5633	0.031713
640.7931	0.032583
641.0229	0.028390
641.2528	0.027832
641.4826	0.027222
641.7124	0.029479
641.9423	0.025742
642.1721	0.025739
642.4020	0.025201
642.6319	0.025755
642.8617	0.023584
643.0916	0.026596
643.3216	0.024214
643.5515	0.025722
643.7814	0.025220
644.0113	0.024937
644.2413	0.022261
644.4712	0.024682
644.7012	0.022196
644.9312	0.023986
645.1612	0.022373
645.3912	0.021398
645.6212	0.023906
645.8512	0.023155
646.0812	0.022587
646.3113	0.020941
646.5413	0.021166
646.7714	0.020100
647.0015	0.019511
647.2316	0.018807
647.4616	0.019542
647.6918	0.018579
647.9219	0.022182
648.1520	0.022715
648.3821	0.024321
648.6123	0.026255
648.8424	0.027796
649.0726	0.028021
649.3028	0.030467
649.5329	0.026952
649.7631	0.026004
649.9933	0.027013
650.2236	0.026605
650.4538	0.026645
650.6840	0.025904
650.9143	0.023340
651.1445	0.021989
651.3748	0.023835
651.6051	0.023966
651.8354	0.027383
652.0657	0.024607
652.2960	0.026750
652.5263	0.023565
652.7566	0.027458
652.9870	0.026881
653.2173	0.027678
653.4477	0.027141
653.6780	0.028504
653.9084	0.027797
654.1388	0.027287
654.3692	0.028915
654.5996	0.030544
654.8300	0.034032
655.0605	0.047620
655.2909	0.135505
655.5213	0.399210
655.7518	0.801232
655.9823	1.000000
656.2128	1.000000
656.4433	1.000000
656.6738	1.000000
656.9043	0.920947
657.1348	0.739136
657.3653	0.599957
657.5959	0.518837
657.8264	0.451258
658.0570	0.407462
658.2875	0.373510
658.5181	0.333510
658.7487	0.317160
658.9793	0.306537
659.2099	0.244494
659.4406	0.172016
659.6712	0.107744
659.9018	0.061759
660.1325	0.038159
660.3632	0.027264
660.5938	0.024676
660.8245	0.021919
661.0552	0.022001
661.2859	0.018669
661.5166	0.020017
661.7474	0.019391
661.9781	0.017921
662.2088	0.017364
662.4396	0.018600
662.6704	0.018674
662.9011	0.019698
663.1319	0.016788
663.3627	0.019203
663.5935	0.016257
663.8243	0.017383
664.0552	0.019154
664.2860	0.017659
664.5168	0.016695
664.7477	0.017979
664.9786	0.017170
665.2094	0.018625
665.4403	0.019634
665.6712	0.019743
665.9021	0.019052
666.1330	0.020799
666.3640	0.017312
666.5949	0.018436
666.8259	0.017759
667.0568	0.018252
667.2878	0.017930
667.5188	0.019096
667.7497	0.017871
667.9807	0.018902
668.2117	0.016971
668.4428	0.017932
668.6738	0.017510
668.9048	0.017278
669.1359	0.016455
669.3669	0.017763
669.5980	0.016602
669.8291	0.016328
670.0602	0.018586
670.2913	0.018354
670.5224	0.017679
670.7535	0.018776
670.9846	0.018734
671.2157	0.019578
671.4469	0.020802
671.6781	0.025466
671.9092	0.025298
672.1404	0.026543
672.3716	0.029012
672.6028	0.029160
672.8340	0.028421
673.0652	0.028653
673.2964	0.025129
673.5277	0.025720
673.7589	0.023841
673.9902	0.025129
674.2214	0.023778
674.4527	0.023504
674.6840	0.022301
674.9153	0.019979
675.1466	0.021013
675.3779	0.022406
675.6093	0.021393
675.8406	0.022681
676.0719	0.021224
676.3033	0.021056
676.5347	0.019536
676.7661	0.020169
676.9974	0.018481
677.2288	0.019663
677.4602	0.021520
677.6917	0.024052
677.9231	0.023862
678.1545	0.023799
678.3860	0.024221
678.6174	0.024791
678.8489	0.026100
679.0804	0.023103
679.3119	0.024960
679.5434	0.030510
679.7749	0.030257
680.0064	0.030848
680.2379	0.030257
680.4694	0.029244
680.7010	0.029160
680.9325	0.029181
681.1641	0.029160
681.3957	0.028569
681.6273	0.030384
681.8589	0.029286
682.0905	0.028780
682.3221	0.028126
682.5537	0.025445
682.7854	0.025994
683.0170	0.024686
683.2487	0.023504
683.4803	0.027640
683.7120	0.026479
683.9437	0.026796
684.1754	0.029877
684.4071	0.032114
684.6388	0.031186
684.8705	0.032684
685.1023	0.033338
685.3340	0.035407
685.5658	0.036694
685.7975	0.037475
686.0293	0.037559
686.2611	0.037412
686.4929	0.037053
686.7247	0.036610
686.9565	0.037053
687.1883	0.038615
687.4202	0.035850
687.6520	0.037834
687.8838	0.036314
688.1157	0.035301
688.3476	0.034035
688.5795	0.033550
688.8114	0.028506
689.0433	0.031101
689.2752	0.031988
689.5071	0.029434
689.7390	0.029962
689.9710	0.030911
690.2029	0.028337
690.4349	0.026606
690.6669	0.028780
690.8988	0.031819
691.1308	0.029455
691.3628	0.030616
691.5948	0.031608
691.8269	0.031038
692.0589	0.032853
692.2909	0.031735
692.5230	0.031650
692.7550	0.032811
692.9871	0.030996
693.2192	0.032347
693.4513	0.033465
693.6834	0.032853
693.9155	0.031460
694.1476	0.030574
694.3797	0.030088
694.6119	0.028991
694.8440	0.028864
695.0762	0.030679
695.3083	0.029835
695.5405	0.025255
695.7727	0.025192
696.0049	0.024770
696.2371	0.025466
696.4693	0.024728
696.7016	0.028674
696.9338	0.034162
697.1660	0.032705
697.3983	0.031228
697.6306	0.031334
697.8628	0.030384
698.0951	0.033170
698.3274	0.030215
698.5597	0.032325
698.7920	0.031692
699.0243	0.031777
699.2567	0.030532
699.4890	0.030278
699.7214	0.028906
699.9537	0.026986
700.1861	0.024854
700.4185	0.026374
700.6509	0.026458
700.8833	0.023926
701.1157	0.025466
701.3481	0.024749
701.5806	0.023018
701.8130	0.024348
702.0454	0.024432
702.2779	0.024200
702.5104	0.025340
702.7429	0.024242
702.9753	0.026332
703.2078	0.023440
703.4403	0.024897
703.6729	0.022005
703.9054	0.023124
704.1379	0.021541
704.3705	0.024074
704.6030	0.023736
704.8356	0.020655
705.0682	0.019874
705.3008	0.018650
705.5334	0.020697
705.7660	0.019916
705.9986	0.019831
706.2312	0.023060
706.4638	0.024749
706.6965	0.029476
706.9291	0.031523
707.1618	0.030954
707.3945	0.031460
707.6272	0.033634
707.8599	0.031861
708.0926	0.031397
708.3253	0.032726
708.5580	0.030257
708.7907	0.030489
709.0235	0.029033
709.2562	0.029033
709.4890	0.027978
709.7217	0.028611
709.9545	0.027851
710.1873	0.028168
710.4201	0.028801
710.6529	0.029033
710.8857	0.027450
711.1186	0.026374
711.3514	0.026078
711.5842	0.024791
711.8171	0.024538
712.0500	0.026057
712.2828	0.021414
712.5157	0.023630
712.7486	0.023314
712.9815	0.026078
713.2144	0.023736
713.4474	0.024939
713.6803	0.026121
713.9132	0.026332
714.1462	0.029666
714.3791	0.028231
714.6121	0.029603
714.8451	0.028210
715.0781	0.029118
715.3111	0.030342
715.5441	0.029096
715.7771	0.027704
716.0102	0.027218
716.2432	0.027471
716.4762	0.025593
716.7093	0.024601
716.9424	0.023926
717.1754	0.021288
717.4085	0.021963
717.6416	0.020971
717.8747	0.024074
718.1078	0.024496
718.3410	0.025952
718.5741	0.023905
718.8072	0.023082
719.0404	0.025192
719.2736	0.024116
719.5067	0.025741
719.7399	0.022913
719.9731	0.022596
720.2063	0.024453
720.4395	0.024622
720.6727	0.022786
720.9060	0.025108
721.1392	0.025720
721.3725	0.022955
721.6057	0.024538
721.8390	0.024643
722.0723	0.024812
722.3055	0.025382
722.5388	0.024939
722.7721	0.021034
723.0055	0.024854
723.2388	0.022786
723.4721	0.024686
723.7055	0.023715
723.9388	0.023778
724.1722	0.023145
724.4056	0.021625
724.6389	0.020401
724.8723	0.023546
725.1057	0.022659
725.3391	0.027176
725.5726	0.027640
725.8060	0.026226
726.0394	0.025783
726.2729	0.028294
726.5063	0.025340
726.7398	0.028231
726.9733	0.026247
727.2068	0.027007
727.4403	0.024833
727.6738	0.026543
727.9073	0.027767
728.1408	0.028421
728.3743	0.026290
728.6079	0.028906
728.8414	0.030890
729.0750	0.027809
729.3086	0.029835
729.5421	0.031967
729.7757	0.030954
730.0093	0.031861
730.2429	0.030236
730.4766	0.030764
730.7102	0.033550
730.9438	0.035470
731.1775	0.033929
731.4111	0.035343
731.6448	0.035681
731.8785	0.037918
732.1122	0.035787
732.3458	0.033486
732.5795	0.034035
732.8133	0.036314
733.0470	0.034478
733.2807	0.034246
733.5145	0.037180
733.7482	0.036905
733.9820	0.040240
734.2157	0.042202
734.4495	0.044925
734.6833	0.043258
734.9171	0.041780
735.1509	0.040176
735.3847	0.038129
735.6185	0.041063
735.8524	0.039501
736.0862	0.041907
736.3201	0.040662
736.5539	0.041126
736.7878	0.040472
737.0217	0.043194
737.2556	0.041949
737.4895	0.041337
737.7234	0.040725
737.9573	0.035069
738.1912	0.035069
738.4252	0.033170
738.6591	0.034668
738.8931	0.036589
739.1271	0.036631
739.3610	0.037855
739.5950	0.036990
739.8290	0.039248
740.0630	0.036673
740.2970	0.036568
740.5310	0.034183
740.7651	0.033106
740.9991	0.031186
741.2332	0.030384
741.4672	0.028463
741.7013	0.028463
741.9354	0.027598
742.1695	0.028970
742.4036	0.028379
742.6377	0.030700
742.8718	0.029856
743.1059	0.027725
743.3400	0.027197
743.5742	0.024833
743.8083	0.024116
744.0425	0.024559
744.2767	0.023229
744.5108	0.023060
744.7450	0.024749
744.9792	0.026205
745.2134	0.024052
745.4477	0.024116
745.6819	0.021541
745.9161	0.024875
746.1504	0.023609
746.3846	0.023060
746.6189	0.022807
746.8532	0.023778
747.0874	0.023356
747.3217	0.026902
747.5560	0.026226
747.7903	0.026564
748.0247	0.026311
748.2590	0.024390
748.4933	0.022659
748.7277	0.024812
748.9620	0.023799
749.1964	0.027324
749.4308	0.027134
749.6652	0.029856
749.8995	0.031059
750.1339	0.033360
750.3684	0.036251
750.6028	0.034014
750.8372	0.034056
751.0717	0.033233
751.3061	0.034541
751.5406	0.032790
751.7750	0.034647
752.0095	0.032811
752.2440	0.033423
752.4785	0.034014
752.7130	0.029708
752.9475	0.030131
753.1820	0.031249
753.4166	0.032621
753.6511	0.033338
753.8856	0.036863
754.1202	0.035006
754.3548	0.034162
754.5894	0.033465
754.8239	0.033824
755.0585	0.033887
755.2931	0.034056
755.5278	0.034563
755.7624	0.037475
755.9970	0.035744
756.2317	0.036842
756.4663	0.039881
756.7010	0.043004
756.9356	0.043933
757.1703	0.044503
757.4050	0.048576
757.6397	0.048238
757.8744	0.051700
758.1091	0.049505
758.3438	0.046782
758.5786	0.046255
758.8133	0.046212
759.0481	0.046972
759.2828	0.048365
759.5176	0.048998
759.7524	0.047648
759.9872	0.051299
760.2220	0.051383
760.4568	0.052544
760.6916	0.053135
760.9264	0.052206
761.1613	0.052248
761.3961	0.050602
761.6310	0.045811
761.8658	0.044271
762.1007	0.043701
762.3356	0.041084
762.5705	0.039754
762.8054	0.041738
763.0403	0.042582
763.2752	0.043427
763.5101	0.042582
763.7450	0.039986
763.9800	0.040535
764.2149	0.042730
764.4499	0.045347
764.6849	0.051868
764.9198	0.048428
765.1548	0.051299
765.3898	0.046402
765.6248	0.046571
765.8599	0.042878
766.0949	0.042920
766.3299	0.039058
766.5650	0.035322
766.8000	0.035259
767.0351	0.033317
767.2701	0.030616
767.5052	0.031587
767.7403	0.032642
767.9754	0.032009
768.2105	0.035998
768.4456	0.038615
768.6808	0.042118
768.9159	0.041084
769.1510	0.040535
769.3862	0.039649
769.6214	0.038193
769.8565	0.040134
770.0917	0.036335
770.3269	0.035449
770.5621	0.037222
770.7973	0.037644
771.0325	0.039374
771.2677	0.038425
771.5030	0.038171
771.7382	0.037770
771.9735	0.038087
772.2087	0.033043
772.4440	0.034140
772.6793	0.033866
772.9146	0.034900
773.1499	0.033423
773.3852	0.034246
773.6205	0.031608
773.8558	0.030553
774.0911	0.030954
774.3265	0.027661
774.5618	0.026100
774.7972	0.024770
775.0326	0.026247
775.2679	0.028062
775.5033	0.024538
775.7387	0.022385
775.9741	0.023461
776.2095	0.021288
776.4450	0.022448
776.6804	0.022638
776.9158	0.021182
777.1513	0.021731
777.3868	0.018164
777.6222	0.020929
777.8577	0.020443
778.0932	0.020612
778.3287	0.021921
778.5642	0.021773
778.7997	0.023272
779.0352	0.023947
779.2707	0.024686
779.5063	0.025319
779.7418	0.024327
779.9774	0.024031
780.2130	0.022512
780.4485	0.022491
780.6841	0.024559
780.9197	0.025424
781.1553	0.026501
781.3909	0.030131
781.6265	0.030384
781.8622	0.030806
782.0978	0.028611
782.3335	0.028484
782.5691	0.028801
782.8048	0.028632
783.0405	0.026965
783.2761	0.028316
783.5118	0.028674
783.7475	0.030489
783.9832	0.028168
784.2190	0.027218
784.4547	0.024791
784.6904	0.023124
784.9262	0.024074
785.1619	0.023567
785.3977	0.023630
785.6335	0.024052
785.8692	0.022976
786.1050	0.023229
786.3408	0.022913
786.5766	0.024897
786.8124	0.022406
787.0483	0.022997
787.2841	0.023103
787.5199	0.022364
787.7558	0.022533
787.9917	0.025234
788.2275	0.024960
788.4634	0.026311
788.6993	0.024960
788.9352	0.027218
789.1711	0.026184
789.4070	0.023715
789.6429	0.023250
789.8789	0.022069
790.1148	0.020655
790.3507	0.020232
790.5867	0.019726
790.8227	0.020486
791.0586	0.019367
791.2946	0.019684
791.5306	0.018586
791.7666	0.020866
792.0026	0.020718
792.2387	0.019853
792.4747	0.017172
792.7107	0.018650
792.9468	0.017932
793.1828	0.019156
793.4189	0.017172
793.6550	0.020676
793.8910	0.020127
794.1271	0.027492
794.3632	0.025677
794.5993	0.026458
794.8355	0.026395
795.0716	0.028738
795.3077	0.027514
795.5439	0.026564
795.7800	0.023694
796.0162	0.023715
796.2523	0.020254
796.4885	0.020106
796.7247	0.018249
796.9609	0.018481
797.1971	0.017531
797.4333	0.017531
797.6695	0.019029
797.9058	0.019684
798.1420	0.020148
798.3783	0.018945
798.6145	0.020591
798.8508	0.018396
799.0871	0.020380
799.3233	0.021013
799.5596	0.018270
799.7959	0.016096
800.0322	0.017805
800.2686	0.017362
800.5049	0.014597
800.7412	0.015315
800.9776	0.015231
801.2139	0.016011
801.4503	0.016286
801.6867	0.014766
801.9230	0.013521
802.1594	0.015125
802.3958	0.012740
802.6322	0.015442
802.8686	0.012846
803.1051	0.013669
803.3415	0.014661
803.5779	0.015062
803.8144	0.013416
804.0508	0.015800
804.2873	0.013542
804.5238	0.015083
804.7603	0.014091
804.9968	0.014851
805.2333	0.013795
805.4698	0.013584
805.7063	0.015020
805.9428	0.016729
806.1794	0.016581
806.4159	0.019663
806.6525	0.018734
806.8890	0.021056
807.1256	0.021013
807.3622	0.020908
807.5988	0.019705
807.8354	0.019663
808.0720	0.018882
808.3086	0.016982
808.5452	0.019578
808.7818	0.020106
809.0185	0.019114
809.2551	0.017932
809.4918	0.016982
809.7284	0.016602
809.9651	0.017109
810.2018	0.016497
810.4385	0.016539
810.6752	0.015315
810.9119	0.015357
811.1486	0.014513
811.3853	0.014070
811.6221	0.015969
811.8588	0.014175
812.0956	0.012529
812.3323	0.014640
812.5691	0.011495
812.8059	0.013331
813.0427	0.011453
813.2795	0.013057
813.5163	0.012255
813.7531	0.014513
813.9899	0.015716
814.2267	0.015336
814.4636	0.014724
814.7004	0.014028
814.9373	0.014809
815.1742	0.014091
815.4110	0.012234
815.6479	0.011854
815.8848	0.012571
816.1217	0.011432
816.3586	0.010693
816.5955	0.011558
816.8324	0.011305
817.0694	0.012107
817.3063	0.011980
817.5433	0.012487
817.7802	0.012804
818.0172	0.011326
818.2542	0.012297
818.4912	0.010651
818.7282	0.009786
818.9652	0.010967
819.2022	0.008730
819.4392	0.011010
819.6762	0.010651
819.9133	0.011390
820.1503	0.010841
820.3874	0.011221
820.6244	0.013859
820.8615	0.012930
821.0986	0.014555
821.3357	0.012339
821.5727	0.012993
821.8099	0.010672
822.0470	0.011157
822.2841	0.011031
822.5212	0.009912
822.7584	0.009617
822.9955	0.011305
823.2327	0.008372
823.4698	0.008878
823.7070	0.009237
823.9442	0.009891
824.1814	0.009764
824.4186	0.008308
824.6558	0.010588
824.8930	0.007337
825.1302	0.009575
825.3675	0.009469
825.6047	0.011938
825.8419	0.011263
826.0792	0.011242
826.3165	0.009764
826.5537	0.011432
826.7910	0.009659
827.0283	0.010756
827.2656	0.009828
827.5029	0.011685
827.7402	0.011706
827.9776	0.009258
828.2149	0.009701
828.4522	0.008498
828.6896	0.011178
828.9270	0.012466
829.1643	0.009722
829.4017	0.010355
829.6391	0.010609
829.8765	0.009743
830.1139	0.009068
830.3513	0.008372
830.5887	0.008498
830.8261	0.007548
831.0636	0.007907
831.3010	0.007612
831.5385	0.007190
831.7759	0.006113
832.0134	0.005037
832.2509	0.008139
832.4884	0.007802
832.7259	0.007422
832.9634	0.006641
833.2009	0.005818
833.4384	0.006831
833.6759	0.008836
833.9135	0.007337
834.1510	0.008794
834.3886	0.009068
834.6261	0.009005
834.8637	0.008794
835.1013	0.007211
835.3389	0.008308
835.5765	0.009258
835.8141	0.007949
836.0517	0.005818
836.2893	0.007169
836.5269	0.006894
836.7646	0.006198
837.0022	0.005776
837.2399	0.004678
837.4775	0.006156
837.7152	0.006261
837.9529	0.007612
838.1906	0.005269
838.4283	0.006324
838.6660	0.005860
838.9037	0.004362
839.1414	0.005417
839.3791	0.007422
839.6169	0.006641
839.8546	0.006831
840.0924	0.005712
840.3302	0.006472
840.5679	0.006535
840.8057	0.006324
841.0435	0.007337
841.2813	0.006261
841.5191	0.006324
841.7569	0.006324
841.9947	0.004404
842.2326	0.006472
842.4704	0.004488
842.7082	0.004805
842.9461	0.004341
843.1840	0.004467
843.4218	0.003813
843.6597	0.003560
843.8976	0.004277
844.1355	0.004319
844.3734	0.003918
844.6113	0.004129
844.8492	0.003834
845.0872	0.004193
845.3251	0.002969
845.5631	0.007232
845.8010	0.004953
846.0390	0.004889
846.2770	0.003349
846.5149	0.003011
846.7529	0.002314
846.9909	0.003454
847.2289	0.004087
847.4669	0.004467
847.7050	0.004383
847.9430	0.003496
848.1810	0.004404
848.4191	0.003855
848.6571	0.003686
848.8952	0.003644
849.1333	0.003665
849.3713	0.003454
849.6094	0.003729
849.8475	0.005143
850.0856	0.002758
850.3237	0.003834
850.5619	0.003454
850.8000	0.005290
851.0381	0.002905
851.2763	0.003918
851.5144	0.002589
851.7526	0.004277
851.9908	0.004530
852.2289	0.005987
852.4671	0.005079
852.7053	0.006345
852.9435	0.008688
853.1817	0.010862
853.4200	0.010292
853.6582	0.011685
853.8964	0.010545
854.1347	0.010355
854.3729	0.010187
854.6112	0.013331
854.8495	0.011516
855.0877	0.009997
855.3260	0.010545
855.5643	0.010609
855.8026	0.008962
856.0409	0.008751
856.2792	0.011474
856.5176	0.010756
856.7559	0.009976
856.9942	0.009448
857.2326	0.009342
857.4710	0.008161
857.7093	0.007823
857.9477	0.009511
858.1861	0.008561
858.4245	0.007042
858.6629	0.006345
858.9013	0.007802
859.1397	0.007717
859.3781	0.007971
859.6166	0.008139
859.8550	0.006662
860.0935	0.006683
860.3319	0.007570
860.5704	0.005332
860.8089	0.005185
861.0473	0.006071
861.2858	0.005438
861.5243	0.004720
861.7628	0.006198
862.0013	0.005480
862.2399	0.006113
862.4784	0.003539
862.7169	0.003349
862.9555	0.004467
863.1940	0.004763
863.4326	0.004742
863.6712	0.005332
863.9098	0.005987
864.1483	0.004530
864.3869	0.005290
864.6255	0.004742
864.8642	0.004045
865.1028	0.005227
865.3414	0.004214
865.5800	0.003961
865.8187	0.002673
866.0573	0.004193
866.2960	0.005100
866.5347	0.003222
866.7733	0.004319
867.0120	0.004615
867.2507	0.004763
867.4894	0.005607
867.7281	0.003391
867.9669	0.004298
868.2056	0.005269
868.4443	0.004699
868.6831	0.005164
868.9218	0.004467
869.1606	0.003496
869.3993	0.004129
869.6381	0.003918
869.8769	0.004763
870.1157	0.003412
870.3545	0.003138
870.5933	0.005100
870.8321	0.004214
871.0709	0.003834
871.3097	0.004995
871.5486	0.004277
871.7874	0.004066
872.0263	0.004045
872.2651	0.005311
872.5040	0.001766
872.7429	0.002779
872.9818	0.001871
873.2207	0.003306
873.4596	0.004404
873.6985	0.002758
873.9374	0.004573
874.1763	0.004594
874.4153	0.002927
874.6542	0.004974
874.8932	0.005016
875.1321	0.003686
875.3711	0.003517
875.6101	0.004678
875.8491	0.003665
876.0880	0.004341
876.3270	0.005755
876.5661	0.002842
876.8051	0.004931
877.0441	0.003517
877.2831	0.004404
877.5222	0.004615
877.7612	0.004995
878.0003	0.004868
878.2393	0.005248
878.4784	0.004446
878.7175	0.004974
878.9566	0.005586
879.1957	0.006725
879.4348	0.007865
879.6739	0.005628
879.9130	0.005923
880.1521	0.008013
880.3913	0.006029
880.6304	0.007063
880.8696	0.004995
881.1087	0.007401
881.3479	0.005311
881.5871	0.005860
881.8262	0.005354
882.0654	0.004953
882.3046	0.005079
882.5438	0.004341
882.7831	0.003876
883.0223	0.005100
883.2615	0.003982
883.5007	0.005860
883.7400	0.005121
883.9792	0.004066
884.2185	0.006768
884.4578	0.005881
884.6971	0.003496
884.9363	0.005396
885.1756	0.004763
885.4149	0.006198
885.6542	0.004530
885.8936	0.005058
886.1329	0.003665
886.3722	0.005079
886.6116	0.005691
886.8509	0.006029
887.0903	0.003918
887.3296	0.003982
887.5690	0.003771
887.8084	0.004425
888.0478	0.006050
888.2872	0.005966
888.5266	0.003222
888.7660	0.003834
889.0054	0.003665
889.2448	0.004172
889.4843	0.003180
889.7237	0.004108
889.9632	0.003918
890.2026	0.003855
890.4421	0.003011
890.6816	0.003053
890.9211	0.003011
891.1606	0.003032
891.4001	0.004003
891.6396	0.002673
891.8791	0.005121
892.1186	0.005459
892.3581	0.003771
892.5977	0.003665
892.8372	0.004256
893.0768	0.003623
893.3163	0.003222
893.5559	0.004509
893.7955	0.004235
894.0351	0.001428
894.2747	0.003159
894.5143	0.003517
894.7539	0.003623
894.9935	0.004425
895.2331	0.003391
895.4727	0.004341
895.7124	0.003729
895.9520	0.004003
896.1917	0.002948
896.4314	0.002293
896.6710	0.002884
896.9107	0.004066
897.1504	0.002568
897.3901	0.003707
897.6298	0.003855
897.8695	0.004024
898.1092	0.002483
898.3489	0.003349
898.5887	0.003285
898.8284	0.003074
899.0682	0.002462
899.3079	0.004235
899.5477	0.001597
899.7875	0.003412
900.0272	0.001913
900.2670	0.002610
900.5068	0.002927
900.7466	0.004087
900.9864	0.003897
901.2263	0.004573
901.4661	0.004045
901.7059	0.003285
901.9458	0.004172
902.1856	0.003560
902.4255	0.004446
902.6654	0.002948
902.9052	0.003243
903.1451	0.003897
903.3850	0.002504
903.6249	0.003159
903.8648	0.003159
904.1047	0.003264
904.3446	0.002167
904.5846	0.004763
904.8245	0.002990
905.0644	0.004446
905.3044	0.004974
905.5444	0.004509
905.7843	0.002884
906.0243	0.004594
906.2643	0.004087
906.5043	0.004003
906.7443	0.002631
906.9843	0.002969
907.2243	0.002589
907.4643	0.002990
907.7043	0.003834
907.9444	0.002863
908.1844	0.005248
908.4245	0.002758
908.6645	0.004066
908.9046	0.002863
909.1447	0.003243
909.3847	0.002061
909.6248	0.003897
909.8649	0.002209
910.1050	0.003328
910.3452	0.003961
910.5853	0.001766
910.8254	0.003623
911.0655	0.003011
911.3057	0.004699
911.5458	0.002821
911.7860	0.003581
912.0262	0.001871
912.2663	0.003581
912.5065	0.003897
912.7467	0.002146
912.9869	0.002652
913.2271	0.002652
913.4673	0.003328
913.7075	0.003285
913.9478	0.002441
914.1880	0.003496
914.4283	0.001069
914.6685	0.003834
914.9088	0.002927
915.1490	0.002526
915.3893	0.002230
915.6296	0.003032
915.8699	0.002779
916.1102	0.003222
916.3505	0.002589
916.5908	0.002293
916.8311	0.003729
917.0714	0.002779
917.3118	0.002146
917.5521	0.004720
917.7925	0.003560
918.0328	0.004404
918.2732	0.002167
918.5136	0.003306
918.7539	0.002504
918.9943	0.003940
919.2347	0.003306
919.4751	0.001301
919.7155	0.001576
919.9560	0.002061
920.1964	0.002399
920.4368	0.003032
920.6773	0.002694
920.9177	0.002504
921.1582	0.002103
921.3986	0.001935
921.6391	0.001365
921.8796	0.001513
922.1201	0.001133
922.3606	0.003222
922.6011	0.004256
922.8416	0.003032
923.0821	0.002652
923.3226	0.002399
923.5631	0.001766
923.8037	0.003116
924.0442	0.001597
924.2848	0.003032
924.5254	0.001491
924.7659	0.001956
925.0065	0.002019
925.2471	0.003433
925.4877	0.002568
925.7283	0.002589
925.9689	0.002504
926.2095	0.002737
926.4501	0.000922
926.6908	0.003053
926.9314	0.001344
927.1720	0.001808
927.4127	0.000900
927.6533	0.002103
927.8940	0.001871
928.1347	0.001428
928.3754	0.000816
928.6161	0.003349
928.8568	0.001724
929.0975	0.002167
929.3382	0.000689
929.5789	0.001491
929.8196	0.001386
930.0604	0.002462
930.3011	0.001428
930.5419	0.002462
930.7826	0.002441
931.0234	0.002251
931.2642	0.001154
931.5049	0.001301
931.7457	0.001829
931.9865	0.000605
932.2273	0.000922
932.4681	0.002504
932.7089	0.001428
932.9498	0.002948
933.1906	0.001407
933.4314	0.000943
933.6723	0.001660
933.9131	0.000922
934.1540	0.000837
934.3949	0.002441
934.6358	0.001154
934.8766	0.001892
935.1175	0.000373
935.3584	0.002483
935.5993	-0.000492
935.8403	0.001681
936.0812	0.000837
936.3221	0.002969
936.5630	-0.000324
936.8040	0.000774
937.0449	0.000246
937.2859	0.002251
937.5269	-0.000007
937.7678	0.002399
938.0088	0.001344
938.2498	0.000542
938.4908	0.001175
938.7318	0.001850
938.9728	0.001787
939.2138	0.001301
939.4549	0.000584
939.6959	-0.000345
939.9369	0.000584
940.1780	0.001956
940.4190	0.001513
940.6601	-0.000598
940.9012	0.001850
941.1422	0.001027
941.3833	0.001386
941.6244	-0.000598
941.8655	0.002357
942.1066	0.000689
942.3477	0.000879
942.5889	0.001323
942.8300	0.001365
943.0711	0.000499
943.3123	0.000711
943.5534	0.001090
943.7946	0.000626
944.0357	-0.000408
944.2769	0.001090
944.5181	0.000436
944.7593	-0.000091
945.0005	0.001449
945.2417	-0.000028
945.4829	-0.000007
945.7241	0.001850
945.9653	0.000204
946.2066	0.001913
946.4478	0.000584
946.6891	-0.000936
946.9303	0.000267
947.1716	0.002357
947.4128	-0.000155
947.6541	-0.000872
947.8954	0.001323
948.1367	-0.000535
948.3780	0.000584
948.6193	0.000711
948.8606	-0.001062
949.1019	0.000415
949.3433	0.000753
949.5846	0.001027
949.8259	-0.000260
950.0673	0.001196
950.3086	-0.000471
950.5500	0.001175
950.7914	0.000753
951.0327	0.001470
951.2741	0.000879
951.5155	0.000204
951.7569	0.000373
951.9983	0.001301
952.2398	0.000436
952.4812	0.001702
952.7226	0.001449
952.9640	0.000647
953.2055	0.001491
953.4469	0.001702
953.6884	0.000668
953.9299	0.001660
954.1713	0.000795
954.4128	0.000732
954.6543	0.000457
954.8958	0.000478
955.1373	-0.000619
955.3788	-0.000070
955.6203	0.000732
955.8618	0.000837
956.1034	0.000795
956.3449	0.000141
956.5865	-0.000408
956.8280	-0.000049
957.0696	-0.000999
957.3111	0.000014
957.5527	0.000120
957.7943	0.000352
958.0359	-0.000113
958.2775	0.001365
958.5191	0.000373
958.7607	0.000499
959.0023	0.000478
959.2439	0.001724
959.4856	0.000711
959.7272	0.000879
959.9688	0.000605
960.2105	0.001449
960.4522	0.000964
960.6938	0.001027
960.9355	0.000647
961.1772	0.000394
961.4189	0.000457
961.6606	-0.001126
961.9023	0.000879
962.1440	-0.000324
962.3857	-0.000281
962.6274	0.001491
962.8692	0.000014
963.1109	0.001238
963.3527	0.001069
963.5944	0.000964
963.8362	0.000795
964.0779	0.000774
964.3197	-0.001653
964.5615	-0.000577
964.8033	0.002103
965.0451	0.000626
965.2869	-0.001527
965.5287	0.001534
965.7705	-0.000640
966.0123	0.001238
966.2542	0.000331
966.4960	0.000394
966.7379	-0.000049
966.9797	0.001069
967.2216	-0.000113
967.4634	0.000626
967.7053	0.000352
967.9472	0.000753
968.1891	0.000014
968.4310	0.001196
968.6729	0.001154
968.9148	0.000879
969.1567	0.000077
969.3987	-0.000155
969.6406	-0.000239
969.8825	0.000457
970.1245	-0.000303
970.3664	0.001280
970.6084	0.000225
970.8504	-0.000218
971.0923	0.000056
971.3343	-0.000303
971.5763	0.000141
971.8183	-0.000091
972.0603	0.000225
972.3023	0.001513
972.5443	-0.000556
972.7864	-0.000492
973.0284	-0.000429
973.2704	0.000647
973.5125	-0.000535
973.7545	0.001344
973.9966	0.000985
974.2387	0.000943
974.4807	0.000647
974.7228	0.000246
974.9649	-0.000281
975.2070	-0.000387
975.4491	-0.000091
975.6912	0.001597
975.9333	-0.000134
976.1755	0.001175
976.4176	-0.000640
976.6597	-0.000429
976.9019	-0.000281
977.1440	0.000521
977.3862	-0.000176
977.6283	0.000647
977.8705	-0.000281
978.1127	0.000098
978.3549	-0.000682
978.5971	0.000436
978.8393	0.000499
979.0815	0.001154
979.3237	0.002040
979.5659	0.000816
979.8082	0.000605
980.0504	0.000753
980.2926	-0.000682
980.5349	0.001238
980.7771	-0.001400
981.0194	-0.001231
981.2617	0.001006
981.5040	0.000394
981.7462	-0.000450
981.9885	-0.000788
982.2308	0.000499
982.4731	0.001301
982.7155	0.000120
982.9578	-0.000091
983.2001	-0.000408
983.4424	-0.000197
983.6848	0.000521
983.9271	0.000310
984.1695	-0.000239
984.4118	-0.000366
984.6542	0.001112
984.8966	0.000331
985.1390	0.000141
985.3814	0.000183
985.6238	0.000352
985.8662	0.001681
986.1086	-0.000408
986.3510	0.000141
986.5934	-0.000725
986.8358	-0.000028
987.0783	0.000499
987.3207	0.001344
987.5632	-0.000535
987.8056	-0.000007
988.0481	-0.000303
988.2906	0.000753
988.5331	-0.000598
988.7756	-0.000514
989.0180	-0.000007
989.2605	-0.000725
989.5031	-0.000007
989.7456	0.000183
989.9881	0.000499
990.2306	0.000056
990.4732	0.000394
990.7157	-0.000303
990.9582	-0.000851
991.2008	-0.000978
991.4434	0.001217
991.6859	-0.000281
991.9285	0.001956
992.1711	0.000014
992.4137	0.000457
992.6563	0.000120
992.8989	0.001238
993.1415	-0.000429
993.3841	-0.000197
993.6267	0.000415
993.8694	0.000098
994.1120	-0.000366
994.3547	0.000478
994.5973	0.000732
994.8400	0.000711
995.0826	0.000605
995.3253	-0.001041
995.5680	-0.000387
995.8107	-0.000197
996.0534	0.001555
996.2961	-0.000703
996.5388	-0.000345
996.7815	-0.000893
997.0242	-0.000324
997.2670	0.000352
997.5097	0.000521
997.7524	-0.000598
997.9952	-0.000661
998.2379	-0.000851
998.4807	0.000352
998.7235	-0.000176
998.9662	0.000098
999.2090	-0.001463
999.4518	-0.001316
999.6946	0.000478
999.9374	-0.000091
1000.1802	0.000373
1000.4230	0.000204
1000.6659	0.000098
1000.9087	-0.001780
1001.1515	0.001323
1001.3944	-0.000746
1001.6372	0.001259
1001.8801	0.000478
1002.1230	-0.000260
1002.3658	-0.000007
1002.6087	-0.000091
1002.8516	0.000542
1003.0945	0.000288
1003.3374	-0.000028
1003.5803	0.000457
1003.8232	0.000352
1004.0661	-0.000471
1004.3091	0.000964
1004.5520	0.001491
1004.7949	-0.000028
1005.0379	0.000035
1005.2808	-0.000429
1005.5238	0.000732
1005.7667	-0.000260
1006.0097	0.001048
1006.2527	-0.000640
1006.4957	-0.000007
1006.7387	0.000943
1006.9817	0.000943
1007.2247	-0.000535
1007.4677	0.000035
1007.7107	-0.000767
1007.9538	0.000183
1008.1968	-0.001695
1008.4398	0.000943
1008.6829	0.000310
1008.9259	0.000689
1009.1690	0.000373
1009.4121	0.000246
1009.6551	-0.001379
1009.8982	-0.000366
1010.1413	-0.000345
1010.3844	0.001280
1010.6275	-0.001020
1010.8706	0.000457
1011.1137	-0.000049
1011.3568	0.000373
1011.6000	-0.000535
1011.8431	-0.000260
1012.0863	0.000077
1012.3294	-0.000978
1012.5726	0.000795
1012.8157	0.000436
1013.0589	-0.000788
1013.3021	0.000943
1013.5452	0.000499
1013.7884	0.001133
1014.0316	-0.000492
1014.2748	0.000077
1014.5180	-0.000725
1014.7613	0.000183
1015.0045	-0.000682
1015.2477	-0.000872
1015.4909	0.000879
1015.7342	0.001344
1015.9774	0.000816
1016.2207	-0.000091
1016.4640	-0.000830
1016.7072	0.000436
1016.9505	0.000499
1017.1938	0.000542
1017.4371	-0.000514
1017.6804	-0.000303
1017.9237	-0.001294
1018.1670	-0.000809
1018.4103	0.000288
1018.6536	0.000816
1018.8969	0.000204
1019.1403	-0.000028
1019.3836	-0.000028
1019.6270	0.000542
1019.8703	-0.000091
1020.1137	0.000331
1020.3571	-0.001611
1020.6004	0.001618
1020.8438	-0.000155
1021.0872	-0.001484
1021.3306	0.000732
1021.5740	-0.000387
1021.8174	-0.001759
1022.0608	-0.001147
1022.3042	-0.000471
1022.5477	-0.000429
1022.7911	-0.001949
1023.0345	0.000267
