# Wavelength (nm)	Intensity (a.u.)
197.7802	0.001615
197.9842	-0.000177
198.1882	0.002268
198.3922	0.001615
198.5963	0.000202
198.8003	0.001868
199.0044	0.001298
199.2085	0.000982
199.4126	0.000771
199.6168	0.001003
199.8209	0.001024
200.0251	0.000371
200.2292	0.001678
200.4334	0.000202
200.6376	-0.000009
200.8418	0.001572
201.0461	0.001446
201.2503	0.000265
201.4546	0.001130
201.6589	0.000940
201.8631	0.002226
202.0674	0.000476
202.2718	0.001340
202.4761	0.001214
202.6805	0.002226
202.8848	0.000097
203.0892	0.000012
203.2936	0.001024
203.4980	0.001045
203.7024	-0.000641
203.9069	0.001340
204.1113	-0.000494
204.3158	0.000497
204.5203	0.001214
204.7248	0.001298
204.9293	0.001024
205.1338	0.000476
205.3384	0.000518
205.5430	0.000687
205.7475	-0.000325
205.9521	0.000813
206.1567	0.000286
206.3614	0.001467
206.5660	0.000476
206.7706	0.000624
206.9753	-0.000009
207.1800	0.001657
207.3847	-0.000009
207.5894	0.001446
207.7941	0.000076
207.9989	0.001636
208.2036	-0.000852
208.4084	0.000645
208.6132	-0.000009
208.8180	0.001256
209.0228	0.000497
209.2276	0.000413
209.4325	0.000476
209.6373	-0.000093
209.8422	0.000982
210.0471	0.000835
210.2520	-0.000789
210.4569	0.001467
210.6618	0.000286
210.8668	0.002627
211.0718	0.001551
211.2767	0.000497
211.4817	-0.000536
211.6867	0.000286
211.8918	0.000687
212.0968	0.000708
212.3018	0.000856
212.5069	0.000624
212.7120	0.000434
212.9171	0.001720
213.1222	0.000012
213.3273	0.001889
213.5325	0.001151
213.7376	0.000076
213.9428	0.000792
214.1480	0.001045
214.3532	0.001446
214.5584	0.000729
214.7636	0.000054
214.9689	0.000687
215.1741	-0.000662
215.3794	0.000877
215.5847	-0.000683
215.7900	0.002078
215.9953	-0.000093
216.2007	-0.000367
216.4060	0.002057
216.6114	0.001172
216.8168	0.000012
217.0222	0.002437
217.2276	-0.000156
217.4330	0.000940
217.6384	0.001404
217.8439	0.000624
218.0494	0.000371
218.2548	0.000476
218.4603	0.001256
218.6659	0.000265
218.8714	0.000244
219.0769	0.000666
219.2825	0.000750
219.4881	0.001172
219.6936	-0.000072
219.8992	0.000624
220.1049	0.001151
220.3105	0.001383
220.5161	0.001636
220.7218	0.002479
220.9275	0.000792
221.1332	-0.000156
221.3389	-0.001253
221.5446	0.001256
221.7503	0.001172
221.9561	0.002078
222.1618	-0.000304
222.3676	0.000223
222.5734	-0.000262
222.7792	0.000666
222.9850	-0.000051
223.1909	0.000497
223.3967	-0.000599
223.6026	0.000940
223.8085	0.000307
224.0144	0.000898
224.2203	0.000982
224.4262	0.001404
224.6322	-0.000494
224.8381	0.001931
225.0441	0.000139
225.2501	0.000012
225.4561	0.000160
225.6621	0.001298
225.8681	0.000539
226.0742	0.000898
226.2802	0.000771
226.4863	0.000856
226.6924	0.000202
226.8985	0.001130
227.1046	0.001109
227.3107	0.000792
227.5169	0.000624
227.7230	0.001846
227.9292	0.001193
228.1354	-0.000515
228.3416	0.001298
228.5478	-0.000283
228.7541	0.000539
228.9603	-0.000114
229.1666	0.000518
229.3729	0.001319
229.5791	0.000265
229.7855	0.001003
229.9918	0.000097
230.1981	0.000687
230.4045	-0.000325
230.6108	-0.001084
230.8172	0.001045
231.0236	0.000329
231.2300	0.000645
231.4364	0.002922
231.6429	0.001446
231.8493	0.001467
232.0558	0.001868
232.2623	0.001446
232.4688	0.000371
232.6753	0.000645
232.8818	-0.000135
233.0884	0.001804
233.2949	0.000940
233.5015	0.001593
233.7081	0.000476
233.9147	0.000919
234.1213	-0.000768
234.3279	0.001256
234.5346	0.000265
234.7413	0.000497
234.9479	0.000582
235.1546	0.002901
235.3613	0.000687
235.5680	0.001151
235.7748	0.000054
235.9815	0.000160
236.1883	0.001362
236.3951	0.000645
236.6018	0.000771
236.8087	0.000455
237.0155	0.000982
237.2223	0.001846
237.4292	0.000244
237.6360	0.001952
237.8429	0.002184
238.0498	0.000856
238.2567	0.001804
238.4636	0.001973
238.6706	0.000455
238.8775	0.001425
239.0845	0.001319
239.2915	0.001404
239.4985	0.000961
239.7055	0.000181
239.9125	-0.000199
240.1195	0.002015
240.3266	0.000076
240.5337	0.000012
240.7407	0.000666
240.9478	0.001783
241.1549	0.000244
241.3621	0.001003
241.5692	0.000329
241.7764	0.001193
241.9835	0.000771
242.1907	0.000223
242.3979	0.000835
242.6051	0.000708
242.8124	-0.000388
243.0196	0.002352
243.2269	0.000771
243.4341	0.001488
243.6414	0.002099
243.8487	0.001973
244.0560	-0.000936
244.2634	0.000476
244.4707	-0.000388
244.6781	0.001172
244.8854	0.000582
245.0928	0.000750
245.3002	0.002057
245.5076	0.000687
245.7151	0.001003
245.9225	0.000771
246.1300	0.000645
246.3375	0.000582
246.5449	-0.000768
246.7524	0.001699
246.9600	-0.000093
247.1675	0.001720
247.3750	0.001467
247.5826	0.000771
247.7902	0.000329
247.9978	0.000371
248.2054	-0.000304
248.4130	0.000771
248.6206	0.000666
248.8283	0.000813
249.0359	0.001130
249.2436	0.000856
249.4513	0.001298
249.6590	0.001066
249.8667	0.002036
250.0745	-0.000241
250.2822	-0.000979
250.4900	0.001678
250.6978	0.000160
250.9056	-0.000199
251.1134	0.000371
251.3212	0.000202
251.5290	0.001846
251.7369	0.000054
251.9447	-0.000220
252.1526	-0.000367
252.3605	0.000687
252.5684	0.000413
252.7763	0.000961
252.9843	0.001699
253.1922	0.000476
253.4002	0.000729
253.6082	0.000350
253.8162	-0.000220
254.0242	0.000033
254.2322	0.001193
254.4402	0.001446
254.6483	0.002247
254.8564	0.002542
255.0644	-0.000409
255.2725	-0.000051
255.4806	0.000223
255.6888	0.001340
255.8969	0.001636
256.1051	0.001636
256.3132	0.001024
256.5214	0.001362
256.7296	0.001467
256.9378	0.000940
257.1460	0.000560
257.3543	0.001298
257.5625	0.000244
257.7708	-0.000241
257.9791	0.002205
258.1874	0.000539
258.3957	0.001383
258.6040	0.000708
258.8124	0.000497
259.0207	0.001193
259.2291	0.001636
259.4375	0.000708
259.6459	0.000877
259.8543	0.001003
260.0627	-0.000009
260.2711	0.001446
260.4796	0.000329
260.6881	0.000792
260.8965	0.001277
261.1050	0.001277
261.3135	0.001193
261.5221	0.000413
261.7306	0.002121
261.9392	-0.000641
262.1477	0.001362
262.3563	0.000856
262.5649	0.000392
262.7735	0.001277
262.9822	0.000877
263.1908	0.001551
263.3995	0.001699
263.6081	0.001762
263.8168	0.001214
264.0255	0.000898
264.2342	0.001868
264.4429	0.000582
264.6517	0.001425
264.8604	0.000371
265.0692	0.001699
265.2780	0.000582
265.4868	-0.000072
265.6956	0.001130
265.9044	0.001467
266.1133	0.001383
266.3221	0.001003
266.5310	0.001404
266.7399	0.001088
266.9488	-0.000325
267.1577	0.002479
267.3666	-0.000367
267.5755	0.001973
267.7845	0.001298
267.9935	0.001467
268.2024	-0.000093
268.4114	0.000392
268.6205	0.001151
268.8295	0.001467
269.0385	0.000497
269.2476	0.001678
269.4566	0.001298
269.6657	0.001130
269.8748	0.001425
270.0839	0.000033
270.2931	0.000329
270.5022	0.001151
270.7114	0.001045
270.9205	0.000497
271.1297	0.001298
271.3389	0.000813
271.5481	-0.000156
271.7573	0.000898
271.9666	0.001045
272.1758	0.000181
272.3851	0.000518
272.5944	0.001214
272.8037	0.000771
273.0130	0.001467
273.2223	0.000603
273.4316	0.000202
273.6410	-0.000093
273.8504	-0.000388
274.0597	0.001572
274.2691	0.001720
274.4785	0.000076
274.6880	0.001530
274.8974	0.000455
275.1069	0.000497
275.3163	0.000455
275.5258	0.000729
275.7353	-0.000852
275.9448	0.000518
276.1543	0.001362
276.3639	0.000181
276.5734	0.000666
276.7830	0.002057
276.9926	0.000371
277.2022	0.001446
277.4118	0.000371
277.6214	0.001319
277.8310	0.000940
278.0407	0.000476
278.2503	0.001952
278.4600	0.000181
278.6697	0.000160
278.8794	0.000455
279.0891	0.000835
279.2989	0.002268
279.5086	0.000624
279.7184	0.000771
279.9281	0.001572
280.1379	0.001235
280.3477	0.000139
280.5576	0.000097
280.7674	0.001467
280.9772	0.002142
281.1871	0.000813
281.3970	0.000940
281.6069	0.000160
281.8168	0.000139
282.0267	0.001425
282.2366	0.001593
282.4466	-0.000051
282.6565	0.002121
282.8665	0.001362
283.0765	0.001404
283.2865	0.000877
283.4965	0.001467
283.7065	0.001088
283.9166	0.001003
284.1266	-0.001147
284.3367	0.000202
284.5468	-0.000093
284.7569	-0.000030
284.9670	0.001277
285.1771	0.000666
285.3873	0.000518
285.5974	0.001551
285.8076	0.000961
286.0178	0.000813
286.2280	0.000371
286.4382	0.000687
286.6484	0.000329
286.8587	0.001045
287.0689	-0.000346
287.2792	0.001467
287.4895	0.001678
287.6998	0.000476
287.9101	0.000054
288.1204	0.001636
288.3308	0.000645
288.5411	0.001024
288.7515	0.000392
288.9619	-0.001042
289.1723	0.001130
289.3827	0.000265
289.5931	0.000413
289.8035	0.000856
290.0140	0.001593
290.2245	0.001488
290.4349	0.000813
290.6454	0.000265
290.8559	0.000371
291.0665	0.002015
291.2770	0.001109
291.4875	0.001404
291.6981	0.001509
291.9087	0.001045
292.1193	0.001024
292.3299	0.001868
292.5405	0.001193
292.7511	0.001298
292.9618	0.000560
293.1724	0.000856
293.3831	0.000771
293.5938	0.001066
293.8045	-0.000430
294.0152	0.002310
294.2260	0.000097
294.4367	0.001130
294.6475	0.000835
294.8582	0.000624
295.0690	0.000181
295.2798	0.002205
295.4906	-0.000599
295.7015	0.001024
295.9123	0.000708
296.1232	0.000645
296.3340	-0.000536
296.5449	0.000750
296.7558	0.000729
296.9667	0.002395
297.1777	0.000413
297.3886	0.000518
297.5995	0.001551
297.8105	0.000750
298.0215	0.000919
298.2325	0.001088
298.4435	0.000097
298.6545	0.001762
298.8656	0.000582
299.0766	0.001362
299.2877	-0.000072
299.4988	0.002521
299.7099	0.000560
299.9210	0.001130
300.1321	0.001319
300.3432	0.001045
300.5544	0.000624
300.7655	0.002542
300.9767	0.000181
301.1879	0.000624
301.3991	0.001467
301.6103	0.002163
301.8215	0.001404
302.0328	0.000392
302.2441	0.001003
302.4553	0.001256
302.6666	0.000244
302.8779	0.001615
303.0892	0.000687
303.3006	0.001425
303.5119	0.000434
303.7233	0.001340
303.9346	-0.000557
304.1460	0.000750
304.3574	0.000898
304.5688	0.000329
304.7803	0.000202
304.9917	0.000539
305.2031	0.001425
305.4146	-0.000009
305.6261	0.000265
305.8376	0.001952
306.0491	0.001088
306.2606	0.000033
306.4722	0.001256
306.6837	0.001551
306.8953	-0.001126
307.1069	0.000898
307.3184	0.001636
307.5301	0.001003
307.7417	-0.000072
307.9533	0.000012
308.1650	0.000455
308.3766	0.001088
308.5883	0.000413
308.8000	0.001256
309.0117	0.000687
309.2234	0.000771
309.4351	0.000898
309.6469	0.000856
309.8586	-0.000409
310.0704	0.001973
310.2822	0.000181
310.4940	0.000856
310.7058	0.001910
310.9176	0.001741
311.1295	0.001214
311.3413	0.002352
311.5532	0.001362
311.7651	0.000624
311.9770	0.000413
312.1889	0.001383
312.4008	-0.000220
312.6127	0.000139
312.8247	-0.000494
313.0366	0.000940
313.2486	0.000835
313.4606	0.001045
313.6726	0.000771
313.8846	0.001530
314.0967	0.000919
314.3087	0.000982
314.5208	0.000898
314.7328	0.001319
314.9449	0.000244
315.1570	0.001172
315.3692	0.000455
315.5813	0.001319
315.7934	-0.000346
316.0056	0.000982
316.2177	0.001024
316.4299	0.000181
316.6421	0.001467
316.8543	0.000877
317.0666	0.001615
317.2788	0.000856
317.4911	0.000118
317.7033	0.001593
317.9156	-0.000093
318.1279	0.001425
318.3402	-0.000557
318.5525	0.000518
318.7649	0.001868
318.9772	0.002057
319.1896	0.001003
319.4019	-0.000114
319.6143	0.001340
319.8267	0.002584
320.0392	0.001362
320.2516	0.000097
320.4640	-0.000599
320.6765	0.001467
320.8890	0.000835
321.1014	0.001846
321.3139	0.000265
321.5265	0.000434
321.7390	0.000202
321.9515	0.000097
322.1641	0.000940
322.3766	-0.000557
322.5892	0.002627
322.8018	0.001088
323.0144	0.000729
323.2270	0.000792
323.4397	-0.000072
323.6523	-0.000557
323.8650	0.002289
324.0777	0.002395
324.2904	0.001340
324.5031	0.000539
324.7158	0.000497
324.9285	-0.000304
325.1412	0.000307
325.3540	0.000202
325.5668	0.001973
325.7796	0.002015
325.9924	0.001193
326.2052	0.001319
326.4180	0.000813
326.6308	0.000708
326.8437	0.000687
327.0566	0.002395
327.2694	0.000687
327.4823	0.001593
327.6952	0.000666
327.9082	0.000919
328.1211	0.000455
328.3340	0.000877
328.5470	0.001088
328.7600	-0.000156
328.9730	0.000160
329.1860	0.001783
329.3990	0.001088
329.6120	0.001509
329.8251	-0.000262
330.0381	0.001298
330.2512	0.001319
330.4643	0.001003
330.6774	0.000054
330.8905	0.001846
331.1036	0.001593
331.3167	0.002057
331.5299	-0.000156
331.7431	0.001615
331.9562	0.000518
332.1694	0.001045
332.3826	0.000497
332.5959	0.002690
332.8091	0.000265
333.0223	0.000097
333.2356	0.000413
333.4489	0.000877
333.6622	0.001383
333.8755	0.001425
334.0888	-0.000557
334.3021	0.000518
334.5154	-0.000283
334.7288	0.001319
334.9422	0.001868
335.1555	0.002627
335.3689	0.000181
335.5823	0.000223
335.7958	0.001404
336.0092	0.001214
336.2227	0.000371
336.4361	0.001172
336.6496	0.002289
336.8631	-0.000409
337.0766	-0.000283
337.2901	0.001889
337.5036	0.000097
337.7172	0.001551
337.9307	0.000729
338.1443	-0.000072
338.3579	-0.000093
338.5715	0.000771
338.7851	0.001319
338.9987	0.001130
339.2124	0.000813
339.4260	0.001783
339.6397	0.000582
339.8533	0.001066
340.0670	0.000813
340.2807	0.001572
340.4945	0.000666
340.7082	0.000223
340.9219	-0.000199
341.1357	0.002057
341.3495	0.001551
341.5633	0.002036
341.7771	-0.001063
341.9909	0.000982
342.2047	0.001678
342.4185	0.000307
342.6324	0.001298
342.8463	-0.000030
343.0601	0.001277
343.2740	0.002036
343.4879	0.000181
343.7019	0.002331
343.9158	0.002036
344.1297	0.001172
344.3437	0.001109
344.5577	0.000750
344.7717	0.000434
344.9857	0.001340
345.1997	0.000792
345.4137	0.002943
345.6277	0.000961
345.8418	0.001910
346.0559	0.000455
346.2699	0.000560
346.4840	0.000455
346.6981	0.000624
346.9123	0.000813
347.1264	0.001572
347.3406	0.000856
347.5547	-0.000283
347.7689	0.000539
347.9831	0.001130
348.1973	-0.000515
348.4115	0.001973
348.6257	0.001762
348.8400	0.001467
349.0542	0.000603
349.2685	0.000856
349.4828	0.002163
349.6971	0.001214
349.9114	0.000982
350.1257	0.001362
350.3400	0.001045
350.5544	0.000708
350.7687	0.001214
350.9831	0.000792
351.1975	0.001425
351.4119	0.000982
351.6263	0.001151
351.8407	0.001277
352.0552	-0.000367
352.2696	0.002142
352.4841	0.000835
352.6986	0.000307
352.9131	0.000329
353.1276	-0.000030
353.3421	0.001130
353.5566	0.000097
353.7712	0.000139
353.9858	0.001931
354.2003	0.000097
354.4149	0.001530
354.6295	0.000118
354.8441	0.001804
355.0588	-0.000557
355.2734	0.000497
355.4881	0.001678
355.7027	0.001572
355.9174	-0.000262
356.1321	0.000835
356.3468	0.000265
356.5615	0.001467
356.7763	0.000687
356.9910	0.000560
357.2058	0.000181
357.4206	0.001636
357.6353	0.000286
357.8501	-0.000452
358.0650	0.000687
358.2798	0.002753
358.4946	0.001298
358.7095	0.001024
358.9243	0.000286
359.1392	0.001214
359.3541	-0.000325
359.5690	0.000940
359.7839	0.000835
359.9989	0.001783
360.2138	-0.000072
360.4288	0.001657
360.6438	0.000877
360.8587	0.002331
361.0737	0.000940
361.2888	0.002395
361.5038	0.001383
361.7188	0.000603
361.9339	0.001509
362.1489	0.000961
362.3640	0.000181
362.5791	0.000708
362.7942	0.002015
363.0093	0.001066
363.2245	0.001088
363.4396	0.001446
363.6548	-0.000641
363.8699	0.001362
364.0851	-0.000936
364.3003	0.002584
364.5155	0.001088
364.7308	0.000582
364.9460	0.000835
365.1612	0.001762
365.3765	0.000560
365.5918	0.000961
365.8071	-0.000156
366.0224	0.000265
366.2377	-0.000199
366.4530	0.002015
366.6684	0.000329
366.8837	0.001066
367.0991	0.001298
367.3145	0.001193
367.5299	0.001699
367.7453	0.000940
367.9607	0.000118
368.1761	0.001889
368.3916	-0.000199
368.6070	0.000961
368.8225	0.002078
369.0380	0.000160
369.2535	0.001952
369.4690	0.000856
369.6845	-0.000388
369.9001	0.001509
370.1156	0.000708
370.3312	-0.000072
370.5468	0.000265
370.7624	0.002352
370.9780	0.000708
371.1936	0.002078
371.4092	0.000792
371.6249	0.000560
371.8405	0.000265
372.0562	0.001404
372.2719	0.001973
372.4876	0.001362
372.7033	-0.000430
372.9190	0.001488
373.1348	-0.000515
373.3505	0.000603
373.5663	0.000560
373.7820	0.001551
373.9978	0.001467
374.2136	0.001804
374.4294	0.001657
374.6453	0.000582
374.8611	0.000940
375.0770	0.001235
375.2928	0.001593
375.5087	0.001846
375.7246	0.000919
375.9405	0.000856
376.1564	0.000603
376.3724	0.001973
376.5883	0.001172
376.8043	-0.000262
377.0203	0.001952
377.2362	0.000645
377.4522	0.000097
377.6682	0.000813
377.8843	0.001720
378.1003	0.001066
378.3164	0.000539
378.5324	0.002121
378.7485	0.000835
378.9646	0.001109
379.1807	-0.001063
379.3968	0.001193
379.6129	0.001741
379.8291	0.000286
380.0452	0.000097
380.2614	0.001931
380.4776	0.002627
380.6938	0.001657
380.9100	0.000286
381.1262	0.001636
381.3424	0.001340
381.5587	0.002437
381.7749	0.000940
381.9912	0.001298
382.2075	-0.000009
382.4238	0.001994
382.6401	0.001024
382.8564	0.000413
383.0728	0.000750
383.2891	0.000160
383.5055	0.001615
383.7219	0.002774
383.9382	0.002395
384.1546	0.001340
384.3711	-0.000072
384.5875	0.000687
384.8039	0.000919
385.0204	0.001235
385.2368	0.001088
385.4533	0.002121
385.6698	0.001509
385.8863	0.001488
386.1028	-0.000156
386.3194	0.000160
386.5359	0.000835
386.7525	0.000813
386.9690	0.000455
387.1856	0.001741
387.4022	0.002500
387.6188	0.002036
387.8355	0.001383
388.0521	0.002374
388.2687	0.003217
388.4854	0.002563
388.7021	0.001615
388.9188	0.001804
389.1355	0.002584
389.3522	0.002500
389.5689	0.002521
389.7856	0.003828
390.0024	0.004334
390.2192	0.002943
390.4359	0.003744
390.6527	0.003638
390.8695	0.002057
391.0863	0.004292
391.3032	0.002416
391.5200	0.003090
391.7369	0.004545
391.9537	0.005494
392.1706	0.004587
392.3875	0.006442
392.6044	0.005367
392.8213	0.005852
393.0383	0.004735
393.2552	0.007476
393.4722	0.005473
393.6891	0.008487
393.9061	0.005473
394.1231	0.007033
394.3401	0.006906
394.5572	0.006569
394.7742	0.006506
394.9912	0.007939
395.2083	0.008424
395.4254	0.009352
395.6425	0.007265
395.8596	0.007497
396.0767	0.007960
396.2938	0.008698
396.5109	0.009984
396.7281	0.010005
396.9453	0.010406
397.1624	0.009331
397.3796	0.010532
397.5968	0.012303
397.8140	0.010638
398.0313	0.013273
398.2485	0.012388
398.4658	0.012746
398.6830	0.012999
398.9003	0.013400
399.1176	0.012451
399.3349	0.013716
399.5522	0.014159
399.7696	0.012767
399.9869	0.012852
400.2043	0.013315
400.4216	0.012050
400.6390	0.014285
400.8564	0.014897
401.0738	0.015508
401.2912	0.013842
401.5087	0.013632
401.7261	0.015192
401.9436	0.015192
402.1610	0.015255
402.3785	0.014053
402.5960	0.015719
402.8135	0.016520
403.0310	0.017553
403.2486	0.016457
403.4661	0.017363
403.6837	0.017131
403.9013	0.015698
404.1189	0.018207
404.3365	0.018038
404.5541	0.016056
404.7717	0.017806
404.9893	0.019197
405.2070	0.017426
405.4246	0.021264
405.6423	0.018333
405.8600	0.019577
406.0777	0.019661
406.2954	0.017743
406.5131	0.018944
406.7309	0.019050
406.9486	0.016731
407.1664	0.016984
407.3842	0.018143
407.6020	0.017279
407.8198	0.018902
408.0376	0.017384
408.2554	0.019155
408.4733	0.020715
408.6911	0.020083
408.9090	0.017911
409.1269	0.020462
409.3448	0.019598
409.5627	0.019240
409.7806	0.019155
409.9985	0.019050
410.2165	0.020610
410.4344	0.019176
410.6524	0.017869
410.8704	0.020146
411.0884	0.020167
411.3064	0.020568
411.5244	0.021053
411.7424	0.020736
411.9605	0.021074
412.1785	0.020568
412.3966	0.019809
412.6147	0.021938
412.8328	0.021137
413.0509	0.020062
413.2690	0.022086
413.4871	0.021390
413.7053	0.022866
413.9234	0.022781
414.1416	0.021727
414.3598	0.023034
414.5780	0.021685
414.7962	0.020926
415.0144	0.023920
415.2326	0.022739
415.4509	0.021369
415.6692	0.021538
415.8874	0.022297
416.1057	0.022613
416.3240	0.023583
416.5423	0.022001
416.7606	0.024658
416.9790	0.022507
417.1973	0.024067
417.4157	0.022592
417.6341	0.022001
417.8524	0.022381
418.0708	0.021538
418.2893	0.023625
418.5077	0.023056
418.7261	0.023435
418.9446	0.023456
419.1630	0.025543
419.3815	0.024489
419.6000	0.023941
419.8185	0.023414
420.0370	0.024679
420.2555	0.025607
420.4741	0.024932
420.6926	0.023119
420.9112	0.027019
421.1298	0.025290
421.3483	0.027230
421.5669	0.027167
421.7856	0.029507
422.0042	0.027947
422.2228	0.029233
422.4415	0.027420
422.6601	0.026176
422.8788	0.026408
423.0975	0.027736
423.3162	0.026935
423.5349	0.027483
423.7536	0.024784
423.9724	0.026281
424.1911	0.026281
424.4099	0.024447
424.6287	0.023688
424.8475	0.023983
425.0663	0.026534
425.2851	0.026555
425.5039	0.025079
425.7228	0.024869
425.9416	0.025480
426.1605	0.024616
426.3793	0.023372
426.5982	0.023203
426.8171	0.022318
427.0361	0.024363
427.2550	0.026302
427.4739	0.025712
427.6929	0.026661
427.9118	0.024784
428.1308	0.022781
428.3498	0.025079
428.5688	0.024700
428.7878	0.025691
429.0068	0.023456
429.2259	0.026998
429.4449	0.024552
429.6640	0.026745
429.8831	0.027230
430.1022	0.028010
430.3213	0.028558
430.5404	0.029275
430.7595	0.027504
430.9787	0.027841
431.1978	0.026555
431.4170	0.025522
431.6362	0.022887
431.8553	0.023688
432.0745	0.021664
432.2938	0.023245
432.5130	0.022655
432.7322	0.023793
432.9515	0.022507
433.1707	0.023309
433.3900	0.023730
433.6093	0.025775
433.8286	0.027905
434.0479	0.028558
434.2673	0.026155
434.4866	0.024552
434.7059	0.025290
434.9253	0.024468
435.1447	0.024573
435.3641	0.024700
435.5835	0.024489
435.8029	0.025480
436.0223	0.021917
436.2418	0.025522
436.4612	0.023815
436.6807	0.025037
436.9001	0.025796
437.1196	0.024426
437.3391	0.023182
437.5586	0.023899
437.7782	0.024131
437.9977	0.025564
438.2173	0.024974
438.4368	0.024763
438.6564	0.024826
438.8760	0.023625
439.0956	0.025607
439.3152	0.022803
439.5348	0.025691
439.7545	0.025607
439.9741	0.023709
440.1938	0.024405
440.4135	0.023182
440.6331	0.024067
440.8528	0.023857
441.0725	0.026281
441.2923	0.025501
441.5120	0.028537
441.7318	0.027504
441.9515	0.029718
442.1713	0.029169
442.3911	0.028073
442.6109	0.025733
442.8307	0.027272
443.0505	0.023751
443.2703	0.027188
443.4902	0.026850
443.7101	0.028727
443.9299	0.026555
444.1498	0.027441
444.3697	0.026113
444.5896	0.025712
444.8095	0.026513
445.0295	0.028221
445.2494	0.027146
445.4694	0.027251
445.6894	0.025838
445.9093	0.024489
446.1293	0.025332
446.3493	0.027314
446.5694	0.025838
446.7894	0.026365
447.0094	0.024194
447.2295	0.024953
447.4496	0.024046
447.6696	0.024405
447.8897	0.024531
448.1098	0.023815
448.3300	0.022086
448.5501	0.024573
448.7702	0.022107
448.9904	0.022001
449.2106	0.023519
449.4307	0.022486
449.6509	0.024215
449.8711	0.020779
450.0914	0.023013
450.3116	0.023098
450.5318	0.020505
450.7521	0.022550
450.9724	0.021896
451.1926	0.020399
451.4129	0.019366
451.6332	0.020505
451.8535	0.020252
452.0739	0.021727
452.2942	0.019050
452.5146	0.020905
452.7349	0.021453
452.9553	0.019640
453.1757	0.019724
453.3961	0.019851
453.6165	0.018776
453.8369	0.018797
454.0574	0.019240
454.2778	0.019788
454.4983	0.017890
454.7188	0.018101
454.9393	0.017764
455.1597	0.017469
455.3803	0.016393
455.6008	0.018143
455.8213	0.019345
456.0419	0.018691
456.2624	0.016288
456.4830	0.016878
456.7036	0.015951
456.9242	0.017426
457.1448	0.015740
457.3654	0.017996
457.5860	0.018312
457.8067	0.020167
458.0274	0.017426
458.2480	0.019408
458.4687	0.017448
458.6894	0.017131
458.9101	0.018797
459.1308	0.017511
459.3516	0.016963
459.5723	0.017342
459.7931	0.017300
460.0138	0.017363
460.2346	0.016309
460.4554	0.017701
460.6762	0.015107
460.8970	0.016415
461.1178	0.015529
461.3387	0.017300
461.5595	0.016056
461.7804	0.015150
462.0013	0.014032
462.2222	0.013906
462.4431	0.013526
462.6640	0.015719
462.8849	0.013379
463.1059	0.013779
463.3268	0.013969
463.5478	0.013779
463.7687	0.015171
463.9897	0.011882
464.2107	0.015866
464.4317	0.014665
464.6528	0.015403
464.8738	0.014517
465.0948	0.014707
465.3159	0.015255
465.5370	0.015866
465.7581	0.015487
465.9792	0.015023
466.2003	0.015023
466.4214	0.013695
466.6425	0.012008
466.8637	0.012936
467.0848	0.012072
467.3060	0.013463
467.5272	0.012261
467.7484	0.011502
467.9696	0.011587
468.1908	0.011481
468.4120	0.010532
468.6333	0.010996
468.8545	0.010596
469.0758	0.010554
469.2970	0.009099
469.5183	0.009584
469.7396	0.010237
469.9610	0.010975
470.1823	0.009078
470.4036	0.008213
470.6250	0.009689
470.8463	0.009099
471.0677	0.009204
471.2891	0.008804
471.5105	0.009837
471.7319	0.009816
471.9533	0.010975
472.1748	0.009879
472.3962	0.008930
472.6177	0.008846
472.8391	0.008846
473.0606	0.009731
473.2821	0.007012
473.5036	0.009310
473.7251	0.009689
473.9467	0.009499
474.1682	0.008614
474.3898	0.008066
474.6113	0.007075
474.8329	0.009499
475.0545	0.009099
475.2761	0.009521
475.4977	0.008846
475.7193	0.009605
475.9410	0.010132
476.1626	0.008698
476.3843	0.008424
476.6060	0.009183
476.8277	0.009057
477.0494	0.008593
477.2711	0.008045
477.4928	0.007560
477.7145	0.007012
477.9363	0.006506
478.1580	0.007518
478.3798	0.009225
478.6016	0.006717
478.8234	0.007159
479.0452	0.007412
479.2670	0.007560
479.4888	0.006569
479.7107	0.007476
479.9325	0.007307
480.1544	0.007539
480.3763	0.008003
480.5982	0.005662
480.8201	0.008340
481.0420	0.006717
481.2639	0.006864
481.4859	0.008129
481.7078	0.008213
481.9298	0.007497
482.1517	0.006948
482.3737	0.007623
482.5957	0.007876
482.8177	0.006189
483.0398	0.006168
483.2618	0.006063
483.4838	0.006316
483.7059	0.006274
483.9280	0.005536
484.1501	0.006695
484.3721	0.007412
484.5943	0.007096
484.8164	0.006000
485.0385	0.007307
485.2606	0.006021
485.4828	0.008951
485.7050	0.011734
485.9271	0.016963
486.1493	0.018354
486.3715	0.016140
486.5937	0.013336
486.8160	0.011755
487.0382	0.009689
487.2605	0.009310
487.4827	0.006506
487.7050	0.007286
487.9273	0.006421
488.1496	0.005641
488.3719	0.005662
488.5942	0.005114
488.8165	0.005557
489.0389	0.005979
489.2612	0.003575
489.4836	0.004925
489.7060	0.004039
489.9284	0.006000
490.1508	0.006464
490.3732	0.005473
490.5956	0.003343
490.8180	0.003217
491.0405	0.004250
491.2630	0.003765
491.4854	0.004166
491.7079	0.004123
491.9304	0.004882
492.1529	0.005473
492.3755	0.004419
492.5980	0.004334
492.8205	0.003554
493.0431	0.001910
493.2657	0.004566
493.4882	0.005156
493.7108	0.004102
493.9334	0.004714
494.1561	0.004313
494.3787	0.005009
494.6013	0.003364
494.8240	0.004440
495.0466	0.003660
495.2693	0.003955
495.4920	0.001825
495.7147	0.003744
495.9374	0.003575
496.1601	0.005515
496.3829	0.004967
496.6056	0.004018
496.8284	0.004840
497.0511	0.003364
497.2739	0.002163
497.4967	0.005915
497.7195	0.003280
497.9423	0.003681
498.1652	0.004756
498.3880	0.002458
498.6109	0.004313
498.8337	0.003428
499.0566	0.004292
499.2795	0.003407
499.5024	0.003554
499.7253	0.003280
499.9482	0.004397
500.1712	0.003386
500.3941	0.001868
500.6171	0.003343
500.8400	0.002289
501.0630	0.003702
501.2860	0.002985
501.5090	0.003533
501.7320	0.002584
501.9551	0.004166
502.1781	0.002711
502.4012	0.003660
502.6242	0.002184
502.8473	0.001425
503.0704	0.004039
503.2935	0.002880
503.5166	0.003744
503.7397	0.004714
503.9628	0.003428
504.1860	0.003533
504.4092	0.003786
504.6323	0.003554
504.8555	0.001741
505.0787	0.002416
505.3019	0.003976
505.5251	0.002374
505.7483	0.003617
505.9716	0.004988
506.1948	0.004018
506.4181	0.003428
506.6414	0.003870
506.8647	0.002985
507.0880	0.003786
507.3113	0.004060
507.5346	0.002753
507.7579	0.003259
507.9813	0.003512
508.2046	0.003386
508.4280	0.003006
508.6514	0.002331
508.8748	0.003554
509.0982	0.003449
509.3216	0.003617
509.5450	0.004566
509.7685	0.004629
509.9919	0.002184
510.2154	0.001699
510.4388	0.003048
510.6623	0.002627
510.8858	0.003322
511.1093	0.004102
511.3329	0.004608
511.5564	0.004334
511.7799	0.004018
512.0035	0.004229
512.2270	0.002901
512.4506	0.003196
512.6742	0.003238
512.8978	0.002943
513.1214	0.004018
513.3451	0.003196
513.5687	0.004355
513.7923	0.003343
514.0160	0.002521
514.2397	0.003554
514.4634	0.003301
514.6871	0.003913
514.9108	0.003491
515.1345	0.003702
515.3582	0.003512
515.5819	0.003491
515.8057	0.001889
516.0295	0.003470
516.2532	0.003069
516.4770	0.002901
516.7008	0.003259
516.9246	0.003217
517.1485	0.003617
517.3723	0.003744
517.5961	0.002901
517.8200	0.001193
518.0439	0.004081
518.2677	0.002331
518.4916	0.002310
518.7155	0.003470
518.9395	0.003196
519.1634	0.003407
519.3873	0.003638
519.6113	0.002690
519.8352	0.003617
520.0592	0.001889
520.2832	0.003301
520.5072	0.003786
520.7312	0.002795
520.9552	0.003364
521.1792	0.002605
521.4033	0.003027
521.6273	0.003702
521.8514	0.005262
522.0755	0.003491
522.2996	0.003807
522.5237	0.004018
522.7478	0.003069
522.9719	0.004144
523.1960	0.003048
523.4202	0.002310
523.6443	0.003807
523.8685	0.003681
524.0927	0.004376
524.3169	0.003090
524.5411	0.004714
524.7653	0.004397
524.9895	0.003955
525.2138	0.005578
525.4380	0.004693
525.6623	0.002584
525.8865	0.003828
526.1108	0.003891
526.3351	0.002795
526.5594	0.004166
526.7837	0.004144
527.0081	0.004503
527.2324	0.004355
527.4568	0.004967
527.6811	0.004903
527.9055	0.002711
528.1299	0.005325
528.3543	0.004650
528.5787	0.005747
528.8031	0.004882
529.0276	0.005452
529.2520	0.004714
529.4765	0.003955
529.7009	0.005199
529.9254	0.005114
530.1499	0.005051
530.3744	0.006126
530.5989	0.005452
530.8234	0.005473
531.0480	0.005388
531.2725	0.005009
531.4971	0.004355
531.7217	0.005684
531.9462	0.006695
532.1708	0.005599
532.3954	0.004819
532.6200	0.005810
532.8447	0.005894
533.0693	0.005114
533.2940	0.006063
533.5186	0.006189
533.7433	0.007476
533.9680	0.006991
534.1927	0.007939
534.4174	0.006738
534.6421	0.006105
534.8668	0.006738
535.0916	0.007982
535.3163	0.007792
535.5411	0.007349
535.7659	0.007138
535.9907	0.006717
536.2155	0.008825
536.4403	0.006506
536.6651	0.006400
536.8899	0.007581
537.1148	0.008045
537.3396	0.007686
537.5645	0.007286
537.7894	0.007602
538.0143	0.009858
538.2392	0.008171
538.4641	0.007349
538.6890	0.009015
538.9139	0.010596
539.1389	0.009521
539.3638	0.010469
539.5888	0.009268
539.8138	0.008740
540.0388	0.009647
540.2638	0.011207
540.4888	0.009078
540.7138	0.010701
540.9389	0.009900
541.1639	0.009015
541.3890	0.010596
541.6140	0.010975
541.8391	0.010258
542.0642	0.011249
542.2893	0.010954
542.5144	0.011207
542.7396	0.010448
542.9647	0.011123
543.1899	0.011840
543.4150	0.012746
543.6402	0.010785
543.8654	0.013547
544.0906	0.011797
544.3158	0.013421
544.5410	0.013442
544.7662	0.014644
544.9915	0.013842
545.2167	0.013147
545.4420	0.013442
545.6673	0.014327
545.8926	0.013948
546.1179	0.012325
546.3432	0.012156
546.5685	0.013210
546.7938	0.013906
547.0192	0.013231
547.2445	0.013315
547.4699	0.016077
547.6953	0.017279
547.9206	0.015002
548.1460	0.017722
548.3715	0.017827
548.5969	0.017152
548.8223	0.019387
549.0478	0.017848
549.2732	0.017701
549.4987	0.015866
549.7242	0.015909
549.9496	0.016330
550.1751	0.018375
550.4007	0.016963
550.6262	0.016857
550.8517	0.016351
551.0773	0.015529
551.3028	0.016668
551.5284	0.016351
551.7540	0.016415
551.9796	0.018185
552.2052	0.018270
552.4308	0.020399
552.6564	0.019008
552.8820	0.020652
553.1077	0.019598
553.3333	0.021833
553.5590	0.019197
553.7847	0.022655
554.0104	0.020188
554.2361	0.020020
554.4618	0.020589
554.6875	0.020420
554.9132	0.018839
555.1390	0.022233
555.3648	0.022360
555.5905	0.021137
555.8163	0.020505
556.0421	0.025164
556.2679	0.023309
556.4937	0.026049
556.7195	0.022824
556.9454	0.022992
557.1712	0.023962
557.3971	0.022128
557.6230	0.022887
557.8488	0.023562
558.0747	0.023962
558.3006	0.024953
558.5266	0.021495
558.7525	0.024426
558.9784	0.020863
559.2044	0.022044
559.4303	0.021938
559.6563	0.022550
559.8823	0.023140
560.1083	0.024278
560.3343	0.026281
560.5603	0.028158
560.7863	0.029971
561.0124	0.028769
561.2384	0.030540
561.4645	0.029570
561.6905	0.032437
561.9166	0.030772
562.1427	0.029507
562.3688	0.030055
562.5949	0.028938
562.8211	0.028959
563.0472	0.031826
563.2733	0.030181
563.4995	0.031341
563.7257	0.031931
563.9519	0.029233
564.1781	0.031910
564.4043	0.032690
564.6305	0.032142
564.8567	0.034841
565.0829	0.035073
565.3092	0.035389
565.5355	0.032964
565.7617	0.033576
565.9880	0.034735
566.2143	0.036464
566.4406	0.038931
566.6669	0.036253
566.8932	0.039900
567.1196	0.040849
567.3459	0.044370
567.5723	0.049135
567.7987	0.046289
568.0250	0.048903
568.2514	0.049725
568.4778	0.051390
568.7043	0.055038
568.9307	0.059212
569.1571	0.062248
569.3836	0.064462
569.6100	0.072895
569.8365	0.082234
570.0630	0.087547
570.2895	0.087210
570.5160	0.088707
570.7425	0.091363
570.9690	0.096212
571.1956	0.105320
571.4221	0.107828
571.6487	0.108081
571.8752	0.114111
572.1018	0.119234
572.3284	0.116662
572.5550	0.109157
572.7816	0.105636
573.0082	0.102221
573.2349	0.105931
573.4615	0.120984
573.6882	0.126993
573.9149	0.131694
574.1415	0.135763
574.3682	0.144428
574.5949	0.148560
574.8216	0.149150
575.0484	0.147316
575.2751	0.148033
575.5018	0.150774
575.7286	0.140928
575.9554	0.136796
576.1821	0.135278
576.4089	0.138187
576.6357	0.150078
576.8626	0.150731
577.0894	0.157752
577.3162	0.161800
577.5431	0.166670
577.7699	0.178940
577.9968	0.213937
578.2237	0.206811
578.4505	0.191147
578.6774	0.183641
578.9044	0.171898
579.1313	0.160261
579.3582	0.163255
579.5851	0.171730
579.8121	0.175377
580.0391	0.173754
580.2660	0.181828
580.4930	0.177085
580.7200	0.169368
580.9470	0.175525
581.1741	0.207928
581.4011	0.249524
581.6281	0.276615
581.8552	0.278913
582.0822	0.274022
582.3093	0.261162
582.5364	0.240733
582.7635	0.220810
582.9906	0.203986
583.2177	0.190578
583.4449	0.175841
583.6720	0.165257
583.8991	0.155791
584.1263	0.164583
584.3535	0.166122
584.5807	0.170444
584.8079	0.176494
585.0351	0.189924
585.2623	0.200381
585.4895	0.205736
585.7167	0.198462
585.9440	0.195869
586.1713	0.185982
586.3985	0.176663
586.6258	0.167640
586.8531	0.168673
587.0804	0.180648
587.3077	0.188554
587.5350	0.193297
587.7624	0.188322
587.9897	0.187689
588.2171	0.172805
588.4445	0.169853
588.6718	0.167345
588.8992	0.159713
589.1266	0.152545
589.3540	0.141518
589.5815	0.140802
589.8089	0.138040
590.0363	0.134793
590.2638	0.132643
590.4913	0.122397
590.7187	0.119867
590.9462	0.116704
591.1737	0.110822
591.4012	0.108334
591.6288	0.111602
591.8563	0.111075
592.0838	0.109599
592.3114	0.114090
592.5389	0.129354
592.7665	0.154210
592.9941	0.171856
593.2217	0.171456
593.4493	0.171076
593.6769	0.169748
593.9046	0.165068
594.1322	0.156361
594.3598	0.145292
594.5875	0.145819
594.8152	0.157647
595.0429	0.164625
595.2705	0.165447
595.4983	0.159734
595.7260	0.153599
595.9537	0.143753
596.1814	0.138546
596.4092	0.131040
596.6369	0.121912
596.8647	0.121912
597.0925	0.122586
597.3203	0.127983
597.5481	0.126971
597.7759	0.124210
598.0037	0.122839
598.2315	0.117273
598.4594	0.117864
598.6872	0.131188
598.9151	0.149171
599.1430	0.161884
599.3709	0.156698
599.5988	0.153409
599.8267	0.150521
600.0546	0.153114
600.2825	0.156002
600.5105	0.154547
600.7384	0.152081
600.9664	0.153535
601.1944	0.160008
601.4223	0.155159
601.6503	0.147358
601.8783	0.143268
602.1064	0.140823
602.3344	0.141856
602.5624	0.141940
602.7905	0.149256
603.0185	0.146452
603.2466	0.155117
603.4747	0.158258
603.7028	0.158890
603.9309	0.157330
604.1590	0.149677
604.3871	0.143795
604.6152	0.136922
604.8434	0.135679
605.0715	0.130302
605.2997	0.132432
605.5279	0.137702
605.7561	0.148054
605.9843	0.148708
606.2125	0.146620
606.4407	0.136901
606.6689	0.132664
606.8972	0.130808
607.1254	0.132685
607.3537	0.132832
607.5819	0.131926
607.8102	0.136501
608.0385	0.130408
608.2668	0.130387
608.4951	0.124695
608.7235	0.123725
608.9518	0.120836
609.1801	0.118349
609.4085	0.114638
609.6369	0.113858
609.8653	0.112846
610.0936	0.125306
610.3220	0.131462
610.5505	0.124589
610.7789	0.121300
611.0073	0.118644
611.2357	0.117737
611.4642	0.115966
611.6927	0.119150
611.9211	0.117337
612.1496	0.114069
612.3781	0.110000
612.6066	0.109873
612.8351	0.107892
613.0637	0.112846
613.2922	0.108819
613.5208	0.108756
613.7493	0.107660
613.9779	0.109789
614.2065	0.109283
614.4351	0.108967
614.6637	0.110148
614.8923	0.104772
615.1209	0.108777
615.3495	0.109051
615.5782	0.112952
615.8068	0.113584
616.0355	0.103528
616.2642	0.101546
616.4929	0.097751
616.7216	0.094167
616.9503	0.093050
617.1790	0.093260
617.4077	0.091911
617.6365	0.094441
617.8652	0.093218
618.0940	0.092754
618.3227	0.091679
618.5515	0.092206
618.7803	0.081328
619.0091	0.078692
619.2379	0.079810
619.4667	0.076795
619.6956	0.077955
619.9244	0.077659
620.1533	0.081180
620.3821	0.081981
620.6110	0.081286
620.8399	0.075319
621.0688	0.066507
621.2977	0.062396
621.5266	0.061742
621.7556	0.065115
621.9845	0.069943
622.2135	0.070660
622.4424	0.070344
622.6714	0.071313
622.9004	0.070533
623.1294	0.074687
623.3584	0.074349
623.5874	0.076289
623.8164	0.076732
624.0454	0.075382
624.2745	0.074876
624.5035	0.076668
624.7326	0.075635
624.9617	0.076795
625.1908	0.074265
625.4199	0.070765
625.6490	0.069037
625.8781	0.070386
626.1072	0.067961
626.3364	0.064925
626.5655	0.061869
626.7947	0.060667
627.0238	0.059107
627.2530	0.060055
627.4822	0.063218
627.7114	0.059465
627.9406	0.055965
628.1698	0.056935
628.3991	0.052445
628.6283	0.049493
628.8576	0.049240
629.0868	0.050315
629.3161	0.052255
629.5454	0.055586
629.7747	0.053056
630.0040	0.055185
630.2333	0.049725
630.4626	0.051580
630.6920	0.048839
630.9213	0.048587
631.1507	0.045804
631.3801	0.046225
631.6094	0.047722
631.8388	0.046394
632.0682	0.045761
632.2976	0.043232
632.5271	0.041671
632.7565	0.039732
632.9859	0.038783
633.2154	0.037792
633.4448	0.037434
633.6743	0.040090
633.9038	0.037012
634.1333	0.038910
634.3628	0.035684
634.5923	0.037160
634.8218	0.033217
635.0514	0.033850
635.2809	0.033997
635.5105	0.035304
635.7400	0.035747
635.9696	0.034524
636.1992	0.039289
636.4288	0.039964
636.6584	0.039584
636.8880	0.039879
637.1177	0.039437
637.3473	0.039521
637.5770	0.035304
637.8066	0.036633
638.0363	0.035642
638.2660	0.035178
638.4957	0.036443
638.7254	0.035853
638.9551	0.036591
639.1848	0.036063
639.4145	0.034567
639.6443	0.032322
639.8740	0.033008
640.1038	0.031878
640.3336	0.033511
640.5633	0.032379
640.7931	0.033845
641.0229	0.030077
641.2528	0.030947
641.4826	0.028526
641.7124	0.027854
641.9423	0.028171
642.1721	0.026242
642.4020	0.025130
642.6319	0.025768
642.8617	0.026864
643.0916	0.024820
643.3216	0.027831
643.5515	0.028401
643.7814	0.027977
644.0113	0.024467
644.2413	0.025010
644.4712	0.024476
644.7012	0.023731
644.9312	0.024604
645.1612	0.023826
645.3912	0.022940
645.6212	0.024390
645.8512	0.023420
646.0812	0.022316
646.3113	0.022743
646.5413	0.022448
646.7714	0.022940
647.0015	0.022398
647.2316	0.023319
647.4616	0.020406
647.6918	0.021844
647.9219	0.025160
648.1520	0.025562
648.3821	0.025365
648.6123	0.026994
648.8424	0.029702
649.0726	0.031223
649.3028	0.029287
649.5329	0.030000
649.7631	0.028019
649.9933	0.026346
650.2236	0.027079
650.4538	0.026741
650.6840	0.024373
650.9143	0.024735
651.1445	0.023602
651.3748	0.023979
651.6051	0.024976
651.8354	0.026249
652.0657	0.027358
652.2960	0.027101
652.5263	0.029345
652.7566	0.029005
652.9870	0.028000
653.2173	0.027711
653.4477	0.028703
653.6780	0.028558
653.9084	0.027935
654.1388	0.028619
654.3692	0.028333
654.5996	0.031022
654.8300	0.035168
655.0605	0.049188
655.2909	0.133542
655.5213	0.396039
655.7518	0.803116
655.9823	1.013447
656.2128	1.004490
656.4433	1.006725
656.6738	1.005680
656.9043	0.924675
657.1348	0.742805
657.3653	0.597540
657.5959	0.513663
657.8264	0.447177
658.0570	0.409113
658.2875	0.366019
658.5181	0.335638
658.7487	0.317014
658.9793	0.303764
659.2099	0.245424
659.4406	0.168413
659.6712	0.104611
659.9018	0.063699
660.1325	0.042210
660.3632	0.028757
660.5938	0.025932
660.8245	0.022105
661.0552	0.019510
661.2859	0.020549
661.5166	0.020184
661.7474	0.019876
661.9781	0.020692
662.2088	0.018168
662.4396	0.019308
662.6704	0.020603
662.9011	0.019125
663.1319	0.019439
663.3627	0.019602
663.5935	0.018433
663.8243	0.019875
664.0552	0.019766
664.2860	0.019255
664.5168	0.020152
664.7477	0.021502
664.9786	0.019848
665.2094	0.021184
665.4403	0.022236
665.6712	0.021080
665.9021	0.021652
666.1330	0.021908
666.3640	0.020908
666.5949	0.020333
666.8259	0.018349
667.0568	0.019966
667.2878	0.016883
667.5188	0.016673
667.7497	0.019978
667.9807	0.018603
668.2117	0.018248
668.4428	0.018734
668.6738	0.018460
668.9048	0.019008
669.1359	0.018734
669.3669	0.019303
669.5980	0.019113
669.8291	0.019746
670.0602	0.018207
670.2913	0.019366
670.5224	0.020842
670.7535	0.018776
670.9846	0.020399
671.2157	0.019282
671.4469	0.023182
671.6781	0.024447
671.9092	0.024805
672.1404	0.027019
672.3716	0.031109
672.6028	0.031446
672.8340	0.028642
673.0652	0.028663
673.2964	0.027905
673.5277	0.027715
673.7589	0.026829
673.9902	0.025290
674.2214	0.023477
674.4527	0.025459
674.6840	0.024911
674.9153	0.024911
675.1466	0.023878
675.3779	0.025881
675.6093	0.022971
675.8406	0.022697
676.0719	0.022191
676.3033	0.021474
676.5347	0.022465
676.7661	0.020863
676.9974	0.019703
677.2288	0.020568
677.4602	0.020568
677.6917	0.026281
677.9231	0.024721
678.1545	0.026429
678.3860	0.025585
678.6174	0.026935
678.8489	0.027504
679.0804	0.027652
679.3119	0.027335
679.5434	0.031425
679.7749	0.031467
680.0064	0.028115
680.2379	0.030645
680.4694	0.029507
680.7010	0.029928
680.9325	0.031193
681.1641	0.029865
681.3957	0.030877
681.6273	0.030561
681.8589	0.030139
682.0905	0.028136
682.3221	0.027841
682.5537	0.027989
682.7854	0.027757
683.0170	0.026682
683.2487	0.026492
683.4803	0.027103
683.7120	0.026998
683.9437	0.029401
684.1754	0.026893
684.4071	0.030877
684.6388	0.031847
684.8705	0.033744
685.1023	0.036148
685.3340	0.036696
685.5658	0.038593
685.7975	0.038762
686.0293	0.038488
686.2611	0.038593
686.4929	0.037455
686.7247	0.036485
686.9565	0.035832
687.1883	0.038045
687.4202	0.040196
687.6520	0.039226
687.8838	0.034967
688.1157	0.033449
688.3476	0.034503
688.5795	0.030687
688.8114	0.032458
689.0433	0.030456
689.2752	0.032079
689.5071	0.033470
689.7390	0.031278
689.9710	0.030645
690.2029	0.031784
690.4349	0.028368
690.6669	0.030181
690.8988	0.031552
691.1308	0.031552
691.3628	0.034946
691.5948	0.032817
691.8269	0.032121
692.0589	0.032332
692.2909	0.032859
692.5230	0.031088
692.7550	0.031552
692.9871	0.033660
693.2192	0.033386
693.4513	0.033449
693.6834	0.032943
693.9155	0.031973
694.1476	0.030434
694.3797	0.029296
694.6119	0.027335
694.8440	0.029507
695.0762	0.031130
695.3083	0.029422
695.5405	0.028326
695.7727	0.026745
696.0049	0.027989
696.2371	0.027103
696.4693	0.027841
696.7016	0.029907
696.9338	0.033428
697.1660	0.033365
697.3983	0.033006
697.6306	0.031657
697.8628	0.034040
698.0951	0.034672
698.3274	0.032817
698.5597	0.034271
698.7920	0.032627
699.0243	0.031552
699.2567	0.030983
699.4890	0.030540
699.7214	0.029633
699.9537	0.028326
700.1861	0.029254
700.4185	0.027251
700.6509	0.027989
700.8833	0.025649
701.1157	0.024278
701.3481	0.025248
701.5806	0.025016
701.8130	0.023857
702.0454	0.024742
702.2779	0.027082
702.5104	0.026576
702.7429	0.027778
702.9753	0.026281
703.2078	0.024700
703.4403	0.026661
703.6729	0.024700
703.9054	0.025417
704.1379	0.023224
704.3705	0.024805
704.6030	0.023836
704.8356	0.021453
705.0682	0.022254
705.3008	0.019619
705.5334	0.020273
705.7660	0.020821
705.9986	0.020378
706.2312	0.024447
706.4638	0.025607
706.6965	0.029486
706.9291	0.031320
707.1618	0.032543
707.3945	0.034482
707.6272	0.032121
707.8599	0.031510
708.0926	0.034271
708.3253	0.033723
708.5580	0.033512
708.7907	0.031214
709.0235	0.031130
709.2562	0.028600
709.4890	0.029169
709.7217	0.028284
709.9545	0.029928
710.1873	0.030624
710.4201	0.030308
710.6529	0.030519
710.8857	0.031236
711.1186	0.027883
711.3514	0.028516
711.5842	0.028495
711.8171	0.025944
712.0500	0.024257
712.2828	0.024658
712.5157	0.024848
712.7486	0.024890
712.9815	0.023562
713.2144	0.025459
713.4474	0.027715
713.6803	0.030118
713.9132	0.029275
714.1462	0.029359
714.3791	0.031004
714.6121	0.029971
714.8451	0.030371
715.0781	0.029823
715.3111	0.031130
715.5441	0.029422
715.7771	0.028621
716.0102	0.028938
716.2432	0.025670
716.4762	0.027356
716.7093	0.025396
716.9424	0.023646
717.1754	0.023793
717.4085	0.024489
717.6416	0.023351
717.8747	0.025417
718.1078	0.024531
718.3410	0.025944
718.5741	0.023287
718.8072	0.023899
719.0404	0.025459
719.2736	0.027251
719.5067	0.025079
719.7399	0.025290
719.9731	0.024700
720.2063	0.023013
720.4395	0.023203
720.6727	0.025607
720.9060	0.023540
721.1392	0.025564
721.3725	0.028179
721.6057	0.024278
721.8390	0.024173
722.0723	0.025838
722.3055	0.024784
722.5388	0.023393
722.7721	0.024215
723.0055	0.023562
723.2388	0.023899
723.4721	0.024616
723.7055	0.023477
723.9388	0.023941
724.1722	0.023245
724.4056	0.024468
724.6389	0.022845
724.8723	0.024721
725.1057	0.026028
725.3391	0.028727
725.5726	0.029191
725.8060	0.028495
726.0394	0.027040
726.2729	0.030181
726.5063	0.029886
726.7398	0.028916
726.9733	0.029612
727.2068	0.026555
727.4403	0.027483
727.6738	0.028410
727.9073	0.026070
728.1408	0.028410
728.3743	0.028621
728.6079	0.029760
728.8414	0.030772
729.0750	0.029591
729.3086	0.030645
729.5421	0.031130
729.7757	0.033091
730.0093	0.032437
730.2429	0.031552
730.4766	0.032142
730.7102	0.034145
730.9438	0.036021
731.1775	0.038952
731.4111	0.038530
731.6448	0.037476
731.8785	0.038087
732.1122	0.034567
732.3458	0.035178
732.5795	0.033955
732.8133	0.035494
733.0470	0.036295
733.2807	0.037075
733.5145	0.038087
733.7482	0.038003
733.9820	0.042662
734.2157	0.043105
734.4495	0.044665
734.6833	0.044897
734.9171	0.042051
735.1509	0.042030
735.3847	0.041714
735.6185	0.041988
735.8524	0.043759
736.0862	0.041545
736.3201	0.041229
736.5539	0.040955
736.7878	0.041018
737.0217	0.043147
737.2556	0.043253
737.4895	0.041165
737.7234	0.038361
737.9573	0.036780
738.1912	0.034925
738.4252	0.034946
738.6591	0.033238
738.8931	0.036548
739.1271	0.037982
739.3610	0.039015
739.5950	0.039837
739.8290	0.038699
740.0630	0.038066
740.2970	0.035030
740.5310	0.035726
740.7651	0.035684
740.9991	0.033681
741.2332	0.031784
741.4672	0.032205
741.7013	0.031151
741.9354	0.028790
742.1695	0.030160
742.4036	0.030160
742.6377	0.030139
742.8718	0.031067
743.1059	0.028410
743.3400	0.028052
743.5742	0.027673
743.8083	0.025796
744.0425	0.026028
744.2767	0.026239
744.5108	0.027356
744.7450	0.026408
744.9792	0.024679
745.2134	0.025248
745.4477	0.024131
745.6819	0.024616
745.9161	0.026134
746.1504	0.025986
746.3846	0.025332
746.6189	0.023562
746.8532	0.023330
747.0874	0.026239
747.3217	0.028010
747.5560	0.028579
747.7903	0.028410
748.0247	0.026640
748.2590	0.025459
748.4933	0.025944
748.7277	0.024510
748.9620	0.025459
749.1964	0.027399
749.4308	0.028769
749.6652	0.030730
749.8995	0.030856
750.1339	0.033154
750.3684	0.033302
750.6028	0.036970
750.8372	0.034145
751.0717	0.034967
751.3061	0.032985
751.5406	0.032522
751.7750	0.037602
752.0095	0.033892
752.2440	0.035347
752.4785	0.033365
752.7130	0.030392
752.9475	0.030540
753.1820	0.030287
753.4166	0.033006
753.6511	0.033892
753.8856	0.038383
754.1202	0.035789
754.3548	0.034862
754.5894	0.035052
754.8239	0.035178
755.0585	0.034335
755.2931	0.035326
755.5278	0.035262
755.7624	0.034672
755.9970	0.037455
756.2317	0.039774
756.4663	0.040491
756.7010	0.041924
756.9356	0.043021
757.1703	0.047047
757.4050	0.048882
757.6397	0.049282
757.8744	0.050842
758.1091	0.049367
758.3438	0.049409
758.5786	0.046520
758.8133	0.047406
759.0481	0.045382
759.2828	0.048565
759.5176	0.049577
759.7524	0.050041
759.9872	0.053899
760.2220	0.049641
760.4568	0.053225
760.6916	0.053204
760.9264	0.054068
761.1613	0.053267
761.3961	0.049999
761.6310	0.048776
761.8658	0.043759
762.1007	0.043105
762.3356	0.041418
762.5705	0.040470
762.8054	0.040870
763.0403	0.043253
763.2752	0.041397
763.5101	0.042936
763.7450	0.043084
763.9800	0.040891
764.2149	0.045551
764.4499	0.047659
764.6849	0.050104
764.9198	0.051243
765.1548	0.051601
765.3898	0.048903
765.6248	0.046668
765.8599	0.044307
766.0949	0.043105
766.3299	0.041882
766.5650	0.038467
766.8000	0.036274
767.0351	0.034777
767.2701	0.034229
767.5052	0.033997
767.7403	0.034229
767.9754	0.036548
768.2105	0.035789
768.4456	0.039605
768.6808	0.041060
768.9159	0.041060
769.1510	0.042198
769.3862	0.039647
769.6214	0.041819
769.8565	0.038298
770.0917	0.038614
770.3269	0.036696
770.5621	0.038636
770.7973	0.040153
771.0325	0.041819
771.2677	0.041187
771.5030	0.039205
771.7382	0.038130
771.9735	0.037982
772.2087	0.037392
772.4440	0.036464
772.6793	0.036148
772.9146	0.034546
773.1499	0.033428
773.3852	0.033133
773.6205	0.033175
773.8558	0.033302
774.0911	0.033555
774.3265	0.031552
774.5618	0.029275
774.7972	0.028642
775.0326	0.029001
775.2679	0.025375
775.5033	0.026387
775.7387	0.026534
775.9741	0.023013
776.2095	0.022697
776.4450	0.023287
776.6804	0.020947
776.9158	0.022887
777.1513	0.022423
777.3868	0.022128
777.6222	0.021474
777.8577	0.020462
778.0932	0.020083
778.3287	0.021495
778.5642	0.023772
778.7997	0.024299
779.0352	0.025101
779.2707	0.026387
779.5063	0.027673
779.7418	0.027019
779.9774	0.024911
780.2130	0.025838
780.4485	0.024110
780.6841	0.024700
780.9197	0.027314
781.1553	0.027652
781.3909	0.031278
781.6265	0.031594
781.8622	0.031067
782.0978	0.030456
782.3335	0.030919
782.5691	0.029844
782.8048	0.030498
783.0405	0.028010
783.2761	0.029296
783.5118	0.029950
783.7475	0.030540
783.9832	0.030687
784.2190	0.027968
784.4547	0.024784
784.6904	0.025311
784.9262	0.025290
785.1619	0.025206
785.3977	0.025817
785.6335	0.025944
785.8692	0.025480
786.1050	0.025037
786.3408	0.024848
786.5766	0.026893
786.8124	0.024595
787.0483	0.024595
787.2841	0.024932
787.5199	0.025775
787.7558	0.026935
787.9917	0.024805
788.2275	0.026914
788.4634	0.026429
788.6993	0.027989
788.9352	0.027525
789.1711	0.027841
789.4070	0.024342
789.6429	0.025185
789.8789	0.023287
790.1148	0.024531
790.3507	0.022170
790.5867	0.021580
790.8227	0.021432
791.0586	0.021601
791.2946	0.020420
791.5306	0.021474
791.7666	0.021706
792.0026	0.020399
792.2387	0.017532
792.4747	0.020568
792.7107	0.018143
792.9468	0.019050
793.1828	0.019450
793.4189	0.019788
793.6550	0.020336
793.8910	0.023604
794.1271	0.025628
794.3632	0.025649
794.5993	0.027525
794.8355	0.026387
795.0716	0.026893
795.3077	0.028368
795.5439	0.026239
795.7800	0.026155
796.0162	0.022971
796.2523	0.021179
796.4885	0.021685
796.7247	0.019724
796.9609	0.019050
797.1971	0.019914
797.4333	0.022044
797.6695	0.019788
797.9058	0.020947
798.1420	0.019851
798.3783	0.021432
798.6145	0.020926
798.8508	0.021074
799.0871	0.019661
799.3233	0.018607
799.5596	0.019429
799.7959	0.017574
800.0322	0.017932
800.2686	0.017975
800.5049	0.018038
800.7412	0.016646
800.9776	0.017321
801.2139	0.017448
801.4503	0.018017
801.6867	0.015381
801.9230	0.015381
802.1594	0.015845
802.3958	0.015508
802.6322	0.013611
802.8686	0.014475
803.1051	0.015677
803.3415	0.016668
803.5779	0.016773
803.8144	0.016098
804.0508	0.014327
804.2873	0.015845
804.5238	0.013737
804.7603	0.014981
804.9968	0.015487
805.2333	0.015613
805.4698	0.014201
805.7063	0.015677
805.9428	0.017806
806.1794	0.019746
806.4159	0.019282
806.6525	0.020884
806.8890	0.020041
807.1256	0.021242
807.3622	0.021327
807.5988	0.020905
807.8354	0.019682
808.0720	0.021095
808.3086	0.020694
808.5452	0.017701
808.7818	0.019956
809.0185	0.019429
809.2551	0.019197
809.4918	0.017131
809.7284	0.018270
809.9651	0.015824
810.2018	0.016689
810.4385	0.017426
810.6752	0.016752
810.9119	0.016246
811.1486	0.016773
811.3853	0.015487
811.6221	0.017722
811.8588	0.016225
812.0956	0.014791
812.3323	0.013737
812.5691	0.011903
812.8059	0.013168
813.0427	0.012809
813.2795	0.013758
813.5163	0.014981
813.7531	0.015445
813.9899	0.017637
814.2267	0.018038
814.4636	0.015656
814.7004	0.017469
814.9373	0.017005
815.1742	0.014854
815.4110	0.014644
815.6479	0.013231
815.8848	0.013400
816.1217	0.011671
816.3586	0.012303
816.5955	0.014201
816.8324	0.015002
817.0694	0.012915
817.3063	0.012809
817.5433	0.014032
817.7802	0.012873
818.0172	0.012367
818.2542	0.013568
818.4912	0.011123
818.7282	0.010785
818.9652	0.013442
819.2022	0.010385
819.4392	0.012303
819.6762	0.011038
819.9133	0.011102
820.1503	0.010343
820.3874	0.011270
820.6244	0.012346
820.8615	0.014159
821.0986	0.012599
821.3357	0.014391
821.5727	0.013632
821.8099	0.011481
822.0470	0.012325
822.2841	0.012093
822.5212	0.012725
822.7584	0.010933
822.9955	0.011566
823.2327	0.012240
823.4698	0.010005
823.7070	0.010090
823.9442	0.008951
824.1814	0.011903
824.4186	0.010237
824.6558	0.010237
824.8930	0.009816
825.1302	0.010575
825.3675	0.010891
825.6047	0.011608
825.8419	0.012325
826.0792	0.011566
826.3165	0.010891
826.5537	0.011924
826.7910	0.011207
827.0283	0.012240
827.2656	0.013020
827.5029	0.012556
827.7402	0.011903
827.9776	0.012135
828.2149	0.010216
828.4522	0.011144
828.6896	0.010870
828.9270	0.011692
829.1643	0.012620
829.4017	0.011249
829.6391	0.012008
829.8765	0.011819
830.1139	0.010258
830.3513	0.009521
830.5887	0.009816
830.8261	0.007686
831.0636	0.009268
831.3010	0.008108
831.5385	0.007813
831.7759	0.008382
832.0134	0.007033
832.2509	0.008024
832.4884	0.006189
832.7259	0.007918
832.9634	0.008024
833.2009	0.008487
833.4384	0.008466
833.6759	0.010111
833.9135	0.008298
834.1510	0.010005
834.3886	0.008972
834.6261	0.009563
834.8637	0.008635
835.1013	0.010005
835.3389	0.009752
835.5765	0.008972
835.8141	0.008256
836.0517	0.009141
836.2893	0.008150
836.5269	0.008804
836.7646	0.008572
837.0022	0.006485
837.2399	0.007876
837.4775	0.006126
837.7152	0.006548
837.9529	0.006948
838.1906	0.006189
838.4283	0.006042
838.6660	0.006211
838.9037	0.005515
839.1414	0.005262
839.3791	0.006927
839.6169	0.006168
839.8546	0.006105
840.0924	0.005620
840.3302	0.008551
840.5679	0.007539
840.8057	0.006485
841.0435	0.005747
841.2813	0.006400
841.5191	0.005979
841.7569	0.007012
841.9947	0.005831
842.2326	0.005557
842.4704	0.006569
842.7082	0.006527
842.9461	0.006590
843.1840	0.005641
843.4218	0.004882
843.6597	0.006464
843.8976	0.004777
844.1355	0.005051
844.3734	0.004777
844.6113	0.005494
844.8492	0.004861
845.0872	0.006021
845.3251	0.005072
845.5631	0.005409
845.8010	0.005178
846.0390	0.004545
846.2770	0.006000
846.5149	0.004440
846.7529	0.004566
846.9909	0.005494
847.2289	0.004861
847.4669	0.004208
847.7050	0.003807
847.9430	0.005684
848.1810	0.004798
848.4191	0.005684
848.6571	0.004566
848.8952	0.004903
849.1333	0.004566
849.3713	0.005684
849.6094	0.006105
849.8475	0.005051
850.0856	0.004629
850.3237	0.004376
850.5619	0.004566
850.8000	0.005431
851.0381	0.004081
851.2763	0.003828
851.5144	0.004882
851.7526	0.005557
851.9908	0.006653
852.2289	0.005178
852.4671	0.007433
852.7053	0.007665
852.9435	0.009015
853.1817	0.011629
853.4200	0.011502
853.6582	0.013737
853.8964	0.011207
854.1347	0.012578
854.3729	0.012325
854.6112	0.012219
854.8495	0.013526
855.0877	0.012830
855.3260	0.010912
855.5643	0.012177
855.8026	0.011291
856.0409	0.011776
856.2792	0.012177
856.5176	0.011165
856.7559	0.012599
856.9942	0.010912
857.2326	0.009963
857.4710	0.010258
857.7093	0.009268
857.9477	0.008762
858.1861	0.010111
858.4245	0.008509
858.6629	0.007391
858.9013	0.009605
859.1397	0.008762
859.3781	0.008466
859.6166	0.009120
859.8550	0.008045
860.0935	0.008593
860.3319	0.007750
860.5704	0.007918
860.8089	0.008424
861.0473	0.007433
861.2858	0.007201
861.5243	0.007644
861.7628	0.005641
862.0013	0.006674
862.2399	0.006084
862.4784	0.005093
862.7169	0.005894
862.9555	0.004461
863.1940	0.006653
863.4326	0.005515
863.6712	0.006864
863.9098	0.005831
864.1483	0.007033
864.3869	0.006948
864.6255	0.006126
864.8642	0.004967
865.1028	0.004102
865.3414	0.004988
865.5800	0.006337
865.8187	0.004861
866.0573	0.003765
866.2960	0.005262
866.5347	0.004123
866.7733	0.004967
867.0120	0.006653
867.2507	0.004545
867.4894	0.005367
867.7281	0.004419
867.9669	0.005557
868.2056	0.005810
868.4443	0.004925
868.6831	0.005220
868.9218	0.006211
869.1606	0.003744
869.3993	0.005894
869.6381	0.003870
869.8769	0.003407
870.1157	0.005009
870.3545	0.003807
870.5933	0.004440
870.8321	0.005747
871.0709	0.005051
871.3097	0.005409
871.5486	0.004819
871.7874	0.005178
872.0263	0.004419
872.2651	0.004461
872.5040	0.002985
872.7429	0.005831
872.9818	0.004988
873.2207	0.005093
873.4596	0.004629
873.6985	0.005768
873.9374	0.004313
874.1763	0.005515
874.4153	0.005072
874.6542	0.006042
874.8932	0.004039
875.1321	0.004819
875.3711	0.005072
875.6101	0.004903
875.8491	0.004777
876.0880	0.006695
876.3270	0.004060
876.5661	0.003449
876.8051	0.005283
877.0441	0.003849
877.2831	0.006379
877.5222	0.005283
877.7612	0.006948
878.0003	0.005979
878.2393	0.005473
878.4784	0.006400
878.7175	0.005979
878.9566	0.006506
879.1957	0.006211
879.4348	0.007771
879.6739	0.007223
879.9130	0.006337
880.1521	0.008298
880.3913	0.007286
880.6304	0.007265
880.8696	0.007096
881.1087	0.006864
881.3479	0.006126
881.5871	0.006590
881.8262	0.005473
882.0654	0.007349
882.3046	0.005114
882.5438	0.005072
882.7831	0.007075
883.0223	0.005789
883.2615	0.006042
883.5007	0.006358
883.7400	0.006843
883.9792	0.004967
884.2185	0.005304
884.4578	0.005515
884.6971	0.005431
884.9363	0.006864
885.1756	0.005199
885.4149	0.005915
885.6542	0.005915
885.8936	0.007855
886.1329	0.007328
886.3722	0.007539
886.6116	0.004440
886.8509	0.006548
887.0903	0.006295
887.3296	0.006358
887.5690	0.005409
887.8084	0.005199
888.0478	0.004102
888.2872	0.005557
888.5266	0.005979
888.7660	0.005325
889.0054	0.003976
889.2448	0.004482
889.4843	0.004334
889.7237	0.006232
889.9632	0.002774
890.2026	0.005135
890.4421	0.005536
890.6816	0.002943
890.9211	0.006189
891.1606	0.006063
891.4001	0.003491
891.6396	0.004060
891.8791	0.004566
892.1186	0.005072
892.3581	0.005557
892.5977	0.006400
892.8372	0.004419
893.0768	0.004334
893.3163	0.005325
893.5559	0.004714
893.7955	0.004840
894.0351	0.003955
894.2747	0.004144
894.5143	0.005810
894.7539	0.003364
894.9935	0.004629
895.2331	0.004629
895.4727	0.004482
895.7124	0.003870
895.9520	0.005030
896.1917	0.004419
896.4314	0.004166
896.6710	0.005473
896.9107	0.005304
897.1504	0.005072
897.3901	0.004819
897.6298	0.003702
897.8695	0.004461
898.1092	0.005936
898.3489	0.005241
898.5887	0.005852
898.8284	0.004166
899.0682	0.006000
899.3079	0.003617
899.5477	0.003913
899.7875	0.005283
900.0272	0.004060
900.2670	0.005156
900.5068	0.004882
900.7466	0.004482
900.9864	0.005431
901.2263	0.005557
901.4661	0.004039
901.7059	0.003828
901.9458	0.005768
902.1856	0.005431
902.4255	0.004039
902.6654	0.005346
902.9052	0.004376
903.1451	0.004419
903.3850	0.005199
903.6249	0.004735
903.8648	0.002669
904.1047	0.004693
904.3446	0.004250
904.5846	0.003828
904.8245	0.002985
905.0644	0.005641
905.3044	0.005979
905.5444	0.005262
905.7843	0.003976
906.0243	0.005578
906.2643	0.004735
906.5043	0.004144
906.7443	0.003786
906.9843	0.004587
907.2243	0.002795
907.4643	0.002753
907.7043	0.005852
907.9444	0.005178
908.1844	0.004060
908.4245	0.004693
908.6645	0.004018
908.9046	0.003681
909.1447	0.003765
909.3847	0.004355
909.6248	0.003723
909.8649	0.004081
910.1050	0.003301
910.3452	0.002605
910.5853	0.003913
910.8254	0.003638
911.0655	0.001952
911.3057	0.003533
911.5458	0.004566
911.7860	0.003301
912.0262	0.003175
912.2663	0.005304
912.5065	0.003301
912.7467	0.004419
912.9869	0.005494
913.2271	0.003681
913.4673	0.003217
913.7075	0.004039
913.9478	0.003828
914.1880	0.004187
914.4283	0.003533
914.6685	0.004292
914.9088	0.003554
915.1490	0.002816
915.3893	0.003386
915.6296	0.003259
915.8699	0.002374
916.1102	0.003891
916.3505	0.003111
916.5908	0.004988
916.8311	0.001425
917.0714	0.003407
917.3118	0.004376
917.5521	0.005072
917.7925	0.005367
918.0328	0.005452
918.2732	0.004735
918.5136	0.002374
918.7539	0.004018
918.9943	0.003259
919.2347	0.003723
919.4751	0.003512
919.7155	0.004988
919.9560	0.003660
920.1964	0.004081
920.4368	0.006189
920.6773	0.002880
920.9177	0.003196
921.1582	0.002901
921.3986	0.004229
921.6391	0.004376
921.8796	0.002837
922.1201	0.003428
922.3606	0.003976
922.6011	0.002142
922.8416	0.003891
923.0821	0.002605
923.3226	0.003955
923.5631	0.002563
923.8037	0.002880
924.0442	0.001088
924.2848	0.004798
924.5254	0.002099
924.7659	0.003027
925.0065	0.002458
925.2471	0.003301
925.4877	0.002732
925.7283	0.003702
925.9689	0.002395
926.2095	0.002837
926.4501	0.002057
926.6908	0.002395
926.9314	0.002943
927.1720	0.003681
927.4127	0.001973
927.6533	0.003702
927.8940	0.001846
928.1347	0.003554
928.3754	0.002901
928.6161	0.002121
928.8568	0.002142
929.0975	0.001804
929.3382	0.002605
929.5789	0.002099
929.8196	0.001362
930.0604	0.003196
930.3011	0.002648
930.5419	0.002943
930.7826	0.003997
931.0234	0.003111
931.2642	0.003048
931.5049	0.001657
931.7457	0.002669
931.9865	0.001699
932.2273	0.002458
932.4681	0.002142
932.7089	0.003006
932.9498	0.002627
933.1906	0.003196
933.4314	0.003807
933.6723	0.004355
933.9131	0.000518
934.1540	0.002985
934.3949	0.002078
934.6358	0.002078
934.8766	0.003491
935.1175	0.001235
935.3584	0.002015
935.5993	0.002205
935.8403	0.003048
936.0812	0.001720
936.3221	0.002395
936.5630	0.001952
936.8040	0.002416
937.0449	0.001994
937.2859	0.001130
937.5269	0.002078
937.7678	0.001509
938.0088	0.002310
938.2498	0.000729
938.4908	0.001699
938.7318	0.002816
938.9728	0.002690
939.2138	0.001931
939.4549	0.002395
939.6959	0.001172
939.9369	0.002331
940.1780	0.002205
940.4190	0.002226
940.6601	0.001446
940.9012	0.000076
941.1422	0.001509
941.3833	0.002205
941.6244	0.000856
941.8655	0.001846
942.1066	0.001572
942.3477	0.002099
942.5889	0.003175
942.8300	0.002268
943.0711	0.001193
943.3123	0.001066
943.5534	0.001678
943.7946	0.002184
944.0357	0.000708
944.2769	0.001657
944.5181	0.001383
944.7593	0.001298
945.0005	0.002563
945.2417	0.000771
945.4829	0.000139
945.7241	0.001045
945.9653	0.002374
946.2066	0.001530
946.4478	0.001003
946.6891	0.002099
946.9303	0.000792
947.1716	0.000898
947.4128	0.001383
947.6541	0.001530
947.8954	0.001467
948.1367	0.002774
948.3780	0.001593
948.6193	0.001467
948.8606	0.000856
949.1019	0.001657
949.3433	0.001340
949.5846	0.000539
949.8259	0.001193
950.0673	0.002289
950.3086	0.001846
950.5500	0.001931
950.7914	0.001952
951.0327	0.002015
951.2741	0.001846
951.5155	0.001467
951.7569	0.001214
951.9983	0.000392
952.2398	0.001151
952.4812	0.001615
952.7226	0.001657
952.9640	0.001003
953.2055	0.001868
953.4469	0.001804
953.6884	0.001657
953.9299	0.001151
954.1713	0.001383
954.4128	0.001488
954.6543	0.001362
954.8958	0.001952
955.1373	0.002711
955.3788	0.002458
955.6203	0.001277
955.8618	0.001024
956.1034	0.002289
956.3449	0.002057
956.5865	0.000012
956.8280	0.001994
957.0696	0.001088
957.3111	0.002078
957.5527	0.001636
957.7943	0.002184
958.0359	0.001425
958.2775	0.001130
958.5191	0.000307
958.7607	0.002121
959.0023	0.001551
959.2439	0.002142
959.4856	0.001298
959.7272	0.001130
959.9688	0.000582
960.2105	0.000518
960.4522	0.000982
960.6938	0.001572
960.9355	0.001889
961.1772	0.001910
961.4189	-0.000072
961.6606	-0.000262
961.9023	0.001277
962.1440	0.002205
962.3857	0.000413
962.6274	0.002458
962.8692	0.000898
963.1109	0.001488
963.3527	0.000687
963.5944	0.001109
963.8362	0.001825
964.0779	0.001088
964.3197	0.001509
964.5615	0.002374
964.8033	0.000286
965.0451	0.001277
965.2869	0.000835
965.5287	0.001931
965.7705	0.001488
966.0123	0.001678
966.2542	0.002437
966.4960	0.001214
966.7379	0.001024
966.9797	0.000434
967.2216	0.001172
967.4634	0.002542
967.7053	0.000434
967.9472	0.001446
968.1891	0.001277
968.4310	0.001235
968.6729	0.001952
968.9148	0.001636
969.1567	0.000666
969.3987	0.003955
969.6406	0.001846
969.8825	0.001024
970.1245	0.000982
970.3664	0.000813
970.6084	0.001720
970.8504	0.002690
971.0923	0.001488
971.3343	0.000307
971.5763	0.001109
971.8183	-0.000325
972.0603	0.000919
972.3023	0.000708
972.5443	0.001362
972.7864	0.001235
973.0284	-0.000494
973.2704	0.001446
973.5125	0.000350
973.7545	0.000792
973.9966	0.001088
974.2387	0.001615
974.4807	0.000729
974.7228	0.001868
974.9649	0.001256
975.2070	0.001277
975.4491	0.000076
975.6912	0.002268
975.9333	0.001425
976.1755	0.001425
976.4176	-0.000683
976.6597	0.002226
976.9019	0.000434
977.1440	0.001762
977.3862	0.001340
977.6283	0.000160
977.8705	0.000666
978.1127	0.001298
978.3549	0.001931
978.5971	0.001804
978.8393	0.001530
979.0815	0.000118
979.3237	0.001088
979.5659	0.000286
979.8082	-0.000536
980.0504	0.000371
980.2926	0.000603
980.5349	0.002099
980.7771	-0.000199
981.0194	0.000560
981.2617	0.001551
981.5040	0.001425
981.7462	0.001256
981.9885	0.001636
982.2308	0.001340
982.4731	0.001256
982.7155	0.001825
982.9578	0.000898
983.2001	0.001572
983.4424	0.001572
983.6848	0.001235
983.9271	0.001467
984.1695	0.000118
984.4118	0.001235
984.6542	0.002121
984.8966	0.001973
985.1390	0.001088
985.3814	0.001193
985.6238	0.000856
985.8662	0.001383
986.1086	0.001615
986.3510	0.002437
986.5934	0.000729
986.8358	0.000560
987.0783	-0.001000
987.3207	0.001825
987.5632	-0.000515
987.8056	0.002500
988.0481	0.002858
988.2906	0.001804
988.5331	0.000708
988.7756	0.001277
989.0180	0.000898
989.2605	0.001868
989.5031	0.000835
989.7456	0.002521
989.9881	0.001551
990.2306	0.001066
990.4732	0.001446
990.7157	0.000160
990.9582	0.000750
991.2008	0.002858
991.4434	0.000202
991.6859	0.002036
991.9285	-0.001042
992.1711	-0.000515
992.4137	-0.000114
992.6563	0.000392
992.8989	0.000624
993.1415	0.001003
993.3841	0.001615
993.6267	0.000181
993.8694	0.000160
994.1120	0.000624
994.3547	0.000666
994.5973	0.001172
994.8400	-0.000051
995.0826	0.001572
995.3253	0.001425
995.5680	0.002690
995.8107	-0.000199
996.0534	0.000476
996.2961	0.001298
996.5388	0.001952
996.7815	0.000223
997.0242	0.001572
997.2670	0.001572
997.5097	0.000771
997.7524	0.001362
997.9952	0.001636
998.2379	-0.000114
998.4807	0.002142
998.7235	-0.000367
998.9662	0.001130
999.2090	0.001256
999.4518	0.002542
999.6946	0.001383
999.9374	0.000539
1000.1802	0.002331
1000.4230	0.000329
1000.6659	0.000771
1000.9087	-0.000156
1001.1515	0.000877
1001.3944	0.000223
1001.6372	0.002205
1001.8801	0.001109
1002.1230	0.001825
1002.3658	0.000202
1002.6087	0.000919
1002.8516	0.001298
1003.0945	0.001636
1003.3374	0.000160
1003.5803	0.001931
1003.8232	0.000160
1004.0661	0.001425
1004.3091	-0.001189
1004.5520	0.001045
1004.7949	0.000539
1005.0379	0.001868
1005.2808	0.001319
1005.5238	0.001088
1005.7667	0.000054
1006.0097	0.001193
1006.2527	-0.000093
1006.4957	0.001088
1006.7387	0.001678
1006.9817	0.001636
1007.2247	0.000835
1007.4677	0.001003
1007.7107	0.001214
1007.9538	0.001024
1008.1968	-0.000072
1008.4398	0.001615
1008.6829	0.001193
1008.9259	0.000582
1009.1690	0.000666
1009.4121	0.001214
1009.6551	0.001277
1009.8982	0.000371
1010.1413	0.000350
1010.3844	0.001615
1010.6275	0.000012
1010.8706	0.001193
1011.1137	0.001467
1011.3568	0.001298
1011.6000	0.001319
1011.8431	0.000792
1012.0863	0.001130
1012.3294	0.002605
1012.5726	0.001151
1012.8157	0.001256
1013.0589	0.000898
1013.3021	0.000139
1013.5452	0.001910
1013.7884	0.002858
1014.0316	-0.000156
1014.2748	0.001425
1014.5180	0.001657
1014.7613	0.001193
1015.0045	0.000687
1015.2477	0.000666
1015.4909	0.000961
1015.7342	0.001088
1015.9774	0.001678
1016.2207	0.000033
1016.4640	0.000265
1016.7072	0.001868
1016.9505	0.000940
1017.1938	0.001088
1017.4371	0.000033
1017.6804	0.001699
1017.9237	0.001193
1018.1670	0.001024
1018.4103	0.000307
1018.6536	0.000582
1018.8969	-0.000747
1019.1403	0.000792
1019.3836	-0.000093
1019.6270	0.002142
1019.8703	-0.000515
1020.1137	0.001804
1020.3571	0.001446
1020.6004	0.000898
1020.8438	0.001298
1021.0872	0.001256
1021.3306	0.000961
1021.5740	0.000603
1021.8174	-0.000135
1022.0608	0.000835
1022.3042	-0.001000
1022.5477	-0.000452
1022.7911	-0.000051
1023.0345	0.001003
