# Wavelength (nm)	Intensity (a.u.)
197.7802	0.000731
197.9842	-0.001357
198.1882	0.000056
198.3922	-0.000366
198.5963	-0.000134
198.8003	0.000225
199.0044	0.001006
199.2085	0.000478
199.4126	-0.000724
199.6168	0.000098
199.8209	0.000731
200.0251	0.000394
200.2292	-0.000134
200.4334	-0.001146
200.6376	-0.000091
200.8418	-0.000113
201.0461	0.000014
201.2503	0.000563
201.4546	-0.000851
201.6589	0.000077
201.8631	0.001322
202.0674	0.000141
202.2718	0.000141
202.4761	-0.000746
202.6805	0.001132
202.8848	0.000141
203.0892	-0.000661
203.2936	-0.001020
203.4980	0.000774
203.7024	0.001132
203.9069	-0.000492
204.1113	-0.000598
204.3158	0.000056
204.5203	-0.001357
204.7248	-0.000577
204.9293	-0.000661
205.1338	-0.000134
205.3384	-0.000471
205.5430	0.001280
205.7475	-0.000049
205.9521	0.000647
206.1567	0.000436
206.3614	0.000753
206.5660	0.000267
206.7706	-0.000914
206.9753	-0.001484
207.1800	0.000499
207.3847	0.000499
207.5894	-0.000134
207.7941	-0.000155
207.9989	0.000352
208.2036	0.000162
208.4084	-0.001231
208.6132	0.001111
208.8180	0.000478
209.0228	0.001196
209.2276	0.000520
209.4325	0.000267
209.6373	0.001639
209.8422	-0.000682
210.0471	0.000668
210.2520	0.000373
210.4569	0.000520
210.6618	-0.000619
210.8668	-0.000134
211.0718	0.000436
211.2767	0.001428
211.4817	-0.000155
211.6867	0.000900
211.8918	-0.000450
212.0968	0.000753
212.3018	-0.001442
212.5069	0.001576
212.7120	-0.001041
212.9171	0.000415
213.1222	-0.000872
213.3273	0.000710
213.5325	-0.000703
213.7376	0.000731
213.9428	-0.000345
214.1480	0.000837
214.3532	-0.000640
214.5584	0.000499
214.7636	0.000331
214.9689	0.001006
215.1741	-0.001653
215.3794	0.000774
215.5847	0.000499
215.7900	0.000731
215.9953	-0.001484
216.2007	0.000267
216.4060	-0.000830
216.6114	0.000520
216.8168	0.001301
217.0222	0.000225
217.2276	0.000309
217.4330	0.000352
217.6384	-0.000893
217.8439	0.000499
218.0494	-0.000577
218.2548	0.000879
218.4603	-0.000429
218.6659	0.000098
218.8714	0.000499
219.0769	-0.000366
219.2825	-0.000260
219.4881	0.000120
219.6936	0.000499
219.8992	0.001787
220.1049	0.000647
220.3105	0.000900
220.5161	0.000394
220.7218	0.000288
220.9275	-0.000281
221.1332	0.000204
221.3389	-0.000176
221.5446	-0.000091
221.7503	-0.001379
221.9561	0.001027
222.1618	-0.000091
222.3676	0.001259
222.5734	-0.000661
222.7792	-0.000513
222.9850	0.000077
223.1909	0.001048
223.3967	0.000183
223.6026	0.000436
223.8085	0.000373
224.0144	-0.000155
224.2203	-0.001273
224.4262	0.000098
224.6322	-0.000345
224.8381	0.000647
225.0441	-0.000070
225.2501	-0.000028
225.4561	-0.000134
225.6621	-0.000324
225.8681	-0.000492
226.0742	-0.000830
226.2802	0.000731
226.4863	0.000204
226.6924	-0.000281
226.8985	0.000731
227.1046	-0.000113
227.3107	0.000098
227.5169	-0.000239
227.7230	0.000499
227.9292	0.000014
228.1354	0.000605
228.3416	-0.000007
228.5478	0.000331
228.7541	0.000014
228.9603	-0.000893
229.1666	0.000373
229.3729	-0.000851
229.5791	0.000394
229.7855	-0.000408
229.9918	-0.001336
230.1981	-0.000218
230.4045	-0.001104
230.6108	-0.000049
230.8172	0.001111
231.0236	0.000035
231.2300	0.000478
231.4364	-0.000197
231.6429	-0.000113
231.8493	-0.000872
232.0558	-0.000366
232.2623	0.000605
232.4688	0.000035
232.6753	0.000014
232.8818	0.000478
233.0884	0.000077
233.2949	-0.001906
233.5015	-0.001948
233.7081	-0.001041
233.9147	-0.000070
234.1213	0.000689
234.3279	0.001006
234.5346	0.000352
234.7413	-0.000577
234.9479	0.001111
235.1546	0.002082
235.3613	0.000352
235.5680	0.000120
235.7748	0.000837
235.9815	0.000246
236.1883	-0.000197
236.3951	0.000563
236.6018	0.000098
236.8087	-0.000113
237.0155	-0.000492
237.2223	0.000056
237.4292	-0.000914
237.6360	0.000014
237.8429	-0.000345
238.0498	0.000056
238.2567	-0.001357
238.4636	0.002061
238.6706	-0.000070
238.8775	-0.000134
239.0845	-0.000070
239.2915	-0.000661
239.4985	-0.000935
239.7055	0.000309
239.9125	-0.000809
240.1195	-0.000091
240.3266	0.000183
240.5337	0.000288
240.7407	0.000795
240.9478	0.001217
241.1549	-0.000176
241.3621	0.000183
241.5692	-0.000007
241.7764	0.000879
241.9835	-0.000767
242.1907	-0.000155
242.3979	0.001069
242.6051	0.001175
242.8124	0.000246
243.0196	0.000605
243.2269	0.000035
243.4341	0.001048
243.6414	-0.000260
243.8487	0.000331
244.0560	0.000309
244.2634	0.000647
244.4707	0.000900
244.6781	0.001322
244.8854	0.000373
245.0928	-0.000028
245.3002	-0.000535
245.5076	-0.000260
245.7151	-0.001547
245.9225	-0.000113
246.1300	-0.000387
246.3375	-0.000366
246.5449	-0.000788
246.7524	0.000077
246.9600	0.000964
247.1675	-0.001041
247.3750	0.000731
247.5826	0.000774
247.7902	-0.000155
247.9978	0.000731
248.2054	0.001090
248.4130	0.001428
248.6206	0.000774
248.8283	0.000415
249.0359	0.000183
249.2436	0.000120
249.4513	-0.001231
249.6590	-0.000281
249.8667	0.001280
250.0745	-0.000767
250.2822	-0.000957
250.4900	0.000415
250.6978	0.000415
250.9056	0.001407
251.1134	-0.000366
251.3212	0.000415
251.5290	-0.001336
251.7369	-0.000007
251.9447	0.001154
252.1526	0.000267
252.3605	0.000056
252.5684	-0.000028
252.7763	-0.000872
252.9843	0.000415
253.1922	0.001027
253.4002	0.000478
253.6082	-0.000809
253.8162	0.000900
254.0242	-0.000598
254.2322	0.001681
254.4402	0.000985
254.6483	0.000141
254.8564	-0.000471
255.0644	0.000246
255.2725	-0.000281
255.4806	0.000014
255.6888	0.000731
255.8969	-0.000049
256.1051	-0.001505
256.3132	0.000309
256.5214	0.000943
256.7296	-0.001041
256.9378	-0.000851
257.1460	0.000098
257.3543	-0.001041
257.5625	0.000415
257.7708	0.000520
257.9791	0.000943
258.1874	-0.000724
258.3957	0.002272
258.6040	0.000056
258.8124	0.000309
259.0207	0.000141
259.2291	0.001217
259.4375	-0.000049
259.6459	-0.000513
259.8543	-0.000429
260.0627	0.001027
260.2711	-0.001041
260.4796	0.000162
260.6881	-0.000492
260.8965	0.000225
261.1050	0.000288
261.3135	-0.000028
261.5221	-0.000387
261.7306	0.000014
261.9392	-0.001104
262.1477	-0.000809
262.3563	-0.001252
262.5649	-0.000577
262.7735	-0.000345
262.9822	0.000563
263.1908	0.000731
263.3995	0.000183
263.6081	0.000225
263.8168	0.000689
264.0255	-0.001611
264.2342	0.000056
264.4429	-0.000682
264.6517	0.001533
264.8604	-0.000197
265.0692	0.000077
265.2780	-0.000176
265.4868	0.000246
265.6956	-0.000239
265.9044	0.001069
266.1133	0.001343
266.3221	-0.000113
266.5310	-0.000471
266.7399	0.000478
266.9488	-0.001315
267.1577	0.000014
267.3666	-0.000049
267.5755	0.000710
267.7845	-0.000281
267.9935	0.001365
268.2024	-0.000914
268.4114	0.000288
268.6205	-0.000049
268.8295	0.000183
269.0385	-0.000830
269.2476	0.000120
269.4566	-0.000091
269.6657	-0.001020
269.8748	0.001175
270.0839	0.001322
270.2931	0.000098
270.5022	0.000394
270.7114	0.001154
270.9205	0.001006
271.1297	0.000098
271.3389	0.000605
271.5481	0.000394
271.7573	-0.000134
271.9666	0.000584
272.1758	-0.000239
272.3851	-0.000218
272.5944	-0.000197
272.8037	0.000964
273.0130	0.001407
273.2223	-0.000450
273.4316	-0.000429
273.6410	-0.001590
273.8504	0.000520
274.0597	0.000584
274.2691	-0.002012
274.4785	0.000668
274.6880	0.000457
274.8974	0.000077
275.1069	0.000795
275.3163	-0.000893
275.5258	-0.000113
275.7353	0.000141
275.9448	-0.000619
276.1543	-0.000239
276.3639	0.000288
276.5734	0.001449
276.7830	0.001301
276.9926	0.000204
277.2022	0.001322
277.4118	0.000225
277.6214	-0.000281
277.8310	0.000141
278.0407	0.000141
278.2503	-0.000619
278.4600	-0.000809
278.6697	-0.000091
278.8794	0.000246
279.0891	0.000542
279.2989	0.001217
279.5086	-0.000134
279.7184	0.000943
279.9281	0.000141
280.1379	0.000985
280.3477	-0.000619
280.5576	0.000837
280.7674	0.000056
280.9772	0.000056
281.1871	0.001006
281.3970	-0.000872
281.6069	0.001470
281.8168	0.000964
282.0267	0.000457
282.2366	0.000900
282.4466	-0.000345
282.6565	-0.000387
282.8665	-0.000450
283.0765	0.000120
283.2865	-0.000218
283.4965	-0.000197
283.7065	-0.000408
283.9166	0.000309
284.1266	0.000352
284.3367	-0.000070
284.5468	-0.000176
284.7569	0.000710
284.9670	0.000077
285.1771	0.000731
285.3873	0.000373
285.5974	0.001301
285.8076	0.000731
286.0178	-0.000218
286.2280	-0.000387
286.4382	-0.000176
286.6484	-0.001463
286.8587	-0.000007
287.0689	-0.000366
287.2792	0.000774
287.4895	-0.000070
287.6998	-0.000218
287.9101	0.000014
288.1204	0.000415
288.3308	-0.000239
288.5411	-0.000028
288.7515	0.000900
288.9619	0.001006
289.1723	0.000141
289.3827	-0.000513
289.5931	0.000141
289.8035	0.001132
290.0140	0.000668
290.2245	-0.000028
290.4349	-0.000830
290.6454	-0.000239
290.8559	0.000035
291.0665	-0.000957
291.2770	0.000373
291.4875	0.000415
291.6981	-0.000281
291.9087	-0.000746
292.1193	-0.001125
292.3299	0.001090
292.5405	0.000077
292.7511	-0.000535
292.9618	0.000816
293.1724	0.000647
293.3831	0.000373
293.5938	-0.000513
293.8045	-0.000619
294.0152	-0.000366
294.2260	-0.000176
294.4367	0.001533
294.6475	0.002061
294.8582	0.000520
295.0690	-0.000239
295.2798	0.001787
295.4906	0.000225
295.7015	-0.000661
295.9123	-0.000598
296.1232	-0.000408
296.3340	-0.000788
296.5449	0.000858
296.7558	0.000288
296.9667	-0.001294
297.1777	0.000288
297.3886	-0.000197
297.5995	-0.001716
297.8105	0.000056
298.0215	-0.000598
298.2325	-0.000387
298.4435	0.000731
298.6545	0.000014
298.8656	-0.000408
299.0766	-0.000007
299.2877	-0.001062
299.4988	-0.001020
299.7099	-0.001273
299.9210	0.001090
300.1321	-0.000598
300.3432	-0.000028
300.5544	0.000098
300.7655	-0.000070
300.9767	-0.000535
301.1879	0.000246
301.3991	0.001154
301.6103	-0.000155
301.8215	-0.000830
302.0328	0.000520
302.2441	0.000225
302.4553	-0.000492
302.6666	0.001259
302.8779	-0.001083
303.0892	-0.000450
303.3006	0.001259
303.5119	0.000774
303.7233	0.000753
303.9346	0.000098
304.1460	0.000858
304.3574	-0.000577
304.5688	0.000246
304.7803	-0.000366
304.9917	0.000478
305.2031	-0.000598
305.4146	0.001069
305.6261	0.000499
305.8376	-0.000366
306.0491	-0.000935
306.2606	0.001976
306.4722	0.000162
306.6837	-0.000028
306.8953	-0.000429
307.1069	0.001259
307.3184	-0.000999
307.5301	-0.000028
307.7417	0.000647
307.9533	-0.000830
308.1650	0.000077
308.3766	0.000668
308.5883	0.000436
308.8000	-0.000682
309.0117	0.001027
309.2234	0.000056
309.4351	0.002272
309.6469	0.000056
309.8586	-0.000239
310.0704	0.000647
310.2822	-0.000218
310.4940	0.001090
310.7058	-0.001189
310.9176	0.000563
311.1295	-0.001146
311.3413	0.000077
311.5532	0.000964
311.7651	-0.000281
311.9770	0.000710
312.1889	0.000331
312.4008	0.000520
312.6127	0.000436
312.8247	0.001006
313.0366	-0.000113
313.2486	0.000373
313.4606	0.000753
313.6726	0.000246
313.8846	0.000436
314.0967	-0.000239
314.3087	-0.000091
314.5208	-0.001252
314.7328	0.000352
314.9449	0.000014
315.1570	0.000077
315.3692	0.000605
315.5813	0.001386
315.7934	-0.000957
316.0056	0.001280
316.2177	0.000478
316.4299	0.001259
316.6421	0.000246
316.8543	0.001090
317.0666	-0.000788
317.2788	0.000394
317.4911	-0.000682
317.7033	-0.000830
317.9156	-0.000366
318.1279	-0.000682
318.3402	0.000056
318.5525	0.000816
318.7649	-0.001231
318.9772	-0.000113
319.1896	0.000710
319.4019	0.001428
319.6143	-0.000513
319.8267	-0.000197
320.0392	0.000331
320.2516	0.000436
320.4640	0.000478
320.6765	0.000689
320.8890	-0.000387
321.1014	-0.000598
321.3139	-0.000471
321.5265	0.001132
321.7390	0.000098
321.9515	-0.000007
322.1641	-0.000914
322.3766	-0.000914
322.5892	0.000499
322.8018	0.001132
323.0144	-0.000661
323.2270	0.001449
323.4397	0.001027
323.6523	0.000584
323.8650	0.000225
324.0777	-0.000260
324.2904	0.000584
324.5031	0.000753
324.7158	0.000457
324.9285	0.001386
325.1412	-0.001969
325.3540	0.000288
325.5668	-0.000492
325.7796	0.001069
325.9924	0.000858
326.2052	-0.000070
326.4180	-0.000197
326.6308	0.000626
326.8437	0.000816
327.0566	-0.000872
327.2694	-0.000703
327.4823	-0.000049
327.6952	0.000415
327.9082	0.002019
328.1211	0.000584
328.3340	0.000162
328.5470	0.000499
328.7600	-0.000978
328.9730	0.000352
329.1860	0.001301
329.3990	0.000626
329.6120	-0.000113
329.8251	0.000415
330.0381	-0.001379
330.2512	-0.000387
330.4643	0.000141
330.6774	-0.000619
330.8905	0.000204
331.1036	-0.000366
331.3167	0.001238
331.5299	-0.001379
331.7431	0.000183
331.9562	-0.000007
332.1694	0.001322
332.3826	0.000056
332.5959	-0.000113
332.8091	-0.000577
333.0223	0.000394
333.2356	0.000331
333.4489	0.000858
333.6622	0.000035
333.8755	-0.000007
334.0888	-0.001252
334.3021	0.000246
334.5154	-0.000324
334.7288	0.000478
334.9422	0.000436
335.1555	0.001322
335.3689	-0.001379
335.5823	-0.000070
335.7958	-0.000197
336.0092	0.000394
336.2227	-0.000155
336.4361	0.000077
336.6496	-0.001125
336.8631	0.001238
337.0766	-0.000851
337.2901	0.000626
337.5036	0.000309
337.7172	-0.001062
337.9307	0.000141
338.1443	0.000162
338.3579	0.000331
338.5715	0.000542
338.7851	-0.000830
338.9987	-0.000746
339.2124	0.000225
339.4260	-0.000324
339.6397	-0.000155
339.8533	-0.000640
340.0670	-0.000070
340.2807	0.001238
340.4945	0.000288
340.7082	0.001554
340.9219	-0.000028
341.1357	-0.000387
341.3495	0.001259
341.5633	-0.000746
341.7771	-0.000535
341.9909	-0.000049
342.2047	-0.000134
342.4185	0.000309
342.6324	-0.000239
342.8463	0.000921
343.0601	-0.001336
343.2740	-0.000260
343.4879	0.000647
343.7019	0.001892
343.9158	-0.000682
344.1297	0.000436
344.3437	-0.000703
344.5577	0.000943
344.7717	0.000162
344.9857	-0.001231
345.1997	0.000563
345.4137	0.000436
345.6277	-0.000302
345.8418	0.000542
346.0559	0.001322
346.2699	0.000352
346.4840	-0.001168
346.6981	0.000373
346.9123	0.000204
347.1264	-0.001801
347.3406	0.000183
347.5547	0.000668
347.7689	-0.000682
347.9831	0.000710
348.1973	-0.000113
348.4115	0.000098
348.6257	-0.000724
348.8400	-0.000070
349.0542	0.000225
349.2685	-0.000703
349.4828	0.000689
349.6971	-0.000028
349.9114	0.000267
350.1257	0.000710
350.3400	0.000985
350.5544	0.000457
350.7687	0.000563
350.9831	-0.000830
351.1975	0.000309
351.4119	0.001217
351.6263	-0.000619
351.8407	0.001681
352.0552	-0.000281
352.2696	0.000183
352.4841	0.000162
352.6986	0.000879
352.9131	-0.000577
353.1276	-0.000408
353.3421	-0.000619
353.5566	0.000689
353.7712	0.000331
353.9858	-0.000218
354.2003	-0.000450
354.4149	0.001470
354.6295	-0.000366
354.8441	-0.001189
355.0588	0.000605
355.2734	0.000035
355.4881	-0.000872
355.7027	-0.000746
355.9174	-0.000155
356.1321	0.002209
356.3468	-0.000007
356.5615	-0.000450
356.7763	0.000183
356.9910	0.000014
357.2058	-0.000619
357.4206	-0.000366
357.6353	0.000879
357.8501	-0.000070
358.0650	0.000668
358.2798	0.001090
358.4946	-0.000788
358.7095	0.000394
358.9243	0.000225
359.1392	-0.000007
359.3541	-0.001189
359.5690	-0.000429
359.7839	-0.001379
359.9989	0.000225
360.2138	-0.000556
360.4288	0.000014
360.6438	0.000141
360.8587	0.001027
361.0737	-0.000387
361.2888	0.000246
361.5038	0.001196
361.7188	-0.000471
361.9339	0.000394
362.1489	0.001006
362.3640	-0.000788
362.5791	0.000795
362.7942	0.000647
363.0093	-0.001062
363.2245	0.000309
363.4396	-0.000577
363.6548	-0.000408
363.8699	0.000837
364.0851	0.000668
364.3003	0.000985
364.5155	-0.000281
364.7308	0.000331
364.9460	-0.000239
365.1612	-0.000556
365.3765	-0.001336
365.5918	0.001343
365.8071	0.000415
366.0224	0.000795
366.2377	0.000605
366.4530	0.000626
366.6684	-0.000535
366.8837	0.000900
367.0991	-0.000197
367.3145	-0.000450
367.5299	-0.000176
367.7453	0.000373
367.9607	0.000520
368.1761	0.000900
368.3916	0.000309
368.6070	0.000331
368.8225	-0.000260
369.0380	-0.000049
369.2535	0.000056
369.4690	0.000499
369.6845	-0.000957
369.9001	-0.000049
370.1156	-0.000746
370.3312	-0.000661
370.5468	-0.000851
370.7624	0.000035
370.9780	-0.000492
371.1936	-0.000239
371.4092	0.000225
371.6249	0.001154
371.8405	0.000457
372.0562	0.001175
372.2719	-0.000535
372.4876	0.000436
372.7033	-0.000577
372.9190	-0.000091
373.1348	0.001681
373.3505	0.000120
373.5663	0.001238
373.7820	-0.000450
373.9978	-0.000345
374.2136	0.000731
374.4294	-0.000260
374.6453	0.000246
374.8611	0.000077
375.0770	0.000225
375.2928	-0.000535
375.5087	0.000415
375.7246	-0.000935
375.9405	-0.000682
376.1564	0.000985
376.3724	-0.000007
376.5883	-0.000070
376.8043	0.000478
377.0203	-0.000935
377.2362	-0.000113
377.4522	-0.000767
377.6682	0.000309
377.8843	-0.000788
378.1003	-0.000324
378.3164	-0.000176
378.5324	-0.000155
378.7485	-0.000513
378.9646	-0.001020
379.1807	0.001280
379.3968	-0.000324
379.6129	-0.000809
379.8291	0.000731
380.0452	-0.000028
380.2614	0.002040
380.4776	-0.000218
380.6938	0.001196
380.9100	-0.000492
381.1262	0.000035
381.3424	-0.000176
381.5587	0.000394
381.7749	0.000457
381.9912	-0.000535
382.2075	0.000499
382.4238	0.000647
382.6401	-0.001168
382.8564	-0.000324
383.0728	-0.000914
383.2891	-0.000302
383.5055	0.000098
383.7219	0.000331
383.9382	-0.000218
384.1546	-0.000450
384.3711	0.000520
384.5875	0.001259
384.8039	0.000288
385.0204	0.001449
385.2368	-0.001611
385.4533	0.001512
385.6698	0.001132
385.8863	-0.000239
386.1028	-0.000007
386.3194	0.001428
386.5359	-0.000049
386.7525	0.000394
386.9690	-0.000556
387.1856	0.000352
387.4022	0.001343
387.6188	0.001913
387.8355	-0.000492
388.0521	0.000943
388.2687	0.001618
388.4854	0.001111
388.7021	0.000204
388.9188	0.001407
389.1355	0.001154
389.3522	0.000563
389.5689	0.001006
389.7856	0.001576
390.0024	0.001090
390.2192	0.001639
390.4359	0.002272
390.6527	0.002124
390.8695	0.001660
391.0863	0.002736
391.3032	0.002694
391.5200	0.002483
391.7369	0.002187
391.9537	0.003833
392.1706	0.001660
392.3875	0.002462
392.6044	0.002124
392.8213	0.003517
393.0383	0.002947
393.2552	0.003200
393.4722	0.003728
393.6891	0.004108
393.9061	0.003031
394.1231	0.002926
394.3401	0.003242
394.5572	0.005416
394.7742	0.005521
394.9912	0.004445
395.2083	0.004234
395.4254	0.003981
395.6425	0.003643
395.8596	0.004973
396.0767	0.003707
396.2938	0.006386
396.5109	0.005353
396.7281	0.005922
396.9453	0.005732
397.1624	0.005796
397.3796	0.006661
397.5968	0.006260
397.8140	0.006703
398.0313	0.007990
398.2485	0.007336
398.4658	0.008686
398.6830	0.008919
398.9003	0.007716
399.1176	0.008412
399.3349	0.008328
399.5522	0.009024
399.7696	0.009277
399.9869	0.009341
400.2043	0.008497
400.4216	0.009784
400.6390	0.008117
400.8564	0.009615
401.0738	0.010965
401.2912	0.009298
401.5087	0.008454
401.7261	0.007990
401.9436	0.009763
402.1610	0.009362
402.3785	0.010079
402.5960	0.010353
402.8135	0.010311
403.0310	0.011408
403.2486	0.011472
403.4661	0.010691
403.6837	0.011324
403.9013	0.011219
404.1189	0.010839
404.3365	0.010670
404.5541	0.012189
404.7717	0.012653
404.9893	0.012464
405.2070	0.011303
405.4246	0.012822
405.6423	0.012928
405.8600	0.012421
406.0777	0.014426
406.2954	0.014152
406.5131	0.012970
406.7309	0.011957
406.9486	0.012041
407.1664	0.012611
407.3842	0.013434
407.6020	0.013160
407.8198	0.011197
408.0376	0.013835
408.2554	0.011619
408.4733	0.013455
408.6911	0.014996
408.9090	0.013118
409.1269	0.013603
409.3448	0.013033
409.5627	0.013139
409.7806	0.015207
409.9985	0.014742
410.2165	0.015481
410.4344	0.013730
410.6524	0.014975
410.8704	0.016051
411.0884	0.014552
411.3064	0.015143
411.5244	0.015692
411.7424	0.015502
411.9605	0.014996
412.1785	0.013160
412.3966	0.014363
412.6147	0.016367
412.8328	0.017127
413.0509	0.016831
413.2690	0.016620
413.4871	0.015966
413.7053	0.015586
413.9234	0.016093
414.1416	0.016705
414.3598	0.014152
414.5780	0.017865
414.7962	0.016494
415.0144	0.017190
415.2326	0.017865
415.4509	0.016684
415.6692	0.016346
415.8874	0.015713
416.1057	0.016051
416.3240	0.016874
416.5423	0.018055
416.7606	0.017549
416.9790	0.017085
417.1973	0.018013
417.4157	0.017042
417.6341	0.017106
417.8524	0.017380
418.0708	0.016008
418.2893	0.018625
418.5077	0.016536
418.7261	0.016663
418.9446	0.018857
419.1630	0.017021
419.3815	0.018034
419.6000	0.016789
419.8185	0.017802
420.0370	0.017612
420.2555	0.017317
420.4741	0.017865
420.6926	0.020904
420.9112	0.021727
421.1298	0.019870
421.3483	0.021811
421.5669	0.020735
421.7856	0.022571
422.0042	0.023330
422.2228	0.022824
422.4415	0.022001
422.6601	0.022254
422.8788	0.022529
423.0975	0.021410
423.3162	0.023246
423.5349	0.021495
423.7536	0.020883
423.9724	0.020102
424.1911	0.021073
424.4099	0.021115
424.6287	0.019743
424.8475	0.020672
425.0663	0.021790
425.2851	0.020461
425.5039	0.021811
425.7228	0.021853
425.9416	0.019448
426.1605	0.021052
426.3793	0.019342
426.5982	0.019553
426.8171	0.018730
427.0361	0.018815
427.2550	0.021326
427.4739	0.020271
427.6929	0.023288
427.9118	0.019996
428.1308	0.019258
428.3498	0.020355
428.5688	0.021537
428.7878	0.020798
429.0068	0.020102
429.2259	0.020039
429.4449	0.020988
429.6640	0.024364
429.8831	0.025061
430.1022	0.025588
430.3213	0.024048
430.5404	0.025546
430.7595	0.024618
430.9787	0.021769
431.1978	0.024364
431.4170	0.021621
431.6362	0.022296
431.8553	0.019849
432.0745	0.019975
432.2938	0.020418
432.5130	0.020777
432.7322	0.019279
432.9515	0.019152
433.1707	0.018562
433.3900	0.019363
433.6093	0.019722
433.8286	0.021284
434.0479	0.022107
434.2673	0.024343
434.4866	0.022149
434.7059	0.021178
434.9253	0.021663
435.1447	0.022191
435.3641	0.020334
435.5835	0.021094
435.8029	0.020461
436.0223	0.019954
436.2418	0.018963
436.4612	0.021073
436.6807	0.020798
436.9001	0.021452
437.1196	0.024090
437.3391	0.021431
437.5586	0.020672
437.7782	0.019975
437.9977	0.021727
438.2173	0.021368
438.4368	0.019638
438.6564	0.022444
438.8760	0.021368
439.0956	0.021685
439.3152	0.021115
439.5348	0.023288
439.7545	0.020946
439.9741	0.021706
440.1938	0.021073
440.4135	0.020397
440.6331	0.019617
440.8528	0.022465
441.0725	0.020735
441.2923	0.023752
441.5120	0.024871
441.7318	0.027403
441.9515	0.027150
442.1713	0.026221
442.3911	0.025651
442.6109	0.026158
442.8307	0.022128
443.0505	0.024533
443.2703	0.023330
443.4902	0.024723
443.7101	0.024364
443.9299	0.025419
444.1498	0.024744
444.3697	0.023288
444.5896	0.025356
444.8095	0.023436
445.0295	0.024596
445.2494	0.023520
445.4694	0.019807
445.6894	0.022613
445.9093	0.024280
446.1293	0.023225
446.3493	0.024238
446.5694	0.024153
446.7894	0.023605
447.0094	0.021600
447.2295	0.022275
447.4496	0.023162
447.6696	0.021157
447.8897	0.022803
448.1098	0.021241
448.3300	0.020967
448.5501	0.020545
448.7702	0.020250
448.9904	0.019722
449.2106	0.022676
449.4307	0.022402
449.6509	0.019680
449.8711	0.020144
450.0914	0.020672
450.3116	0.020946
450.5318	0.019596
450.7521	0.019828
450.9724	0.019764
451.1926	0.019996
451.4129	0.020608
451.6332	0.019047
451.8535	0.018287
452.0739	0.019216
452.2942	0.017697
452.5146	0.017549
452.7349	0.017718
452.9553	0.019005
453.1757	0.018963
453.3961	0.016979
453.6165	0.017591
453.8369	0.016684
454.0574	0.017296
454.2778	0.016473
454.4983	0.015629
454.7188	0.016895
454.9393	0.015966
455.1597	0.016620
455.3803	0.018119
455.6008	0.015819
455.8213	0.015819
456.0419	0.017085
456.2624	0.016979
456.4830	0.015017
456.7036	0.014848
456.9242	0.015734
457.1448	0.017253
457.3654	0.016030
457.5860	0.015291
457.8067	0.014975
458.0274	0.016515
458.2480	0.015671
458.4687	0.015523
458.6894	0.017697
458.9101	0.017992
459.1308	0.016452
459.3516	0.017063
459.5723	0.016430
459.7931	0.016219
460.0138	0.015375
460.2346	0.016810
460.4554	0.016620
460.6762	0.014510
460.8970	0.014004
461.1178	0.015270
461.3387	0.015101
461.5595	0.014996
461.7804	0.014257
462.0013	0.016008
462.2222	0.012379
462.4431	0.012886
462.6640	0.012147
462.8849	0.010142
463.1059	0.011366
463.3268	0.010754
463.5478	0.012464
463.7687	0.013497
463.9897	0.011197
464.2107	0.013772
464.4317	0.012991
464.6528	0.013793
464.8738	0.014257
465.0948	0.014785
465.3159	0.014025
465.5370	0.013561
465.7581	0.014827
465.9792	0.013265
466.2003	0.013540
466.4214	0.011852
466.6425	0.011809
466.8637	0.010944
467.0848	0.011556
467.3060	0.011978
467.5272	0.010480
467.7484	0.009699
467.9696	0.010417
468.1908	0.010016
468.4120	0.011408
468.6333	0.010227
468.8545	0.010396
469.0758	0.010860
469.2970	0.009003
469.5183	0.007906
469.7396	0.009130
469.9610	0.007821
470.1823	0.009172
470.4036	0.007906
470.6250	0.008117
470.8463	0.006408
471.0677	0.008159
471.2891	0.008286
471.5105	0.006344
471.7319	0.006576
471.9533	0.007547
472.1748	0.006386
472.3962	0.006408
472.6177	0.007420
472.8391	0.008117
473.0606	0.007420
473.2821	0.008032
473.5036	0.006682
473.7251	0.008665
473.9467	0.008032
474.1682	0.006323
474.3898	0.008075
474.6113	0.006745
474.8329	0.007631
475.0545	0.006598
475.2761	0.007610
475.4977	0.006302
475.7193	0.007505
475.9410	0.006302
476.1626	0.007589
476.3843	0.005964
476.6060	0.005732
476.8277	0.006028
477.0494	0.005606
477.2711	0.006766
477.4928	0.006450
477.7145	0.006175
477.9363	0.005606
478.1580	0.006893
478.3798	0.004635
478.6016	0.005964
478.8234	0.005859
479.0452	0.006745
479.2670	0.006112
479.4888	0.006724
479.7107	0.006070
479.9325	0.006154
480.1544	0.005964
480.3763	0.006429
480.5982	0.006260
480.8201	0.007442
481.0420	0.005943
481.2639	0.004867
481.4859	0.005711
481.7078	0.007631
481.9298	0.004044
482.1517	0.007737
482.3737	0.005500
482.5957	0.004762
482.8177	0.005057
483.0398	0.004846
483.2618	0.006260
483.4838	0.005331
483.7059	0.003939
483.9280	0.005564
484.1501	0.004698
484.3721	0.007252
484.5943	0.004382
484.8164	0.004635
485.0385	0.005057
485.2606	0.006281
485.4828	0.005585
485.7050	0.007948
485.9271	0.012168
486.1493	0.017464
486.3715	0.018055
486.5937	0.014004
486.8160	0.010754
487.0382	0.012210
487.2605	0.008328
487.4827	0.005986
487.7050	0.006386
487.9273	0.006049
488.1496	0.004108
488.3719	0.004213
488.5942	0.004888
488.8165	0.002989
489.0389	0.004698
489.2612	0.004720
489.4836	0.002673
489.7060	0.002694
489.9284	0.003791
490.1508	0.003453
490.3732	0.004572
490.5956	0.003327
490.8180	0.004002
491.0405	0.004108
491.2630	0.004530
491.4854	0.004846
491.7079	0.002019
491.9304	0.004171
492.1529	0.003664
492.3755	0.002209
492.5980	0.002757
492.8205	0.002082
493.0431	0.004044
493.2657	0.004065
493.4882	0.003791
493.7108	0.002884
493.9334	0.003791
494.1561	0.003432
494.3787	0.004108
494.6013	0.004530
494.8240	0.004065
495.0466	0.000837
495.2693	0.001407
495.4920	0.001998
495.7147	0.003031
495.9374	0.001808
496.1601	0.003179
496.3829	0.003242
496.6056	0.003559
496.8284	0.004213
497.0511	0.002778
497.2739	0.003749
497.4967	0.003031
497.7195	0.003264
497.9423	0.000710
498.1652	0.003707
498.3880	0.000605
498.6109	0.003116
498.8337	0.002082
499.0566	0.002187
499.2795	0.002462
499.5024	0.003876
499.7253	0.001554
499.9482	0.003179
500.1712	0.002483
500.3941	0.002314
500.6171	0.002272
500.8400	0.002905
501.0630	0.002736
501.2860	0.002757
501.5090	0.002694
501.7320	0.002863
501.9551	0.002293
502.1781	0.003749
502.4012	0.002715
502.6242	0.003264
502.8473	0.003686
503.0704	0.002441
503.2935	0.002209
503.5166	0.002947
503.7397	0.002673
503.9628	0.004614
504.1860	0.004867
504.4092	0.002251
504.6323	0.002631
504.8555	0.002504
505.0787	0.003242
505.3019	0.002335
505.5251	0.001808
505.7483	0.001850
505.9716	0.002799
506.1948	0.003242
506.4181	0.001913
506.6414	0.003770
506.8647	0.002652
507.0880	0.002715
507.3113	0.002968
507.5346	0.003179
507.7579	0.001597
507.9813	0.003221
508.2046	0.000753
508.4280	0.002293
508.6514	0.001829
508.8748	0.001343
509.0982	0.004087
509.3216	0.003158
509.5450	0.001407
509.7685	0.001196
509.9919	0.001259
510.2154	0.002420
510.4388	0.001808
510.6623	0.002673
510.8858	0.003158
511.1093	0.002673
511.3329	0.001006
511.5564	0.003791
511.7799	0.001681
512.0035	0.004044
512.2270	0.002272
512.4506	0.001343
512.6742	0.001554
512.8978	0.003285
513.1214	0.003812
513.3451	0.001892
513.5687	0.002124
513.7923	0.001280
514.0160	0.003095
514.2397	0.002715
514.4634	0.002588
514.6871	0.002019
514.9108	0.002736
515.1345	0.002251
515.3582	0.001533
515.5819	0.002884
515.8057	0.002736
516.0295	0.003854
516.2532	0.003095
516.4770	0.001554
516.7008	0.001998
516.9246	0.001723
517.1485	0.002293
517.3723	0.003158
517.5961	0.002715
517.8200	0.002546
518.0439	0.003306
518.2677	0.002609
518.4916	0.002525
518.7155	0.002546
518.9395	0.001829
519.1634	0.002652
519.3873	0.002736
519.6113	0.003242
519.8352	0.001597
520.0592	0.003791
520.2832	0.003095
520.5072	0.002968
520.7312	0.002947
520.9552	0.002314
521.1792	0.003411
521.4033	0.001744
521.6273	0.002272
521.8514	0.001829
522.0755	0.002187
522.2996	0.002145
522.5237	0.002884
522.7478	0.002187
522.9719	0.002483
523.1960	0.001090
523.4202	0.002124
523.6443	0.002462
523.8685	0.002799
524.0927	0.000816
524.3169	0.003854
524.5411	0.001576
524.7653	0.003475
524.9895	0.002842
525.2138	0.003538
525.4380	0.003728
525.6623	0.003264
525.8865	0.002631
526.1108	0.003221
526.3351	0.002757
526.5594	0.003116
526.7837	0.001386
527.0081	0.004150
527.2324	0.003538
527.4568	0.002968
527.6811	0.003601
527.9055	0.002968
528.1299	0.001871
528.3543	0.004487
528.5787	0.004129
528.8031	0.004065
529.0276	0.004466
529.2520	0.004234
529.4765	0.003432
529.7009	0.003200
529.9254	0.003517
530.1499	0.003749
530.3744	0.003897
530.5989	0.004298
530.8234	0.003686
531.0480	0.004108
531.2725	0.004192
531.4971	0.005142
531.7217	0.004108
531.9462	0.004888
532.1708	0.004551
532.3954	0.003517
532.6200	0.004445
532.8447	0.004551
533.0693	0.004720
533.2940	0.004909
533.5186	0.005310
533.7433	0.004614
533.9680	0.005732
534.1927	0.005922
534.4174	0.006977
534.6421	0.004530
534.8668	0.005732
535.0916	0.006893
535.3163	0.006471
535.5411	0.007463
535.7659	0.006471
535.9907	0.006471
536.2155	0.005226
536.4403	0.006281
536.6651	0.004635
536.8899	0.007378
537.1148	0.005226
537.3396	0.007568
537.5645	0.005500
537.7894	0.007357
538.0143	0.005753
538.2392	0.005289
538.4641	0.007252
538.6890	0.007294
538.9139	0.008433
539.1389	0.007336
539.3638	0.008370
539.5888	0.008286
539.8138	0.008159
540.0388	0.007758
540.2638	0.009172
540.4888	0.007125
540.7138	0.007399
540.9389	0.010185
541.1639	0.008813
541.3890	0.009341
541.6140	0.009151
541.8391	0.009277
542.0642	0.009657
542.2893	0.009657
542.5144	0.010543
542.7396	0.011113
542.9647	0.010944
543.1899	0.011577
543.4150	0.010586
543.6402	0.009320
543.8654	0.011219
544.0906	0.012041
544.3158	0.011725
544.5410	0.010818
544.7662	0.011240
544.9915	0.012886
545.2167	0.010818
545.4420	0.012864
545.6673	0.011324
545.8926	0.011915
546.1179	0.012041
546.3432	0.012949
546.5685	0.011430
546.7938	0.013160
547.0192	0.013856
547.2445	0.012189
547.4699	0.012907
547.6953	0.013919
547.9206	0.013476
548.1460	0.015776
548.3715	0.016895
548.5969	0.015502
548.8223	0.015207
549.0478	0.016262
549.2732	0.015207
549.4987	0.013814
549.7242	0.015375
549.9496	0.014742
550.1751	0.015629
550.4007	0.013371
550.6262	0.014595
550.8517	0.015776
551.0773	0.015565
551.3028	0.015586
551.5284	0.015418
551.7540	0.014574
551.9796	0.014827
552.2052	0.018752
552.4308	0.018308
552.6564	0.018984
552.8820	0.019807
553.1077	0.017464
553.3333	0.017802
553.5590	0.018920
553.7847	0.019300
554.0104	0.018372
554.2361	0.019785
554.4618	0.020735
554.6875	0.019406
554.9132	0.018604
555.1390	0.017359
555.3648	0.019975
555.5905	0.020693
555.8163	0.020102
556.0421	0.022043
556.2679	0.021241
556.4937	0.023394
556.7195	0.021157
556.9454	0.020566
557.1712	0.022339
557.3971	0.022444
557.6230	0.022275
557.8488	0.021769
558.0747	0.021748
558.3006	0.022444
558.5266	0.019743
558.7525	0.022022
558.9784	0.020186
559.2044	0.020651
559.4303	0.021874
559.6563	0.019427
559.8823	0.021769
560.1083	0.020397
560.3343	0.022951
560.5603	0.022275
560.7863	0.027361
561.0124	0.027593
561.2384	0.026496
561.4645	0.029196
561.6905	0.027888
561.9166	0.028226
562.1427	0.029661
562.3688	0.029513
562.5949	0.026939
562.8211	0.027846
563.0472	0.026158
563.2733	0.029007
563.4995	0.029534
563.7257	0.030948
563.9519	0.030399
564.1781	0.029998
564.4043	0.030948
564.6305	0.032615
564.8567	0.032910
565.0829	0.031095
565.3092	0.033775
565.5355	0.033100
565.7617	0.035843
565.9880	0.032551
566.2143	0.032467
566.4406	0.034767
566.6669	0.033184
566.8932	0.034830
567.1196	0.036181
567.3459	0.036750
567.5723	0.043060
567.7987	0.044537
568.0250	0.045381
568.2514	0.046246
568.4778	0.049664
568.7043	0.051078
568.9307	0.052196
569.1571	0.056226
569.3836	0.058843
569.6100	0.063949
569.8365	0.072031
570.0630	0.078509
570.2895	0.084037
570.5160	0.088215
570.7425	0.087034
570.9690	0.089671
571.1956	0.093026
571.4221	0.101762
571.6487	0.102965
571.8752	0.108999
572.1018	0.105602
572.3284	0.114865
572.5550	0.116954
572.7816	0.109084
573.0082	0.098618
573.2349	0.098386
573.4615	0.103028
573.6882	0.115414
573.9149	0.125838
574.1415	0.129151
574.3682	0.135017
574.5949	0.137929
574.8216	0.144892
575.0484	0.148015
575.2751	0.145609
575.5018	0.146496
575.7286	0.146411
575.9554	0.136726
576.1821	0.133329
576.4089	0.128201
576.6357	0.136135
576.8626	0.145103
577.0894	0.151180
577.3162	0.156666
577.5431	0.156075
577.7699	0.164558
577.9968	0.198446
578.2237	0.211612
578.4505	0.203024
578.6774	0.186671
578.9044	0.178337
579.1313	0.169432
579.3582	0.157067
579.5851	0.159409
579.8121	0.166752
580.0391	0.170740
580.2660	0.173526
580.4930	0.174665
580.7200	0.172365
580.9470	0.165697
581.1741	0.177176
581.4011	0.204206
581.6281	0.246893
581.8552	0.268437
582.0822	0.276139
582.3093	0.262887
582.5364	0.257570
582.7635	0.241132
582.9906	0.215389
583.2177	0.200197
583.4449	0.185595
583.6720	0.170086
583.8991	0.159894
584.1263	0.155316
584.3535	0.156983
584.5807	0.164452
584.8079	0.163271
585.0351	0.175952
585.2623	0.190069
585.4895	0.198530
585.7167	0.198129
585.9440	0.200408
586.1713	0.188760
586.3985	0.181417
586.6258	0.168989
586.8531	0.166605
587.0804	0.169263
587.3077	0.179265
587.5350	0.187199
587.7624	0.190469
587.9897	0.189330
588.2171	0.179708
588.4445	0.169453
588.6718	0.168039
588.8992	0.164199
589.1266	0.157130
589.3540	0.151328
589.5815	0.137929
589.8089	0.133898
590.0363	0.134785
590.2638	0.133434
590.4913	0.127252
590.7187	0.123517
590.9462	0.122420
591.1737	0.114887
591.4012	0.109358
591.6288	0.104948
591.8563	0.112376
592.0838	0.110287
592.3114	0.109189
592.5389	0.110308
592.7665	0.126766
592.9941	0.148732
593.2217	0.167575
593.4493	0.170719
593.6769	0.172154
593.9046	0.166415
594.1322	0.160717
594.3598	0.153881
594.5875	0.142676
594.8152	0.142613
595.0429	0.151117
595.2705	0.163292
595.4983	0.164579
595.7260	0.158417
595.9537	0.151074
596.1814	0.140841
596.4092	0.135397
596.6369	0.127399
596.8647	0.118347
597.0925	0.121132
597.3203	0.122019
597.5481	0.122905
597.7759	0.124087
598.0037	0.122356
598.2315	0.120014
598.4594	0.118685
598.6872	0.114844
598.9151	0.128665
599.1430	0.146285
599.3709	0.157932
599.5988	0.154957
599.8267	0.148606
600.0546	0.149365
600.2825	0.151053
600.5105	0.158523
600.7384	0.154007
600.9664	0.151222
601.1944	0.153860
601.4223	0.157341
601.6503	0.152889
601.8783	0.146327
602.1064	0.138920
602.3344	0.144491
602.5624	0.139448
602.7905	0.140440
603.0185	0.145778
603.2466	0.144006
603.4747	0.154619
603.7028	0.160190
603.9309	0.155738
604.1590	0.153353
604.3871	0.145715
604.6152	0.142550
604.8434	0.134975
605.0715	0.129531
605.2997	0.126576
605.5279	0.131598
605.7561	0.136684
605.9843	0.144428
606.2125	0.146622
606.4407	0.146432
606.6689	0.135291
606.8972	0.130227
607.1254	0.130079
607.3537	0.134130
607.5819	0.130586
607.8102	0.135692
608.0385	0.135017
608.2668	0.129615
608.4951	0.125163
608.7235	0.119824
608.9518	0.120056
609.1801	0.119423
609.4085	0.116385
609.6369	0.109485
609.8653	0.109928
610.0936	0.113156
610.3220	0.121765
610.5505	0.125479
610.7789	0.120605
611.0073	0.120035
611.2357	0.116469
611.4642	0.117250
611.6927	0.114085
611.9211	0.117271
612.1496	0.117883
612.3781	0.112418
612.6066	0.108366
612.8351	0.107923
613.0637	0.109021
613.2922	0.105708
613.5208	0.107016
613.7493	0.105455
613.9779	0.108788
614.2065	0.106953
614.4351	0.107459
614.6637	0.107586
614.8923	0.103555
615.1209	0.105855
615.3495	0.105687
615.5782	0.105687
615.8068	0.111321
616.0355	0.108831
616.2642	0.103999
616.4929	0.099082
616.7216	0.096170
616.9503	0.091929
617.1790	0.089903
617.4077	0.094820
617.6365	0.094398
617.8652	0.091465
618.0940	0.091233
618.3227	0.091233
618.5515	0.088679
618.7803	0.083974
619.0091	0.081484
619.2379	0.077348
619.4667	0.077053
619.6956	0.072094
619.9244	0.076124
620.1533	0.078171
620.3821	0.082497
620.6110	0.080513
620.8399	0.081906
621.0688	0.075280
621.2977	0.065574
621.5266	0.060510
621.7556	0.061248
621.9845	0.065025
622.2135	0.067980
622.4424	0.069815
622.6714	0.069457
622.9004	0.068022
623.1294	0.072622
623.3584	0.073782
623.5874	0.071947
623.8164	0.074078
624.0454	0.074732
624.2745	0.069984
624.5035	0.072200
624.7326	0.074268
624.9617	0.076462
625.1908	0.075344
625.4199	0.073128
625.6490	0.067959
625.8781	0.065806
626.1072	0.067579
626.3364	0.064435
626.5655	0.062789
626.7947	0.060088
627.0238	0.059877
627.2530	0.057957
627.4822	0.059328
627.7114	0.060004
627.9406	0.059159
628.1698	0.057345
628.3991	0.051753
628.6283	0.049601
628.8576	0.050993
629.0868	0.049116
629.3161	0.049622
629.5454	0.051690
629.7747	0.051795
630.0040	0.051795
630.2333	0.053293
630.4626	0.049221
630.6920	0.049960
630.9213	0.049559
631.1507	0.048377
631.3801	0.046204
631.6094	0.043397
631.8388	0.043967
632.0682	0.043819
632.2976	0.044410
632.5271	0.042110
632.7565	0.039135
632.9859	0.037848
633.2154	0.036561
633.4448	0.034683
633.6743	0.034218
633.9038	0.036666
634.1333	0.036117
634.3628	0.036265
634.5923	0.037215
634.8218	0.037130
635.0514	0.035252
635.2809	0.034282
635.5105	0.033290
635.7400	0.036265
635.9696	0.033839
636.1992	0.035632
636.4288	0.037088
636.6584	0.039156
636.8880	0.040633
637.1177	0.038249
637.3473	0.035780
637.5770	0.034451
637.8066	0.032826
638.0363	0.035189
638.2660	0.037067
638.4957	0.034915
638.7254	0.034767
638.9551	0.036687
639.1848	0.035759
639.4145	0.034092
639.6443	0.032520
639.8740	0.032039
640.1038	0.031992
640.3336	0.032212
640.5633	0.031579
640.7931	0.031853
641.0229	0.031322
641.2528	0.027975
641.4826	0.029167
641.7124	0.027668
641.9423	0.027370
642.1721	0.026096
642.4020	0.027638
642.6319	0.023939
642.8617	0.025350
643.0916	0.023537
643.3216	0.024814
643.5515	0.026028
643.7814	0.024576
644.0113	0.024769
644.2413	0.022552
644.4712	0.023296
644.7012	0.022303
644.9312	0.021843
645.1612	0.021337
645.3912	0.024573
645.6212	0.023834
645.8512	0.021668
646.0812	0.023629
646.3113	0.020915
646.5413	0.021118
646.7714	0.020540
647.0015	0.021641
647.2316	0.019158
647.4616	0.019916
647.6918	0.019731
647.9219	0.021184
648.1520	0.024137
648.3821	0.025542
648.6123	0.025942
648.8424	0.027159
649.0726	0.027692
649.3028	0.030158
649.5329	0.026776
649.7631	0.029154
649.9933	0.025139
650.2236	0.028072
650.4538	0.024475
650.6840	0.022703
650.9143	0.024482
651.1445	0.024114
651.3748	0.023256
651.6051	0.023517
651.8354	0.026783
652.0657	0.027171
652.2960	0.025668
652.5263	0.027001
652.7566	0.028157
652.9870	0.027153
653.2173	0.026788
653.4477	0.028050
653.6780	0.027235
653.9084	0.025606
654.1388	0.027836
654.3692	0.028931
654.5996	0.025714
654.8300	0.031015
655.0605	0.033750
655.2909	0.049644
655.5213	0.132417
655.7518	0.401719
655.9823	0.803366
656.2128	1.000000
656.4433	1.000000
656.6738	1.000000
656.9043	1.000000
657.1348	0.903828
657.3653	0.738904
657.5959	0.595451
657.8264	0.514813
658.0570	0.443454
658.2875	0.406017
658.5181	0.370946
658.7487	0.336114
658.9793	0.323671
659.2099	0.302344
659.4406	0.246571
659.6712	0.174611
659.9018	0.102085
660.1325	0.061752
660.3632	0.039117
660.5938	0.027811
660.8245	0.023143
661.0552	0.023136
661.2859	0.021922
661.5166	0.018435
661.7474	0.019281
661.9781	0.019082
662.2088	0.019032
662.4396	0.018554
662.6704	0.019625
662.9011	0.019377
663.1319	0.019205
663.3627	0.018672
663.5935	0.019832
663.8243	0.017380
664.0552	0.016888
664.2860	0.017843
664.5168	0.019433
664.7477	0.018878
664.9786	0.018686
665.2094	0.018411
665.4403	0.018775
665.6712	0.019529
665.9021	0.021589
666.1330	0.018549
666.3640	0.019749
666.5949	0.019508
666.8259	0.018156
667.0568	0.018227
667.2878	0.018199
667.5188	0.018122
667.7497	0.018585
667.9807	0.016847
668.2117	0.016068
668.4428	0.017528
668.6738	0.019279
668.9048	0.018688
669.1359	0.018055
669.3669	0.016852
669.5980	0.017296
669.8291	0.017359
670.0602	0.017971
670.2913	0.019701
670.5224	0.018308
670.7535	0.017443
670.9846	0.018941
671.2157	0.017549
671.4469	0.019659
671.6781	0.020524
671.9092	0.022929
672.1404	0.026052
672.3716	0.027930
672.6028	0.030842
672.8340	0.030884
673.0652	0.028627
673.2964	0.029724
673.5277	0.025440
673.7589	0.024681
673.9902	0.024639
674.2214	0.023626
674.4527	0.026622
674.6840	0.024491
674.9153	0.021980
675.1466	0.022402
675.3779	0.021642
675.6093	0.023647
675.8406	0.023098
676.0719	0.020862
676.3033	0.021241
676.5347	0.020693
676.7661	0.020819
676.9974	0.020988
677.2288	0.018562
677.4602	0.020376
677.6917	0.020630
677.9231	0.022676
678.1545	0.024407
678.3860	0.024238
678.6174	0.024596
678.8489	0.025293
679.0804	0.022507
679.3119	0.028331
679.5434	0.028099
679.7749	0.030695
680.0064	0.030167
680.2379	0.029808
680.4694	0.031053
680.7010	0.031138
680.9325	0.029218
681.1641	0.028268
681.3957	0.027192
681.6273	0.028226
681.8589	0.029534
682.0905	0.027002
682.3221	0.027846
682.5537	0.028458
682.7854	0.026728
683.0170	0.024997
683.2487	0.025018
683.4803	0.025926
683.7120	0.024871
683.9437	0.025546
684.1754	0.027572
684.4071	0.030610
684.6388	0.031792
684.8705	0.031159
685.1023	0.030948
685.3340	0.034007
685.5658	0.034493
685.7975	0.039029
686.0293	0.038270
686.2611	0.037468
686.4929	0.038945
686.7247	0.036455
686.9565	0.033606
687.1883	0.036139
687.4202	0.036835
687.6520	0.037194
687.8838	0.036539
688.1157	0.035970
688.3476	0.034408
688.5795	0.031243
688.8114	0.031454
689.0433	0.030462
689.2752	0.030863
689.5071	0.030779
689.7390	0.029513
689.9710	0.030315
690.2029	0.026327
690.4349	0.028500
690.6669	0.028606
690.8988	0.028120
691.1308	0.029766
691.3628	0.029513
691.5948	0.032235
691.8269	0.031560
692.0589	0.031117
692.2909	0.029365
692.5230	0.031560
692.7550	0.031539
692.9871	0.031412
693.2192	0.033248
693.4513	0.032298
693.6834	0.032573
693.9155	0.031328
694.1476	0.032045
694.3797	0.029407
694.6119	0.029914
694.8440	0.028226
695.0762	0.030589
695.3083	0.029007
695.5405	0.028563
695.7727	0.028289
696.0049	0.024153
696.2371	0.026263
696.4693	0.022318
696.7016	0.025293
696.9338	0.029407
697.1660	0.033986
697.3983	0.032931
697.6306	0.035801
697.8628	0.031623
698.0951	0.031644
698.3274	0.032551
698.5597	0.030568
698.7920	0.031391
699.0243	0.032129
699.2567	0.030462
699.4890	0.029365
699.7214	0.027297
699.9537	0.028479
700.1861	0.029028
700.4185	0.027107
700.6509	0.027740
700.8833	0.025504
701.1157	0.025440
701.3481	0.024407
701.5806	0.022740
701.8130	0.023858
702.0454	0.024639
702.2779	0.024364
702.5104	0.023330
702.7429	0.026031
702.9753	0.021368
703.2078	0.024343
703.4403	0.025166
703.6729	0.024512
703.9054	0.024385
704.1379	0.022972
704.3705	0.023942
704.6030	0.022845
704.8356	0.021959
705.0682	0.022381
705.3008	0.022993
705.5334	0.021157
705.7660	0.018878
705.9986	0.020482
706.2312	0.020630
706.4638	0.022951
706.6965	0.024069
706.9291	0.030631
707.1618	0.029977
707.3945	0.032003
707.6272	0.031201
707.8599	0.032003
708.0926	0.031686
708.3253	0.031792
708.5580	0.033079
708.7907	0.032045
709.0235	0.029935
709.2562	0.033311
709.4890	0.030547
709.7217	0.027656
709.9545	0.029302
710.1873	0.026875
710.4201	0.027508
710.6529	0.029344
710.8857	0.030547
711.1186	0.026242
711.3514	0.027508
711.5842	0.026918
711.8171	0.026200
712.0500	0.025926
712.2828	0.022782
712.5157	0.023457
712.7486	0.025251
712.9815	0.025187
713.2144	0.023478
713.4474	0.024111
713.6803	0.026095
713.9132	0.027783
714.1462	0.028669
714.3791	0.028774
714.6121	0.029745
714.8451	0.029661
715.0781	0.030884
715.3111	0.028521
715.5441	0.031074
715.7771	0.028795
716.0102	0.026833
716.2432	0.025757
716.4762	0.025736
716.7093	0.024238
716.9424	0.024871
717.1754	0.022634
717.4085	0.021938
717.6416	0.022824
717.8747	0.022360
718.1078	0.022951
718.3410	0.024301
718.5741	0.023774
718.8072	0.022740
719.0404	0.023626
719.2736	0.025103
719.5067	0.024997
719.7399	0.025715
719.9731	0.024449
720.2063	0.023330
720.4395	0.023204
720.6727	0.022929
720.9060	0.025947
721.1392	0.025166
721.3725	0.026221
721.6057	0.025694
721.8390	0.025841
722.0723	0.025778
722.3055	0.025757
722.5388	0.024702
722.7721	0.024301
723.0055	0.023225
723.2388	0.021241
723.4721	0.023626
723.7055	0.023563
723.9388	0.023626
724.1722	0.023478
724.4056	0.023879
724.6389	0.020904
724.8723	0.021748
725.1057	0.023478
725.3391	0.024829
725.5726	0.026327
725.8060	0.026939
726.0394	0.027361
726.2729	0.030251
726.5063	0.027740
726.7398	0.026981
726.9733	0.028416
727.2068	0.026010
727.4403	0.025841
727.6738	0.024174
727.9073	0.028817
728.1408	0.028500
728.3743	0.027909
728.6079	0.028880
728.8414	0.029344
729.0750	0.026074
729.3086	0.028120
729.5421	0.031475
729.7757	0.030230
730.0093	0.030188
730.2429	0.030695
730.4766	0.030547
730.7102	0.030927
730.9438	0.033206
731.1775	0.033902
731.4111	0.035738
731.6448	0.036033
731.8785	0.035991
732.1122	0.036561
732.3458	0.033754
732.5795	0.036096
732.8133	0.036202
733.0470	0.036054
733.2807	0.035400
733.5145	0.034957
733.7482	0.036772
733.9820	0.038692
734.2157	0.040338
734.4495	0.040570
734.6833	0.040338
734.9171	0.042891
735.1509	0.040886
735.3847	0.041245
735.6185	0.041772
735.8524	0.039367
736.0862	0.041498
736.3201	0.041372
736.5539	0.039810
736.7878	0.040992
737.0217	0.039810
737.2556	0.038797
737.4895	0.040528
737.7234	0.038945
737.9573	0.037616
738.1912	0.036624
738.4252	0.034472
738.6591	0.033923
738.8931	0.033670
739.1271	0.034303
739.3610	0.035695
739.5950	0.040106
739.8290	0.037426
740.0630	0.035337
740.2970	0.036666
740.5310	0.037679
740.7651	0.033121
740.9991	0.031412
741.2332	0.032467
741.4672	0.031771
741.7013	0.030167
741.9354	0.027382
742.1695	0.029703
742.4036	0.026263
742.6377	0.029133
742.8718	0.029682
743.1059	0.030019
743.3400	0.029323
743.5742	0.026242
743.8083	0.026749
744.0425	0.023816
744.2767	0.025187
744.5108	0.023541
744.7450	0.026960
744.9792	0.023309
745.2134	0.026348
745.4477	0.024301
745.6819	0.023731
745.9161	0.024491
746.1504	0.022740
746.3846	0.022233
746.6189	0.024385
746.8532	0.022908
747.0874	0.021748
747.3217	0.023183
747.5560	0.026327
747.7903	0.027276
748.0247	0.024428
748.2590	0.023415
748.4933	0.024997
748.7277	0.024554
748.9620	0.023668
749.1964	0.024976
749.4308	0.027318
749.6652	0.025251
749.8995	0.028352
750.1339	0.029281
750.3684	0.030927
750.6028	0.033754
750.8372	0.032425
751.0717	0.031560
751.3061	0.031496
751.5406	0.031243
751.7750	0.035084
752.0095	0.033712
752.2440	0.033860
752.4785	0.032910
752.7130	0.031349
752.9475	0.031095
753.1820	0.031454
753.4166	0.029682
753.6511	0.031433
753.8856	0.032319
754.1202	0.035041
754.3548	0.038206
754.5894	0.035210
754.8239	0.032720
755.0585	0.033227
755.2931	0.031539
755.5278	0.034155
755.7624	0.034028
755.9970	0.035928
756.2317	0.035885
756.4663	0.039557
756.7010	0.038734
756.9356	0.041266
757.1703	0.041730
757.4050	0.044030
757.6397	0.049052
757.8744	0.049685
758.1091	0.050677
758.3438	0.049516
758.5786	0.047575
758.8133	0.045655
759.0481	0.045887
759.2828	0.046140
759.5176	0.047934
759.7524	0.047997
759.9872	0.050740
760.2220	0.050192
760.4568	0.051247
760.6916	0.053715
760.9264	0.055572
761.1613	0.051584
761.3961	0.053146
761.6310	0.050529
761.8658	0.048187
762.1007	0.044094
762.3356	0.041625
762.5705	0.039726
762.8054	0.039219
763.0403	0.042342
763.2752	0.040401
763.5101	0.040591
763.7450	0.041604
763.9800	0.042089
764.2149	0.042342
764.4499	0.043946
764.6849	0.046647
764.9198	0.048651
765.1548	0.050635
765.3898	0.052006
765.6248	0.047554
765.8599	0.046689
766.0949	0.043840
766.3299	0.042722
766.5650	0.038607
766.8000	0.037848
767.0351	0.036434
767.2701	0.032214
767.5052	0.031349
767.7403	0.032214
767.9754	0.032108
768.2105	0.033712
768.4456	0.037257
768.6808	0.036814
768.9159	0.038544
769.1510	0.041646
769.3862	0.040570
769.6214	0.040696
769.8565	0.037257
770.0917	0.037215
770.3269	0.036012
770.5621	0.037257
770.7973	0.038523
771.0325	0.037911
771.2677	0.040190
771.5030	0.039325
771.7382	0.040084
771.9735	0.039705
772.2087	0.037341
772.4440	0.035759
772.6793	0.032235
772.9146	0.033311
773.1499	0.035252
773.3852	0.032256
773.6205	0.034493
773.8558	0.032193
774.0911	0.031201
774.3265	0.027466
774.5618	0.029872
774.7972	0.027255
775.0326	0.027740
775.2679	0.024744
775.5033	0.025694
775.7387	0.023963
775.9741	0.023689
776.2095	0.021938
776.4450	0.022613
776.6804	0.020777
776.9158	0.019954
777.1513	0.022634
777.3868	0.020841
777.6222	0.018857
777.8577	0.020672
778.0932	0.020186
778.3287	0.022613
778.5642	0.021115
778.7997	0.021537
779.0352	0.023584
779.2707	0.025187
779.5063	0.023689
779.7418	0.025462
779.9774	0.025314
780.2130	0.026411
780.4485	0.023605
780.6841	0.021199
780.9197	0.022782
781.1553	0.026221
781.3909	0.029133
781.6265	0.028458
781.8622	0.029935
782.0978	0.028078
782.3335	0.028057
782.5691	0.029703
782.8048	0.028500
783.0405	0.031243
783.2761	0.028458
783.5118	0.029281
783.7475	0.028521
783.9832	0.028521
784.2190	0.030125
784.4547	0.029133
784.6904	0.026875
784.9262	0.027614
785.1619	0.021938
785.3977	0.025694
785.6335	0.023605
785.8692	0.023668
786.1050	0.023795
786.3408	0.025694
786.5766	0.024449
786.8124	0.024407
787.0483	0.022107
787.2841	0.023394
787.5199	0.024006
787.7558	0.023520
787.9917	0.024639
788.2275	0.026074
788.4634	0.025419
788.6993	0.025356
788.9352	0.026474
789.1711	0.026939
789.4070	0.026896
789.6429	0.024955
789.8789	0.024407
790.1148	0.022908
790.3507	0.023119
790.5867	0.020841
790.8227	0.022233
791.0586	0.019068
791.2946	0.018688
791.5306	0.022001
791.7666	0.021030
792.0026	0.018393
792.2387	0.020250
792.4747	0.019553
792.7107	0.020418
792.9468	0.019385
793.1828	0.018161
793.4189	0.018034
793.6550	0.018477
793.8910	0.018794
794.1271	0.022655
794.3632	0.024512
794.5993	0.026010
794.8355	0.024913
795.0716	0.027297
795.3077	0.027487
795.5439	0.026474
795.7800	0.024913
796.0162	0.023183
796.2523	0.023584
796.4885	0.021853
796.7247	0.019553
796.9609	0.018794
797.1971	0.017106
797.4333	0.020440
797.6695	0.018794
797.9058	0.020524
798.1420	0.019680
798.3783	0.019490
798.6145	0.019828
798.8508	0.019828
799.0871	0.019427
799.3233	0.019828
799.5596	0.018794
799.7959	0.017274
800.0322	0.017485
800.2686	0.017359
800.5049	0.016093
800.7412	0.016599
800.9776	0.016219
801.2139	0.015291
801.4503	0.017464
801.6867	0.015354
801.9230	0.014848
802.1594	0.015502
802.3958	0.016177
802.6322	0.013835
802.8686	0.016093
803.1051	0.012231
803.3415	0.016156
803.5779	0.014890
803.8144	0.014869
804.0508	0.013898
804.2873	0.014616
804.5238	0.012991
804.7603	0.014236
804.9968	0.014721
805.2333	0.013392
805.4698	0.013392
805.7063	0.013413
805.9428	0.015312
806.1794	0.016262
806.4159	0.017929
806.6525	0.019469
806.8890	0.019342
807.1256	0.022360
807.3622	0.019785
807.5988	0.020440
807.8354	0.018963
808.0720	0.018308
808.3086	0.018308
808.5452	0.019870
808.7818	0.019617
809.0185	0.019490
809.2551	0.018941
809.4918	0.018941
809.7284	0.016684
809.9651	0.018140
810.2018	0.016641
810.4385	0.016430
810.6752	0.015122
810.9119	0.016241
811.1486	0.015017
811.3853	0.015671
811.6221	0.016452
811.8588	0.015101
812.0956	0.014679
812.3323	0.014405
812.5691	0.015017
812.8059	0.012886
813.0427	0.012231
813.2795	0.011957
813.5163	0.012105
813.7531	0.012949
813.9899	0.015164
814.2267	0.016030
814.4636	0.016473
814.7004	0.015565
814.9373	0.014700
815.1742	0.013308
815.4110	0.011915
815.6479	0.011999
815.8848	0.010564
816.1217	0.011683
816.3586	0.011852
816.5955	0.010586
816.8324	0.011852
817.0694	0.012886
817.3063	0.012400
817.5433	0.010564
817.7802	0.012147
818.0172	0.012168
818.2542	0.011999
818.4912	0.012020
818.7282	0.009995
818.9652	0.011408
819.2022	0.012147
819.4392	0.010902
819.6762	0.009805
819.9133	0.009784
820.1503	0.009657
820.3874	0.009868
820.6244	0.012653
820.8615	0.011366
821.0986	0.013075
821.3357	0.013476
821.5727	0.012759
821.8099	0.010248
822.0470	0.011957
822.2841	0.013772
822.5212	0.011852
822.7584	0.011556
822.9955	0.010353
823.2327	0.009678
823.4698	0.009678
823.7070	0.011472
823.9442	0.009130
824.1814	0.009172
824.4186	0.008581
824.6558	0.009298
824.8930	0.008539
825.1302	0.010459
825.3675	0.009488
825.6047	0.010522
825.8419	0.010522
826.0792	0.011176
826.3165	0.010733
826.5537	0.009066
826.7910	0.010185
827.0283	0.009615
827.2656	0.009931
827.5029	0.009931
827.7402	0.011155
827.9776	0.011598
828.2149	0.012063
828.4522	0.010353
828.6896	0.011493
828.9270	0.011303
829.1643	0.011176
829.4017	0.011113
829.6391	0.009298
829.8765	0.010290
830.1139	0.010121
830.3513	0.010206
830.5887	0.009488
830.8261	0.007252
831.0636	0.009657
831.3010	0.006703
831.5385	0.007104
831.7759	0.007104
832.0134	0.006745
832.2509	0.007231
832.4884	0.006429
832.7259	0.005796
832.9634	0.006555
833.2009	0.006998
833.4384	0.008876
833.6759	0.005943
833.9135	0.006872
834.1510	0.008539
834.3886	0.008855
834.6261	0.009953
834.8637	0.010670
835.1013	0.009087
835.3389	0.008581
835.5765	0.007842
835.8141	0.007357
836.0517	0.008876
836.2893	0.007020
836.5269	0.007674
836.7646	0.006028
837.0022	0.007526
837.2399	0.004825
837.4775	0.004340
837.7152	0.006365
837.9529	0.005247
838.1906	0.005796
838.4283	0.006893
838.6660	0.005310
838.9037	0.005395
839.1414	0.005901
839.3791	0.004888
839.6169	0.004867
839.8546	0.007294
840.0924	0.007062
840.3302	0.004509
840.5679	0.006598
840.8057	0.004952
841.0435	0.006513
841.2813	0.005078
841.5191	0.005606
841.7569	0.004509
841.9947	0.005458
842.2326	0.004825
842.4704	0.003981
842.7082	0.005205
842.9461	0.004023
843.1840	0.004952
843.4218	0.004150
843.6597	0.003496
843.8976	0.005184
844.1355	0.005606
844.3734	0.004298
844.6113	0.003390
844.8492	0.002546
845.0872	0.004065
845.3251	0.004551
845.5631	0.004023
845.8010	0.003643
846.0390	0.004065
846.2770	0.004909
846.5149	0.005036
846.7529	0.004867
846.9909	0.003833
847.2289	0.004867
847.4669	0.004044
847.7050	0.002947
847.9430	0.004298
848.1810	0.005036
848.4191	0.005374
848.6571	0.004867
848.8952	0.004530
849.1333	0.004487
849.3713	0.003686
849.6094	0.005268
849.8475	0.003390
850.0856	0.004234
850.3237	0.002588
850.5619	0.004931
850.8000	0.003749
851.0381	0.004298
851.2763	0.002799
851.5144	0.003854
851.7526	0.003137
851.9908	0.004804
852.2289	0.004635
852.4671	0.004614
852.7053	0.006492
852.9435	0.007631
853.1817	0.006998
853.4200	0.010058
853.6582	0.012316
853.8964	0.011704
854.1347	0.011641
854.3729	0.011303
854.6112	0.011725
854.8495	0.012126
855.0877	0.012020
855.3260	0.011324
855.5643	0.011345
855.8026	0.011472
856.0409	0.009151
856.2792	0.010628
856.5176	0.010733
856.7559	0.010248
856.9942	0.010058
857.2326	0.008497
857.4710	0.007653
857.7093	0.009320
857.9477	0.007252
858.1861	0.008834
858.4245	0.009931
858.6629	0.007231
858.9013	0.006112
859.1397	0.008370
859.3781	0.006175
859.6166	0.008096
859.8550	0.008286
860.0935	0.007463
860.3319	0.008117
860.5704	0.007252
860.8089	0.005099
861.0473	0.006302
861.2858	0.004698
861.5243	0.006724
861.7628	0.004825
862.0013	0.006619
862.2399	0.004614
862.4784	0.004424
862.7169	0.005521
862.9555	0.005796
863.1940	0.004846
863.4326	0.005078
863.6712	0.006471
863.9098	0.005120
864.1483	0.004424
864.3869	0.005648
864.6255	0.003749
864.8642	0.004551
865.1028	0.004635
865.3414	0.004509
865.5800	0.003264
865.8187	0.004298
866.0573	0.003453
866.2960	0.005078
866.5347	0.004023
866.7733	0.005057
867.0120	0.003770
867.2507	0.003960
867.4894	0.004867
867.7281	0.004340
867.9669	0.004466
868.2056	0.005057
868.4443	0.005289
868.6831	0.004994
868.9218	0.004340
869.1606	0.004804
869.3993	0.003833
869.6381	0.003327
869.8769	0.002778
870.1157	0.003306
870.3545	0.004931
870.5933	0.004108
870.8321	0.003770
871.0709	0.003475
871.3097	0.005120
871.5486	0.004952
871.7874	0.002673
872.0263	0.004129
872.2651	0.005142
872.5040	0.003453
872.7429	0.003918
872.9818	0.003939
873.2207	0.003622
873.4596	0.004466
873.6985	0.002335
873.9374	0.004171
874.1763	0.003053
874.4153	0.004129
874.6542	0.004340
874.8932	0.003939
875.1321	0.004171
875.3711	0.004466
875.6101	0.003390
875.8491	0.005036
876.0880	0.003728
876.3270	0.006007
876.5661	0.005036
876.8051	0.004487
877.0441	0.006386
877.2831	0.003580
877.5222	0.004445
877.7612	0.006070
878.0003	0.005331
878.2393	0.006112
878.4784	0.006197
878.7175	0.004023
878.9566	0.005521
879.1957	0.005585
879.4348	0.005416
879.6739	0.005922
879.9130	0.005711
880.1521	0.006513
880.3913	0.006471
880.6304	0.004720
880.8696	0.007420
881.1087	0.007020
881.3479	0.005711
881.5871	0.005901
881.8262	0.005585
882.0654	0.004551
882.3046	0.004720
882.5438	0.004825
882.7831	0.005395
883.0223	0.005036
883.2615	0.004361
883.5007	0.005395
883.7400	0.006260
883.9792	0.005331
884.2185	0.006408
884.4578	0.004741
884.6971	0.004424
884.9363	0.004952
885.1756	0.006471
885.4149	0.003728
885.6542	0.004804
885.8936	0.005775
886.1329	0.007125
886.3722	0.006935
886.6116	0.006851
886.8509	0.003179
887.0903	0.004677
887.3296	0.004466
887.5690	0.004276
887.8084	0.003517
888.0478	0.003031
888.2872	0.004361
888.5266	0.005268
888.7660	0.004572
889.0054	0.003960
889.2448	0.003664
889.4843	0.003411
889.7237	0.003517
889.9632	0.003158
890.2026	0.004361
890.4421	0.002145
890.6816	0.003264
890.9211	0.003264
891.1606	0.002778
891.4001	0.002546
891.6396	0.002757
891.8791	0.005184
892.1186	0.003517
892.3581	0.004171
892.5977	0.004403
892.8372	0.004931
893.0768	0.004572
893.3163	0.003053
893.5559	0.004466
893.7955	0.004065
894.0351	0.004108
894.2747	0.003200
894.5143	0.002989
894.7539	0.002863
894.9935	0.002166
895.2331	0.003601
895.4727	0.003221
895.7124	0.004255
895.9520	0.002715
896.1917	0.004867
896.4314	0.003686
896.6710	0.002420
896.9107	0.003306
897.1504	0.003643
897.3901	0.004065
897.6298	0.003791
897.8695	0.003242
898.1092	0.003390
898.3489	0.002736
898.5887	0.003095
898.8284	0.002989
899.0682	0.003221
899.3079	0.002103
899.5477	0.003664
899.7875	0.001892
900.0272	0.003221
900.2670	0.001639
900.5068	0.002863
900.7466	0.002778
900.9864	0.004635
901.2263	0.003158
901.4661	0.003876
901.7059	0.004783
901.9458	0.003074
902.1856	0.003981
902.4255	0.003770
902.6654	0.003643
902.9052	0.004129
903.1451	0.003791
903.3850	0.002166
903.6249	0.002441
903.8648	0.004319
904.1047	0.003200
904.3446	0.002842
904.5846	0.003622
904.8245	0.003242
905.0644	0.003833
905.3044	0.004445
905.5444	0.004888
905.7843	0.005289
906.0243	0.003179
906.2643	0.004002
906.5043	0.003791
906.7443	0.002736
906.9843	0.003939
907.2243	0.003517
907.4643	0.003517
907.7043	0.003031
907.9444	0.003749
908.1844	0.005353
908.4245	0.002631
908.6645	0.003411
908.9046	0.003918
909.1447	0.003643
909.3847	0.002040
909.6248	0.004783
909.8649	0.002989
910.1050	0.002420
910.3452	0.001280
910.5853	0.004804
910.8254	0.002124
911.0655	0.003960
911.3057	0.003179
911.5458	0.003960
911.7860	0.003453
912.0262	0.001280
912.2663	0.002609
912.5065	0.002525
912.7467	0.001850
912.9869	0.003749
913.2271	0.002820
913.4673	0.001554
913.7075	0.001934
913.9478	0.003686
914.1880	0.002314
914.4283	0.003200
914.6685	0.000921
914.9088	0.003897
915.1490	0.002546
915.3893	0.002293
915.6296	0.004087
915.8699	0.003264
916.1102	0.002230
916.3505	0.002631
916.5908	0.003095
916.8311	0.002631
917.0714	0.003264
917.3118	0.002546
917.5521	0.003538
917.7925	0.003686
918.0328	0.003264
918.2732	0.003496
918.5136	0.002715
918.7539	0.003601
918.9943	0.003264
919.2347	0.003453
919.4751	0.002209
919.7155	0.003390
919.9560	0.002799
920.1964	0.002989
920.4368	0.003095
920.6773	0.004129
920.9177	0.001871
921.1582	0.004361
921.3986	0.003643
921.6391	0.002736
921.8796	0.002145
922.1201	0.004108
922.3606	0.002314
922.6011	0.002145
922.8416	0.001343
923.0821	0.001681
923.3226	0.001702
923.5631	0.002103
923.8037	0.002968
924.0442	0.002420
924.2848	0.001723
924.5254	0.001154
924.7659	0.001491
925.0065	0.002989
925.2471	0.001723
925.4877	0.001871
925.7283	0.001913
925.9689	0.004909
926.2095	0.001238
926.4501	0.000605
926.6908	0.001259
926.9314	0.002103
927.1720	0.001808
927.4127	0.001217
927.6533	0.001934
927.8940	0.002082
928.1347	0.001829
928.3754	0.003390
928.6161	0.002462
928.8568	0.003538
929.0975	0.001259
929.3382	0.002019
929.5789	0.001343
929.8196	0.001892
930.0604	0.001871
930.3011	0.001238
930.5419	0.002166
930.7826	0.002356
931.0234	0.000014
931.2642	0.001618
931.5049	0.001681
931.7457	0.001428
931.9865	0.001259
932.2273	0.001175
932.4681	-0.000007
932.7089	0.002609
932.9498	0.001090
933.1906	0.000985
933.4314	0.002420
933.6723	0.002293
933.9131	0.000520
934.1540	0.000731
934.3949	0.002251
934.6358	0.002230
934.8766	0.001892
935.1175	0.002272
935.3584	0.001175
935.5993	0.003179
935.8403	0.001069
936.0812	0.000795
936.3221	0.001386
936.5630	0.002441
936.8040	0.001006
937.0449	0.001787
937.2859	-0.000872
937.5269	0.002483
937.7678	0.000563
938.0088	0.001681
938.2498	0.003095
938.4908	-0.000345
938.7318	0.000415
938.9728	0.000204
939.2138	0.001955
939.4549	0.000225
939.6959	-0.000007
939.9369	0.001027
940.1780	0.001386
940.4190	0.000795
940.6601	-0.000028
940.9012	-0.000028
941.1422	-0.000155
941.3833	0.000943
941.6244	0.000668
941.8655	0.000415
942.1066	0.000478
942.3477	0.000499
942.5889	0.000225
942.8300	0.000710
943.0711	0.000837
943.3123	0.000520
943.5534	0.001808
943.7946	-0.000049
944.0357	-0.000302
944.2769	0.001470
944.5181	0.000415
944.7593	0.000816
945.0005	0.001090
945.2417	-0.000851
945.4829	0.000985
945.7241	-0.000450
945.9653	0.000837
946.2066	0.001449
946.4478	0.001386
946.6891	0.000415
946.9303	0.001154
947.1716	0.001196
947.4128	0.000056
947.6541	0.001069
947.8954	0.000605
948.1367	0.000098
948.3780	0.001343
948.6193	0.001027
948.8606	0.001702
949.1019	0.000753
949.3433	0.000964
949.5846	0.001449
949.8259	0.001998
950.0673	0.000309
950.3086	0.001660
950.5500	-0.000598
950.7914	0.000985
951.0327	0.001407
951.2741	0.000985
951.5155	0.000141
951.7569	0.000689
951.9983	0.000077
952.2398	0.000943
952.4812	0.000879
952.7226	0.001554
952.9640	0.001154
953.2055	0.000964
953.4469	0.000563
953.6884	0.001428
953.9299	0.001976
954.1713	0.001892
954.4128	0.001976
954.6543	0.000647
954.8958	0.001196
955.1373	0.000373
955.3788	-0.000070
955.6203	0.001175
955.8618	-0.000155
956.1034	0.001259
956.3449	0.000520
956.5865	-0.000577
956.8280	0.001090
957.0696	0.000879
957.3111	-0.000450
957.5527	0.001407
957.7943	0.000141
958.0359	0.001111
958.2775	0.000098
958.5191	0.000710
958.7607	0.000478
959.0023	0.001027
959.2439	0.000373
959.4856	0.000035
959.7272	-0.000281
959.9688	0.000267
960.2105	0.000394
960.4522	0.001723
960.6938	0.001998
960.9355	0.001175
961.1772	-0.000914
961.4189	0.001048
961.6606	-0.000028
961.9023	0.001407
962.1440	-0.000239
962.3857	0.000985
962.6274	-0.000028
962.8692	0.000584
963.1109	-0.000070
963.3527	0.000816
963.5944	-0.000345
963.8362	0.000309
964.0779	-0.000703
964.3197	-0.000176
964.5615	0.000964
964.8033	0.000626
965.0451	0.000563
965.2869	0.000331
965.5287	0.000267
965.7705	0.000647
966.0123	0.000605
966.2542	-0.000872
966.4960	0.000056
966.7379	0.000900
966.9797	-0.000070
967.2216	0.000858
967.4634	-0.000366
967.7053	0.000858
967.9472	-0.001020
968.1891	0.000162
968.4310	0.000162
968.6729	0.001554
968.9148	-0.000682
969.1567	0.000436
969.3987	-0.001062
969.6406	0.001386
969.8825	0.000731
970.1245	-0.000281
970.3664	-0.000598
970.6084	0.000120
970.8504	-0.000345
971.0923	0.001280
971.3343	0.000331
971.5763	0.001006
971.8183	0.001533
972.0603	0.000921
972.3023	-0.001716
972.5443	0.000267
972.7864	0.000415
973.0284	0.000668
973.2704	0.000352
973.5125	0.000183
973.7545	-0.001231
973.9966	0.000436
974.2387	-0.000176
974.4807	-0.000535
974.7228	0.001154
974.9649	0.000204
975.2070	-0.000661
975.4491	0.001407
975.6912	-0.000345
975.9333	-0.000028
976.1755	-0.000471
976.4176	0.002588
976.6597	0.000795
976.9019	0.000605
977.1440	0.000077
977.3862	0.000605
977.6283	-0.000155
977.8705	0.000731
978.1127	0.000014
978.3549	0.001175
978.5971	0.000415
978.8393	0.001132
979.0815	0.000879
979.3237	0.000352
979.5659	-0.000113
979.8082	-0.000682
980.0504	0.000373
980.2926	0.000394
980.5349	-0.000007
980.7771	0.000753
981.0194	0.000098
981.2617	-0.000682
981.5040	0.000352
981.7462	0.000520
981.9885	0.000352
982.2308	0.000436
982.4731	-0.000724
982.7155	0.000795
982.9578	0.000162
983.2001	0.001913
983.4424	-0.000134
983.6848	0.000731
983.9271	0.000120
984.1695	0.000689
984.4118	0.000436
984.6542	-0.001168
984.8966	-0.000281
985.1390	0.000225
985.3814	0.000120
985.6238	0.000774
985.8662	-0.000366
986.1086	0.000795
986.3510	-0.001400
986.5934	0.001027
986.8358	0.000225
987.0783	0.002019
987.3207	-0.000070
987.5632	0.000056
987.8056	0.000858
988.0481	0.000394
988.2906	-0.000914
988.5331	0.000014
988.7756	-0.000324
989.0180	0.000035
989.2605	-0.000028
989.5031	0.000689
989.7456	-0.000935
989.9881	-0.000176
990.2306	-0.000260
990.4732	-0.000260
990.7157	-0.000682
990.9582	0.001238
991.2008	-0.000049
991.4434	0.001175
991.6859	0.001407
991.9285	0.000689
992.1711	-0.000345
992.4137	0.000478
992.6563	0.000964
992.8989	-0.000176
993.1415	0.000120
993.3841	0.000499
993.6267	0.000478
993.8694	0.000542
994.1120	-0.000197
994.3547	-0.000577
994.5973	-0.000429
994.8400	0.000753
995.0826	0.001470
995.3253	-0.000450
995.5680	0.000478
995.8107	0.001217
996.0534	-0.000492
996.2961	0.001196
996.5388	0.000246
996.7815	-0.000978
997.0242	-0.000682
997.2670	0.000415
997.5097	0.001196
997.7524	-0.000682
997.9952	-0.000513
998.2379	0.000183
998.4807	0.000900
998.7235	0.000605
998.9662	-0.000957
999.2090	0.000373
999.4518	0.000520
999.6946	-0.000007
999.9374	0.000436
1000.1802	-0.000366
1000.4230	0.000436
1000.6659	-0.001421
1000.9087	-0.000281
1001.1515	0.000584
1001.3944	0.000267
1001.6372	0.000563
1001.8801	-0.000345
1002.1230	-0.000851
1002.3658	0.000774
1002.6087	0.000098
1002.8516	0.001027
1003.0945	-0.000535
1003.3374	-0.000935
1003.5803	0.000858
1003.8232	0.000415
1004.0661	0.000584
1004.3091	-0.000640
1004.5520	-0.000239
1004.7949	-0.000239
1005.0379	-0.000429
1005.2808	0.001154
1005.5238	-0.000577
1005.7667	0.000626
1006.0097	-0.000471
1006.2527	0.000415
1006.4957	0.000647
1006.7387	-0.000556
1006.9817	-0.000366
1007.2247	0.001196
1007.4677	-0.000598
1007.7107	-0.000535
1007.9538	-0.000429
1008.1968	0.000415
1008.4398	0.001365
1008.6829	-0.000049
1008.9259	0.001238
1009.1690	0.000520
1009.4121	-0.000366
1009.6551	-0.000999
1009.8982	-0.000556
1010.1413	0.000267
1010.3844	-0.001568
1010.6275	-0.000851
1010.8706	0.000689
1011.1137	-0.001062
1011.3568	0.000077
1011.6000	0.000563
1011.8431	0.000225
1012.0863	-0.000113
1012.3294	-0.001547
1012.5726	-0.000978
1012.8157	0.000373
1013.0589	0.000267
1013.3021	0.000204
1013.5452	-0.000218
1013.7884	0.000056
1014.0316	0.000605
1014.2748	0.001154
1014.5180	-0.000535
1014.7613	-0.000661
1015.0045	-0.000535
1015.2477	0.000816
1015.4909	0.000014
1015.7342	-0.000281
1015.9774	-0.000893
1016.2207	-0.000218
1016.4640	0.000098
1016.7072	0.001765
1016.9505	0.000985
1017.1938	-0.000682
1017.4371	-0.000091
1017.6804	0.000225
1017.9237	0.001132
1018.1670	0.000098
1018.4103	0.000267
1018.6536	0.000710
1018.8969	0.000309
1019.1403	0.000373
1019.3836	0.001428
1019.6270	-0.001252
1019.8703	0.001048
1020.1137	-0.000450
1020.3571	0.001027
1020.6004	-0.000703
1020.8438	0.000626
1021.0872	0.001048
1021.3306	0.000162
1021.5740	-0.000113
1021.8174	0.000563
1022.0608	-0.000218
1022.3042	-0.001442
1022.5477	-0.001041
1022.7911	0.000647
1023.0345	0.000246
