# Wavelength (nm)	Intensity (a.u.)
197.7802	0.000341
197.9842	-0.000460
198.1882	0.000974
198.3922	0.000889
198.5963	0.001416
198.8003	-0.000988
199.0044	0.000404
199.2085	0.001184
199.4126	0.001564
199.6168	0.000046
199.8209	0.001311
200.0251	0.001353
200.2292	0.000425
200.4334	0.000531
200.6376	0.001585
200.8418	0.001374
201.0461	0.002049
201.2503	-0.000207
201.4546	0.000805
201.6589	-0.000039
201.8631	0.000341
202.0674	0.000046
202.2718	0.000025
202.4761	0.000974
202.6805	0.001733
202.8848	0.001311
203.0892	0.001754
203.2936	-0.000566
203.4980	0.001796
203.7024	-0.000250
203.9069	0.001943
204.1113	-0.001325
204.3158	0.000109
204.5203	0.000172
204.7248	0.001501
204.9293	0.000383
205.1338	0.000594
205.3384	0.002323
205.5430	0.000510
205.7475	0.000826
205.9521	-0.000418
206.1567	0.000214
206.3614	0.000299
206.5660	0.001437
206.7706	0.000931
206.9753	-0.000102
207.1800	0.001690
207.3847	0.000594
207.5894	0.000446
207.7941	0.000235
207.9989	0.000847
208.2036	0.001205
208.4084	0.000531
208.6132	0.000404
208.8180	0.000636
209.0228	0.001648
209.2276	0.001332
209.4325	0.001395
209.6373	0.000257
209.8422	0.000678
210.0471	-0.000334
210.2520	0.000130
210.4569	0.000868
210.6618	-0.000503
210.8668	0.000235
211.0718	0.000341
211.2767	0.001627
211.4817	0.000067
211.6867	0.001227
211.8918	0.000446
212.0968	0.000235
212.3018	0.001016
212.5069	0.001079
212.7120	0.001733
212.9171	0.001353
213.1222	0.000931
213.3273	-0.000271
213.5325	-0.000713
213.7376	0.000341
213.9428	0.001079
214.1480	0.001395
214.3532	0.000467
214.5584	0.001311
214.7636	0.000341
214.9689	0.001205
215.1741	0.000784
215.3794	-0.000271
215.5847	0.000257
215.7900	0.001353
215.9953	0.000657
216.2007	0.000615
216.4060	0.000784
216.6114	0.001690
216.8168	-0.001262
217.0222	0.001501
217.2276	0.001269
217.4330	-0.000777
217.6384	0.000826
217.8439	0.002091
218.0494	0.000425
218.2548	0.001859
218.4603	0.001290
218.6659	0.000826
218.8714	0.002450
219.0769	0.001269
219.2825	0.001353
219.4881	0.002091
219.6936	0.001290
219.8992	0.001480
220.1049	-0.000418
220.3105	-0.001198
220.5161	0.000467
220.7218	0.000910
220.9275	-0.000186
221.1332	0.002513
221.3389	0.000952
221.5446	0.001374
221.7503	-0.000819
221.9561	0.000763
222.1618	0.001100
222.3676	0.001332
222.5734	0.000615
222.7792	0.000552
222.9850	0.000889
223.1909	0.000699
223.3967	0.000531
223.6026	0.000172
223.8085	0.000278
224.0144	0.001121
224.2203	-0.000355
224.4262	0.000278
224.6322	0.000889
224.8381	0.001227
225.0441	0.000130
225.2501	0.001332
225.4561	-0.000460
225.6621	0.000467
225.8681	0.000046
226.0742	0.000763
226.2802	-0.000524
226.4863	0.000552
226.6924	-0.000207
226.8985	0.001121
227.1046	0.000046
227.3107	0.001353
227.5169	0.000425
227.7230	0.001311
227.9292	0.001121
228.1354	0.001395
228.3416	0.000320
228.5478	0.000910
228.7541	-0.000039
228.9603	0.000742
229.1666	0.000172
229.3729	0.000594
229.5791	0.000931
229.7855	0.001100
229.9918	0.000594
230.1981	0.001943
230.4045	0.000889
230.6108	0.001775
230.8172	0.000383
231.0236	0.000636
231.2300	0.001037
231.4364	0.000657
231.6429	0.000910
231.8493	0.000467
232.0558	0.001037
232.2623	-0.000081
232.4688	0.000383
232.6753	0.000974
232.8818	-0.000397
233.0884	0.000974
233.2949	-0.000355
233.5015	0.000615
233.7081	0.000974
233.9147	0.000868
234.1213	0.000742
234.3279	-0.000608
234.5346	0.001606
234.7413	0.000594
234.9479	-0.000798
235.1546	0.001669
235.3613	0.000805
235.5680	0.000995
235.7748	-0.000123
235.9815	0.000952
236.1883	0.000594
236.3951	0.001100
236.6018	0.001037
236.8087	0.001564
237.0155	0.001079
237.2223	0.000995
237.4292	0.000193
237.6360	-0.000882
237.8429	0.001522
238.0498	0.000489
238.2567	0.000489
238.4636	0.000974
238.6706	0.000088
238.8775	0.000552
239.0845	0.000489
239.2915	0.001227
239.4985	0.000573
239.7055	0.001100
239.9125	-0.000777
240.1195	0.001184
240.3266	0.001184
240.5337	-0.000165
240.7407	0.000193
240.9478	0.000130
241.1549	0.000383
241.3621	0.000573
241.5692	0.001311
241.7764	0.000235
241.9835	0.000235
242.1907	-0.000018
242.3979	0.001395
242.6051	-0.000165
242.8124	0.000278
243.0196	0.001922
243.2269	0.001037
243.4341	0.001712
243.6414	0.000889
243.8487	0.000109
244.0560	0.001121
244.2634	0.001480
244.4707	0.000594
244.6781	-0.000207
244.8854	0.001416
245.0928	0.002386
245.3002	0.001353
245.5076	0.002049
245.7151	0.001058
245.9225	0.001543
246.1300	0.000446
246.3375	0.000257
246.5449	-0.000545
246.7524	0.001395
246.9600	0.000467
247.1675	0.000046
247.3750	0.000552
247.5826	0.000995
247.7902	0.002513
247.9978	0.001184
248.2054	0.000742
248.4130	0.000931
248.6206	0.000172
248.8283	0.000763
249.0359	0.000404
249.2436	0.001037
249.4513	0.001501
249.6590	0.000931
249.8667	0.000552
250.0745	0.000657
250.2822	0.000636
250.4900	-0.000018
250.6978	0.001585
250.9056	0.001648
251.1134	-0.000123
251.3212	0.001669
251.5290	0.000467
251.7369	0.000425
251.9447	0.000552
252.1526	0.000763
252.3605	0.000299
252.5684	0.000995
252.7763	0.000088
252.9843	0.000257
253.1922	0.000952
253.4002	0.002091
253.6082	0.001269
253.8162	0.000573
254.0242	0.000805
254.2322	0.000699
254.4402	0.000742
254.6483	0.001775
254.8564	0.001648
255.0644	0.001648
255.2725	0.000742
255.4806	0.001142
255.6888	0.000742
255.8969	-0.000629
256.1051	0.001458
256.3132	0.001733
256.5214	0.001227
256.7296	0.000805
256.9378	0.000320
257.1460	0.000046
257.3543	0.001712
257.5625	0.000193
257.7708	-0.000039
257.9791	0.001458
258.1874	-0.000503
258.3957	-0.000018
258.6040	0.000214
258.8124	0.002428
259.0207	0.000257
259.2291	0.001353
259.4375	0.000004
259.6459	0.001965
259.8543	0.000931
260.0627	0.000784
260.2711	-0.000292
260.4796	-0.000165
260.6881	0.000826
260.8965	0.000320
261.1050	0.000489
261.3135	0.000489
261.5221	0.001690
261.7306	0.001733
261.9392	0.000088
262.1477	0.001121
262.3563	0.001669
262.5649	0.000088
262.7735	-0.000018
262.9822	0.001585
263.1908	0.000720
263.3995	0.001248
263.6081	0.001648
263.8168	0.001016
264.0255	0.001458
264.2342	0.000742
264.4429	-0.000102
264.6517	0.000995
264.8604	-0.000018
265.0692	0.000552
265.2780	0.000657
265.4868	0.000742
265.6956	0.001121
265.9044	0.001184
266.1133	0.000489
266.3221	0.001121
266.5310	0.000446
266.7399	0.001880
266.9488	-0.000313
267.1577	0.000299
267.3666	-0.000207
267.5755	0.001142
267.7845	-0.000334
267.9935	0.001290
268.2024	-0.000271
268.4114	0.000510
268.6205	-0.000102
268.8295	0.001395
269.0385	0.001501
269.2476	0.000995
269.4566	0.000214
269.6657	0.001269
269.8748	0.000151
270.0839	0.001142
270.2931	0.000868
270.5022	0.002323
270.7114	-0.000376
270.9205	0.000320
271.1297	-0.000355
271.3389	0.000847
271.5481	0.000151
271.7573	0.000594
271.9666	0.000320
272.1758	0.000826
272.3851	0.000931
272.5944	0.000784
272.8037	-0.000692
273.0130	0.001733
273.2223	-0.000355
273.4316	0.000636
273.6410	0.000299
273.8504	0.000046
274.0597	0.000341
274.2691	0.001648
274.4785	0.000931
274.6880	-0.000735
274.8974	0.001543
275.1069	0.001290
275.3163	0.000847
275.5258	0.000467
275.7353	0.000742
275.9448	0.001859
276.1543	0.001648
276.3639	0.000489
276.5734	0.000847
276.7830	0.000594
276.9926	0.000257
277.2022	0.000826
277.4118	-0.000018
277.6214	-0.001557
277.8310	-0.000228
278.0407	0.000510
278.2503	0.000067
278.4600	0.000531
278.6697	0.000341
278.8794	0.001311
279.0891	0.000404
279.2989	0.001058
279.5086	0.001205
279.7184	0.000742
279.9281	-0.000397
280.1379	0.000657
280.3477	-0.000271
280.5576	0.000467
280.7674	-0.000102
280.9772	0.001416
281.1871	0.000678
281.3970	0.000467
281.6069	0.000974
281.8168	0.000004
282.0267	0.001480
282.2366	0.001332
282.4466	0.001501
282.6565	0.000784
282.8665	0.000278
283.0765	0.001079
283.2865	0.000931
283.4965	0.001943
283.7065	-0.001198
283.9166	0.000383
284.1266	0.000636
284.3367	0.001184
284.5468	0.001121
284.7569	0.001121
284.9670	0.000657
285.1771	0.000467
285.3873	0.001437
285.5974	-0.000165
285.8076	0.000699
286.0178	0.000489
286.2280	0.000594
286.4382	0.000510
286.6484	-0.000207
286.8587	0.001416
287.0689	0.001248
287.2792	0.001311
287.4895	0.000046
287.6998	0.000868
287.9101	-0.000587
288.1204	0.000362
288.3308	0.000446
288.5411	0.001648
288.7515	0.000995
288.9619	0.000257
289.1723	0.001205
289.3827	0.000742
289.5931	-0.000629
289.8035	0.000720
290.0140	-0.000081
290.2245	0.000235
290.4349	-0.000081
290.6454	0.002070
290.8559	-0.000123
291.0665	0.001332
291.2770	-0.000018
291.4875	0.001922
291.6981	0.000025
291.9087	0.001353
292.1193	-0.000334
292.3299	0.001163
292.5405	0.000046
292.7511	0.001079
292.9618	0.000889
293.1724	0.001079
293.3831	0.000995
293.5938	0.001100
293.8045	0.000425
294.0152	0.000678
294.2260	-0.000481
294.4367	0.001817
294.6475	0.001205
294.8582	0.000931
295.0690	0.001311
295.2798	0.001121
295.4906	0.001395
295.7015	0.001184
295.9123	0.001712
296.1232	0.002323
296.3340	-0.000355
296.5449	0.001796
296.7558	0.000362
296.9667	0.000995
297.1777	0.000573
297.3886	0.000278
297.5995	0.000004
297.8105	0.001880
298.0215	0.001311
298.2325	0.000826
298.4435	0.001943
298.6545	0.000425
298.8656	0.001416
299.0766	-0.000102
299.2877	0.000889
299.4988	0.001627
299.7099	0.000636
299.9210	0.000910
300.1321	-0.000271
300.3432	0.000467
300.5544	0.000489
300.7655	-0.000186
300.9767	0.000805
301.1879	0.000805
301.3991	0.000278
301.6103	0.000573
301.8215	0.000657
302.0328	0.001965
302.2441	-0.000250
302.4553	0.000193
302.6666	0.002513
302.8779	0.000931
303.0892	-0.000671
303.3006	0.000552
303.5119	0.000446
303.7233	-0.000250
303.9346	0.000868
304.1460	0.000489
304.3574	-0.000882
304.5688	0.001437
304.7803	-0.000144
304.9917	0.001458
305.2031	0.000573
305.4146	0.000446
305.6261	0.001395
305.8376	0.000172
306.0491	0.000278
306.2606	0.001353
306.4722	0.001374
306.6837	0.001353
306.8953	0.000193
307.1069	0.001501
307.3184	0.001311
307.5301	0.000130
307.7417	-0.001262
307.9533	0.000214
308.1650	-0.000207
308.3766	0.001079
308.5883	0.000847
308.8000	0.001100
309.0117	0.000573
309.2234	0.001163
309.4351	0.000088
309.6469	0.001290
309.8586	0.001058
310.0704	0.000320
310.2822	0.000193
310.4940	0.001100
310.7058	-0.000186
310.9176	0.002428
311.1295	0.000720
311.3413	0.001627
311.5532	0.001585
311.7651	0.001395
311.9770	-0.000081
312.1889	0.000699
312.4008	0.000235
312.6127	0.001269
312.8247	0.001100
313.0366	0.000763
313.2486	0.000847
313.4606	-0.000376
313.6726	0.000151
313.8846	0.000151
314.0967	0.001859
314.3087	0.001058
314.5208	0.000826
314.7328	0.000720
314.9449	0.000974
315.1570	0.001121
315.3692	0.001458
315.5813	0.002576
315.7934	-0.000123
316.0056	0.000341
316.2177	0.001374
316.4299	0.001901
316.6421	0.001733
316.8543	0.000931
317.0666	0.000847
317.2788	0.001880
317.4911	0.000763
317.7033	0.002534
317.9156	0.001121
318.1279	0.000931
318.3402	0.000636
318.5525	0.000341
318.7649	-0.000671
318.9772	-0.000756
319.1896	0.000826
319.4019	-0.000018
319.6143	0.000383
319.8267	0.000109
320.0392	-0.000039
320.2516	0.000636
320.4640	0.000510
320.6765	0.000446
320.8890	0.000952
321.1014	0.001142
321.3139	0.000952
321.5265	0.001353
321.7390	-0.000123
321.9515	0.000257
322.1641	0.000742
322.3766	0.000720
322.5892	-0.000144
322.8018	0.001332
323.0144	0.000952
323.2270	0.001142
323.4397	0.001395
323.6523	-0.000629
323.8650	0.001437
324.0777	0.001121
324.2904	0.000278
324.5031	0.000910
324.7158	-0.000081
324.9285	0.000995
325.1412	-0.000123
325.3540	0.000995
325.5668	-0.000039
325.7796	0.001142
325.9924	-0.000228
326.2052	-0.000123
326.4180	-0.000460
326.6308	0.001290
326.8437	0.000004
327.0566	0.001943
327.2694	0.000573
327.4823	0.000699
327.6952	0.001079
327.9082	0.002028
328.1211	0.000531
328.3340	0.001648
328.5470	0.000615
328.7600	0.001564
328.9730	0.000172
329.1860	0.000552
329.3990	0.000467
329.6120	0.001775
329.8251	0.000573
330.0381	0.000446
330.2512	0.000151
330.4643	0.000931
330.6774	0.001353
330.8905	0.002197
331.1036	-0.000271
331.3167	0.000109
331.5299	0.000257
331.7431	0.000847
331.9562	0.001016
332.1694	0.001290
332.3826	0.000467
332.5959	0.001859
332.8091	0.000847
333.0223	0.001901
333.2356	0.001606
333.4489	0.001733
333.6622	0.002154
333.8755	-0.000608
334.0888	0.002070
334.3021	0.000235
334.5154	0.000636
334.7288	0.000362
334.9422	0.000362
335.1555	0.001269
335.3689	0.000025
335.5823	0.000952
335.7958	-0.000313
336.0092	0.000510
336.2227	0.000910
336.4361	0.001437
336.6496	0.001058
336.8631	0.000678
337.0766	0.000467
337.2901	0.000636
337.5036	0.000299
337.7172	0.001205
337.9307	-0.000650
338.1443	0.002175
338.3579	0.001269
338.5715	0.000467
338.7851	0.000446
338.9987	-0.000144
339.2124	0.001269
339.4260	0.000763
339.6397	0.000510
339.8533	-0.000503
340.0670	0.000742
340.2807	0.001986
340.4945	0.001016
340.7082	0.000699
340.9219	0.000699
341.1357	0.001480
341.3495	0.000742
341.5633	0.000467
341.7771	-0.000144
341.9909	0.001965
342.2047	0.000678
342.4185	0.001142
342.6324	0.000130
342.8463	0.001564
343.0601	0.000341
343.2740	0.002428
343.4879	-0.000376
343.7019	0.001458
343.9158	0.001437
344.1297	0.000636
344.3437	0.001817
344.5577	0.000320
344.7717	0.001480
344.9857	0.001754
345.1997	-0.000165
345.4137	0.000889
345.6277	0.001501
345.8418	0.001754
346.0559	0.000257
346.2699	0.000974
346.4840	0.000320
346.6981	0.001458
346.9123	0.000974
347.1264	0.000995
347.3406	0.000678
347.5547	0.000425
347.7689	0.000425
347.9831	0.001269
348.1973	0.001100
348.4115	0.001712
348.6257	0.000552
348.8400	0.001437
349.0542	0.001986
349.2685	-0.000376
349.4828	0.000847
349.6971	-0.000018
349.9114	-0.000966
350.1257	0.001269
350.3400	0.001564
350.5544	0.001754
350.7687	0.000868
350.9831	0.000720
351.1975	0.001163
351.4119	0.002133
351.6263	-0.000186
351.8407	0.000657
352.0552	0.002154
352.2696	0.000805
352.4841	0.001227
352.6986	0.000889
352.9131	0.000510
353.1276	0.000088
353.3421	0.000109
353.5566	0.001016
353.7712	-0.000756
353.9858	0.001184
354.2003	0.000299
354.4149	0.000510
354.6295	0.000278
354.8441	0.000952
355.0588	0.000425
355.2734	-0.000060
355.4881	0.001353
355.7027	0.000552
355.9174	-0.000418
356.1321	0.001480
356.3468	0.000025
356.5615	0.002745
356.7763	0.000299
356.9910	0.001016
357.2058	0.001079
357.4206	0.000889
357.6353	0.002091
357.8501	0.001100
358.0650	0.000046
358.2798	0.000742
358.4946	0.000910
358.7095	0.001690
358.9243	0.000067
359.1392	0.001690
359.3541	0.000299
359.5690	0.001395
359.7839	0.002450
359.9989	0.001016
360.2138	0.001227
360.4288	0.002302
360.6438	0.001163
360.8587	0.001395
361.0737	0.000214
361.2888	0.002070
361.5038	0.000826
361.7188	0.000214
361.9339	0.000699
362.1489	0.000573
362.3640	0.001606
362.5791	0.000868
362.7942	0.001332
363.0093	0.000046
363.2245	0.001142
363.4396	0.001374
363.6548	0.000193
363.8699	0.000151
364.0851	-0.000271
364.3003	-0.000060
364.5155	0.000214
364.7308	0.001269
364.9460	0.001227
365.1612	0.002112
365.3765	0.000425
365.5918	0.001184
365.8071	0.002028
366.0224	0.000657
366.2377	0.001248
366.4530	0.000257
366.6684	-0.001009
366.8837	-0.000439
367.0991	0.001290
367.3145	0.000404
367.5299	0.000594
367.7453	0.001543
367.9607	0.000214
368.1761	0.002197
368.3916	-0.000060
368.6070	0.000341
368.8225	-0.000503
369.0380	-0.001283
369.2535	0.000404
369.4690	0.001585
369.6845	0.000615
369.9001	0.000995
370.1156	0.000720
370.3312	0.001501
370.5468	0.001016
370.7624	0.000193
370.9780	0.000678
371.1936	0.001648
371.4092	-0.000924
371.6249	0.002260
371.8405	0.000235
372.0562	0.000763
372.2719	0.000383
372.4876	0.001564
372.7033	0.001754
372.9190	0.000193
373.1348	0.001311
373.3505	0.001016
373.5663	0.000088
373.7820	0.001311
373.9978	0.000657
374.2136	0.000299
374.4294	0.001416
374.6453	0.000805
374.8611	0.000763
375.0770	0.000974
375.2928	0.001733
375.5087	0.000446
375.7246	-0.000777
375.9405	0.001754
376.1564	0.000699
376.3724	0.000763
376.5883	0.002239
376.8043	0.000172
377.0203	0.000678
377.2362	0.001205
377.4522	0.001648
377.6682	0.000531
377.8843	-0.000313
378.1003	0.000404
378.3164	-0.001220
378.5324	0.001311
378.7485	0.001669
378.9646	0.001690
379.1807	0.001100
379.3968	0.003209
379.6129	0.000678
379.8291	0.000552
380.0452	0.000172
380.2614	-0.000608
380.4776	0.000594
380.6938	0.000699
380.9100	0.001669
381.1262	0.000383
381.3424	0.000784
381.5587	0.000868
381.7749	0.000678
381.9912	0.001669
382.2075	0.001079
382.4238	0.001501
382.6401	0.001395
382.8564	0.002365
383.0728	-0.000039
383.2891	0.001227
383.5055	0.000362
383.7219	0.001290
383.9382	0.000678
384.1546	0.000425
384.3711	0.000467
384.5875	0.000805
384.8039	0.001037
385.0204	0.000784
385.2368	0.000320
385.4533	0.001901
385.6698	0.000910
385.8863	0.002133
386.1028	0.001395
386.3194	0.000531
386.5359	0.000214
386.7525	0.000826
386.9690	0.001332
387.1856	0.000004
387.4022	0.000889
387.6188	0.000467
387.8355	0.002091
388.0521	0.001648
388.2687	0.000214
388.4854	0.000974
388.7021	0.001184
388.9188	0.000995
389.1355	0.001248
389.3522	0.001142
389.5689	0.001733
389.7856	0.002112
390.0024	-0.000250
390.2192	0.000826
390.4359	0.001458
390.6527	0.001395
390.8695	0.001395
391.0863	0.001922
391.3032	0.001501
391.5200	0.002302
391.7369	0.001922
391.9537	0.002555
392.1706	0.000910
392.3875	0.000678
392.6044	0.002133
392.8213	0.003167
393.0383	0.000383
393.2552	0.001227
393.4722	0.002450
393.6891	0.002998
393.9061	0.001585
394.1231	0.003040
394.3401	0.001353
394.5572	0.003778
394.7742	0.002829
394.9912	0.001922
395.2083	0.001922
395.4254	0.003335
395.6425	0.002808
395.8596	0.002471
396.0767	0.002618
396.2938	0.002028
396.5109	0.003293
396.7281	0.003778
396.9453	0.002829
397.1624	0.003567
397.3796	0.003462
397.5968	0.004411
397.8140	0.002766
398.0313	0.004347
398.2485	0.002913
398.4658	0.004115
398.6830	0.003883
398.9003	0.003441
399.1176	0.002450
399.3349	0.004600
399.5522	0.003757
399.7696	0.004980
399.9869	0.005022
400.2043	0.005486
400.4216	0.003251
400.6390	0.004052
400.8564	0.004263
401.0738	0.003124
401.2912	0.004368
401.5087	0.003778
401.7261	0.004643
401.9436	0.003757
402.1610	0.004284
402.3785	0.006351
402.5960	0.004031
402.8135	0.005360
403.0310	0.004980
403.2486	0.005697
403.4661	0.004727
403.6837	0.004917
403.9013	0.006098
404.1189	0.005275
404.3365	0.005887
404.5541	0.005486
404.7717	0.006393
404.9893	0.006540
405.2070	0.006034
405.4246	0.006772
405.6423	0.006055
405.8600	0.006625
406.0777	0.005592
406.2954	0.006456
406.5131	0.006604
406.7309	0.007447
406.9486	0.005887
407.1664	0.006435
407.3842	0.006772
407.6020	0.005170
407.8198	0.007553
408.0376	0.006857
408.2554	0.007489
408.4733	0.007468
408.6911	0.006625
408.9090	0.007089
409.1269	0.007489
409.3448	0.007194
409.5627	0.006857
409.7806	0.008059
409.9985	0.008459
410.2165	0.007447
410.4344	0.008080
410.6524	0.007194
410.8704	0.006983
411.0884	0.008417
411.3064	0.008291
411.5244	0.008122
411.7424	0.007911
411.9605	0.008122
412.1785	0.008712
412.3966	0.008755
412.6147	0.011116
412.8328	0.007574
413.0509	0.009914
413.2690	0.009535
413.4871	0.008691
413.7053	0.008038
413.9234	0.010231
414.1416	0.010231
414.3598	0.008881
414.5780	0.010589
414.7962	0.009113
415.0144	0.011454
415.2326	0.010357
415.4509	0.009008
415.6692	0.010294
415.8874	0.009282
416.1057	0.010273
416.3240	0.010758
416.5423	0.009577
416.7606	0.010800
416.9790	0.011032
417.1973	0.011222
417.4157	0.011074
417.6341	0.010273
417.8524	0.010315
418.0708	0.010694
418.2893	0.010188
418.5077	0.011011
418.7261	0.012107
418.9446	0.013141
419.1630	0.012065
419.3815	0.011411
419.6000	0.012297
419.8185	0.012740
420.0370	0.011770
420.2555	0.011812
420.4741	0.012951
420.6926	0.012529
420.9112	0.012951
421.1298	0.012318
421.3483	0.014849
421.5669	0.013963
421.7856	0.015081
422.0042	0.015861
422.2228	0.015587
422.4415	0.013267
422.6601	0.014954
422.8788	0.014237
423.0975	0.015608
423.3162	0.015334
423.5349	0.015566
423.7536	0.014596
423.9724	0.014870
424.1911	0.013689
424.4099	0.016051
424.6287	0.014912
424.8475	0.013858
425.0663	0.014195
425.2851	0.015650
425.5039	0.016388
425.7228	0.015755
425.9416	0.012888
426.1605	0.014743
426.3793	0.013141
426.5982	0.013583
426.8171	0.013541
427.0361	0.012698
427.2550	0.015165
427.4739	0.017168
427.6929	0.014870
427.9118	0.014132
428.1308	0.015755
428.3498	0.014321
428.5688	0.015144
428.7878	0.015566
429.0068	0.015291
429.2259	0.015671
429.4449	0.015481
429.6640	0.016409
429.8831	0.018075
430.1022	0.017548
430.3213	0.017569
430.5404	0.017885
430.7595	0.016936
430.9787	0.017379
431.1978	0.017400
431.4170	0.016599
431.6362	0.016725
431.8553	0.018075
432.0745	0.012993
432.2938	0.016704
432.5130	0.014469
432.7322	0.016557
432.9515	0.014806
433.1707	0.014849
433.3900	0.016957
433.6093	0.017632
433.8286	0.018707
434.0479	0.018412
434.2673	0.019403
434.4866	0.016915
434.7059	0.015924
434.9253	0.019129
435.1447	0.016325
435.3641	0.016957
435.5835	0.016725
435.8029	0.018349
436.0223	0.015966
436.2418	0.015819
436.4612	0.017421
436.6807	0.019699
436.9001	0.018433
437.1196	0.016746
437.3391	0.017527
437.5586	0.015376
437.7782	0.017611
437.9977	0.018075
438.2173	0.017126
438.4368	0.017527
438.6564	0.019277
438.8760	0.016536
439.0956	0.018138
439.3152	0.017801
439.5348	0.018244
439.7545	0.017780
439.9741	0.015650
440.1938	0.017042
440.4135	0.017147
440.6331	0.016135
440.8528	0.019656
441.0725	0.019488
441.2923	0.020226
441.5120	0.020626
441.7318	0.021934
441.9515	0.019551
442.1713	0.022102
442.3911	0.020879
442.6109	0.019530
442.8307	0.019382
443.0505	0.019783
443.2703	0.021006
443.4902	0.018897
443.7101	0.020521
443.9299	0.021322
444.1498	0.019572
444.3697	0.019867
444.5896	0.020205
444.8095	0.019614
445.0295	0.019488
445.2494	0.018307
445.4694	0.019720
445.6894	0.019192
445.9093	0.019614
446.1293	0.019783
446.3493	0.020479
446.5694	0.019087
446.7894	0.020310
447.0094	0.020099
447.2295	0.017295
447.4496	0.018286
447.6696	0.018075
447.8897	0.017759
448.1098	0.017590
448.3300	0.019783
448.5501	0.017653
448.7702	0.017906
448.9904	0.018918
449.2106	0.018201
449.4307	0.017295
449.6509	0.016599
449.8711	0.017843
450.0914	0.017084
450.3116	0.018391
450.5318	0.018729
450.7521	0.018117
450.9724	0.017379
451.1926	0.017653
451.4129	0.016198
451.6332	0.015776
451.8535	0.016472
452.0739	0.014638
452.2942	0.016051
452.5146	0.016599
452.7349	0.015819
452.9553	0.016725
453.1757	0.015481
453.3961	0.014237
453.6165	0.014574
453.8369	0.016093
454.0574	0.013984
454.2778	0.015650
454.4983	0.013162
454.7188	0.014364
454.9393	0.015481
455.1597	0.014638
455.3803	0.015165
455.6008	0.015291
455.8213	0.014005
456.0419	0.013942
456.2624	0.016767
456.4830	0.014258
456.7036	0.013035
456.9242	0.014427
457.1448	0.014701
457.3654	0.015840
457.5860	0.014933
457.8067	0.015334
458.0274	0.014954
458.2480	0.015797
458.4687	0.013604
458.6894	0.013815
458.9101	0.013921
459.1308	0.016683
459.3516	0.012360
459.5723	0.014448
459.7931	0.013541
460.0138	0.015502
460.2346	0.015334
460.4554	0.013963
460.6762	0.013415
460.8970	0.012571
461.1178	0.014047
461.3387	0.015376
461.5595	0.013141
461.7804	0.012866
462.0013	0.011306
462.2222	0.012656
462.4431	0.011201
462.6640	0.010505
462.8849	0.011306
463.1059	0.011770
463.3268	0.011791
463.5478	0.012719
463.7687	0.013119
463.9897	0.010167
464.2107	0.012529
464.4317	0.012951
464.6528	0.011812
464.8738	0.013415
465.0948	0.012613
465.3159	0.012318
465.5370	0.011707
465.7581	0.014005
465.9792	0.011496
466.2003	0.011433
466.4214	0.011390
466.6425	0.009914
466.8637	0.011918
467.0848	0.010357
467.3060	0.010863
467.5272	0.010125
467.7484	0.010779
467.9696	0.009703
468.1908	0.010694
468.4120	0.009535
468.6333	0.010020
468.8545	0.009682
469.0758	0.008438
469.2970	0.008375
469.5183	0.009261
469.7396	0.009429
469.9610	0.007932
470.1823	0.007679
470.4036	0.007405
470.6250	0.008375
470.8463	0.007342
471.0677	0.007869
471.2891	0.006730
471.5105	0.006583
471.7319	0.005887
471.9533	0.006646
472.1748	0.006920
472.3962	0.006414
472.6177	0.006435
472.8391	0.006962
473.0606	0.008354
473.2821	0.005423
473.5036	0.007468
473.7251	0.007236
473.9467	0.007257
474.1682	0.007426
474.3898	0.008185
474.6113	0.008122
474.8329	0.008016
475.0545	0.007489
475.2761	0.007869
475.4977	0.007742
475.7193	0.007869
475.9410	0.008586
476.1626	0.007025
476.3843	0.005950
476.6060	0.007721
476.8277	0.005887
477.0494	0.006372
477.2711	0.006287
477.4928	0.004832
477.7145	0.005992
477.9363	0.005971
478.1580	0.006098
478.3798	0.006899
478.6016	0.005402
478.8234	0.007046
479.0452	0.005655
479.2670	0.004980
479.4888	0.006055
479.7107	0.006625
479.9325	0.005402
480.1544	0.006899
480.3763	0.005085
480.5982	0.005170
480.8201	0.005402
481.0420	0.006034
481.2639	0.006414
481.4859	0.006878
481.7078	0.005275
481.9298	0.005360
482.1517	0.005317
482.3737	0.005971
482.5957	0.006920
482.8177	0.005887
483.0398	0.003483
483.2618	0.004832
483.4838	0.006098
483.7059	0.004179
483.9280	0.004453
484.1501	0.005908
484.3721	0.004453
484.5943	0.006245
484.8164	0.006519
485.0385	0.005528
485.2606	0.006561
485.4828	0.005781
485.7050	0.010589
485.9271	0.015629
486.1493	0.014469
486.3715	0.013436
486.5937	0.010758
486.8160	0.008733
487.0382	0.008818
487.2605	0.006540
487.4827	0.007068
487.7050	0.005149
487.9273	0.004516
488.1496	0.004600
488.3719	0.004495
488.5942	0.004305
488.8165	0.006287
489.0389	0.004179
489.2612	0.004094
489.4836	0.004368
489.7060	0.003504
489.9284	0.004221
490.1508	0.003251
490.3732	0.004622
490.5956	0.003462
490.8180	0.003947
491.0405	0.003293
491.2630	0.004748
491.4854	0.004073
491.7079	0.003567
491.9304	0.002745
492.1529	0.003673
492.3755	0.004158
492.5980	0.004706
492.8205	0.004221
493.0431	0.003356
493.2657	0.002956
493.4882	0.004453
493.7108	0.004516
493.9334	0.004115
494.1561	0.003019
494.3787	0.005128
494.6013	0.003293
494.8240	0.002871
495.0466	0.004727
495.2693	0.004115
495.4920	0.002513
495.7147	0.004811
495.9374	0.003799
496.1601	0.003420
496.3829	0.003841
496.6056	0.004495
496.8284	0.002049
497.0511	0.003715
497.2739	0.004368
497.4967	0.004453
497.7195	0.004685
497.9423	0.003188
498.1652	0.002703
498.3880	0.004368
498.6109	0.002682
498.8337	0.005107
499.0566	0.002956
499.2795	0.003546
499.5024	0.002766
499.7253	0.003209
499.9482	0.003462
500.1712	0.003820
500.3941	0.003609
500.6171	0.003841
500.8400	0.002344
501.0630	0.002682
501.2860	0.002597
501.5090	0.004685
501.7320	0.002218
501.9551	0.003082
502.1781	0.002450
502.4012	0.004347
502.6242	0.003736
502.8473	0.004411
503.0704	0.004031
503.2935	0.003462
503.5166	0.002133
503.7397	0.002850
503.9628	0.002471
504.1860	0.002471
504.4092	0.003546
504.6323	0.001838
504.8555	0.002323
505.0787	0.002007
505.3019	0.003356
505.5251	0.002787
505.7483	0.002175
505.9716	0.002808
506.1948	0.002028
506.4181	0.002956
506.6414	0.003905
506.8647	0.004347
507.0880	0.003019
507.3113	0.001205
507.5346	0.003483
507.7579	0.004980
507.9813	0.003609
508.2046	0.002534
508.4280	0.002913
508.6514	0.002597
508.8748	0.003588
509.0982	0.003630
509.3216	0.001901
509.5450	0.002660
509.7685	0.001332
509.9919	0.003841
510.2154	0.001690
510.4388	0.003251
510.6623	0.002956
510.8858	0.005296
511.1093	0.001627
511.3329	0.002154
511.5564	0.001395
511.7799	0.002576
512.0035	0.001585
512.2270	0.004980
512.4506	0.002049
512.6742	0.001817
512.8978	0.003609
513.1214	0.002175
513.3451	0.002218
513.5687	0.002618
513.7923	0.003799
514.0160	0.002534
514.2397	0.002555
514.4634	0.003061
514.6871	0.001838
514.9108	0.002956
515.1345	0.002386
515.3582	0.002281
515.5819	0.002745
515.8057	0.003209
516.0295	0.002956
516.2532	0.003736
516.4770	0.003103
516.7008	0.003630
516.9246	0.002344
517.1485	0.003398
517.3723	0.002639
517.5961	0.002175
517.8200	0.002745
518.0439	0.002302
518.2677	0.002639
518.4916	0.003799
518.7155	0.001690
518.9395	0.002471
519.1634	0.002407
519.3873	0.002935
519.6113	0.004896
519.8352	0.004537
520.0592	0.002323
520.2832	0.003230
520.5072	0.001353
520.7312	0.004516
520.9552	0.002682
521.1792	0.002829
521.4033	0.003905
521.6273	0.002956
521.8514	0.002829
522.0755	0.002745
522.2996	0.002660
522.5237	0.003103
522.7478	0.003883
522.9719	0.004115
523.1960	0.002597
523.4202	0.002323
523.6443	0.001079
523.8685	0.002407
524.0927	0.003335
524.3169	0.004411
524.5411	0.003968
524.7653	0.003462
524.9895	0.003968
525.2138	0.004073
525.4380	0.003525
525.6623	0.003546
525.8865	0.004137
526.1108	0.004453
526.3351	0.003609
526.5594	0.004811
526.7837	0.005149
527.0081	0.003272
527.2324	0.004010
527.4568	0.002850
527.6811	0.004158
527.9055	0.004411
528.1299	0.003715
528.3543	0.003209
528.5787	0.004347
528.8031	0.002808
529.0276	0.004896
529.2520	0.003968
529.4765	0.005950
529.7009	0.003167
529.9254	0.004558
530.1499	0.004411
530.3744	0.004432
530.5989	0.004305
530.8234	0.003652
531.0480	0.004811
531.2725	0.004959
531.4971	0.004600
531.7217	0.004411
531.9462	0.004980
532.1708	0.006203
532.3954	0.005992
532.6200	0.003694
532.8447	0.006161
533.0693	0.005929
533.2940	0.005043
533.5186	0.006266
533.7433	0.005149
533.9680	0.005064
534.1927	0.005908
534.4174	0.006962
534.6421	0.005423
534.8668	0.006287
535.0916	0.006330
535.3163	0.007363
535.5411	0.006498
535.7659	0.006435
535.9907	0.007468
536.2155	0.007553
536.4403	0.006477
536.6651	0.006182
536.8899	0.005971
537.1148	0.005823
537.3396	0.005549
537.5645	0.008396
537.7894	0.005613
538.0143	0.007974
538.2392	0.006372
538.4641	0.007110
538.6890	0.009450
538.9139	0.008185
539.1389	0.007890
539.3638	0.008839
539.5888	0.008902
539.8138	0.007342
540.0388	0.009303
540.2638	0.008122
540.4888	0.008459
540.7138	0.010062
540.9389	0.009493
541.1639	0.008333
541.3890	0.008776
541.6140	0.008417
541.8391	0.008649
542.0642	0.009429
542.2893	0.009493
542.5144	0.009535
542.7396	0.009788
542.9647	0.010420
543.1899	0.011201
543.4150	0.009978
543.6402	0.011664
543.8654	0.011285
544.0906	0.010631
544.3158	0.010547
544.5410	0.012255
544.7662	0.012149
544.9915	0.011728
545.2167	0.011327
545.4420	0.012403
545.6673	0.010948
545.8926	0.010673
546.1179	0.012339
546.3432	0.012044
546.5685	0.012276
546.7938	0.010652
547.0192	0.012360
547.2445	0.013162
547.4699	0.013014
547.6953	0.013267
547.9206	0.015502
548.1460	0.015945
548.3715	0.015081
548.5969	0.016051
548.8223	0.016936
549.0478	0.016662
549.2732	0.014132
549.4987	0.015144
549.7242	0.014153
549.9496	0.013815
550.1751	0.015713
550.4007	0.013710
550.6262	0.014469
550.8517	0.012571
551.0773	0.014764
551.3028	0.012993
551.5284	0.015102
551.7540	0.015418
551.9796	0.018433
552.2052	0.016999
552.4308	0.016072
552.6564	0.018433
552.8820	0.019319
553.1077	0.017400
553.3333	0.019150
553.5590	0.017105
553.7847	0.017611
554.0104	0.018201
554.2361	0.018201
554.4618	0.018391
554.6875	0.016999
554.9132	0.016536
555.1390	0.018686
555.3648	0.020626
555.5905	0.022313
555.8163	0.019677
556.0421	0.021428
556.2679	0.020479
556.4937	0.021280
556.7195	0.019593
556.9454	0.022102
557.1712	0.020795
557.3971	0.019825
557.6230	0.019256
557.8488	0.020120
558.0747	0.021364
558.3006	0.020310
558.5266	0.019614
558.7525	0.020584
558.9784	0.020437
559.2044	0.020352
559.4303	0.018918
559.6563	0.020500
559.8823	0.022124
560.1083	0.023304
560.3343	0.024085
560.5603	0.024865
560.7863	0.024675
561.0124	0.026046
561.2384	0.028028
561.4645	0.027269
561.6905	0.025856
561.9166	0.027754
562.1427	0.027269
562.3688	0.026299
562.5949	0.026067
562.8211	0.027711
563.0472	0.027016
563.2733	0.030284
563.4995	0.028260
563.7257	0.028513
563.9519	0.028660
564.1781	0.030537
564.4043	0.030390
564.6305	0.030664
564.8567	0.030579
565.0829	0.030094
565.3092	0.033025
565.5355	0.030790
565.7617	0.031929
565.9880	0.032055
566.2143	0.032161
566.4406	0.033110
566.6669	0.032224
566.8932	0.035261
567.1196	0.035535
567.3459	0.039330
567.5723	0.041376
567.7987	0.042430
568.0250	0.043063
568.2514	0.046647
568.4778	0.046837
568.7043	0.050738
568.9307	0.054028
569.1571	0.055820
569.3836	0.059763
569.6100	0.067776
569.8365	0.071973
570.0630	0.078299
570.2895	0.080956
570.5160	0.079585
570.7425	0.083887
570.9690	0.085152
571.1956	0.091457
571.4221	0.097234
571.6487	0.099512
571.8752	0.102274
572.1018	0.108621
572.3284	0.103033
572.5550	0.098226
572.7816	0.094535
573.0082	0.090803
573.2349	0.100166
573.4615	0.106323
573.6882	0.115770
573.9149	0.119481
574.1415	0.124247
574.3682	0.131859
574.5949	0.134600
574.8216	0.135570
575.0484	0.135697
575.2751	0.134157
575.5018	0.141559
575.7286	0.129708
575.9554	0.122644
576.1821	0.119945
576.4089	0.127684
576.6357	0.133483
576.8626	0.139092
577.0894	0.145207
577.3162	0.144722
577.5431	0.149572
577.7699	0.165830
577.9968	0.197881
578.2237	0.186727
578.4505	0.176415
578.6774	0.166251
578.9044	0.159461
579.1313	0.144869
579.3582	0.148813
579.5851	0.156783
579.8121	0.159377
580.0391	0.163152
580.2660	0.163341
580.4930	0.162962
580.7200	0.156467
580.9470	0.159609
581.1741	0.189615
581.4011	0.231030
581.6281	0.251568
581.8552	0.256798
582.0822	0.247393
582.3093	0.239844
582.5364	0.218462
582.7635	0.206169
582.9906	0.185883
583.2177	0.171671
583.4449	0.161591
583.6720	0.152482
583.8991	0.144068
584.1263	0.149002
584.3535	0.155223
584.5807	0.152165
584.8079	0.160895
585.0351	0.177533
585.2623	0.183859
585.4895	0.185883
585.7167	0.188983
585.9440	0.179916
586.1713	0.166842
586.3985	0.156277
586.6258	0.156298
586.8531	0.158302
587.0804	0.169014
587.3077	0.176478
587.5350	0.175129
587.7624	0.177322
587.9897	0.167348
588.2171	0.162667
588.4445	0.157775
588.6718	0.152629
588.8992	0.145312
589.1266	0.139218
589.3540	0.131479
589.5815	0.127557
589.8089	0.130847
590.0363	0.126482
590.2638	0.119903
590.4913	0.117372
590.7187	0.111658
590.9462	0.108432
591.1737	0.102316
591.4012	0.100714
591.6288	0.103350
591.8563	0.103982
592.0838	0.107398
592.3114	0.101262
592.5389	0.122180
592.7665	0.142529
592.9941	0.157458
593.2217	0.160895
593.4493	0.159588
593.6769	0.160242
593.9046	0.151111
594.1322	0.148032
594.3598	0.139176
594.5875	0.137721
594.8152	0.141580
595.0429	0.154253
595.2705	0.155792
595.4983	0.148623
595.7260	0.145607
595.9537	0.136076
596.1814	0.125849
596.4092	0.119755
596.6369	0.111384
596.8647	0.108136
597.0925	0.115411
597.3203	0.116276
597.5481	0.118827
597.7759	0.117731
598.0037	0.113935
598.2315	0.109296
598.4594	0.107925
598.6872	0.124310
598.9151	0.135233
599.1430	0.147822
599.3709	0.148285
599.5988	0.143457
599.8267	0.140125
600.0546	0.144279
600.2825	0.147147
600.5105	0.143014
600.7384	0.144637
600.9664	0.145607
601.1944	0.150268
601.4223	0.141074
601.6503	0.139113
601.8783	0.132091
602.1064	0.132386
602.3344	0.130067
602.5624	0.130636
602.7905	0.135950
603.0185	0.139134
603.2466	0.142697
603.4747	0.150795
603.7028	0.151575
603.9309	0.143710
604.1590	0.138269
604.3871	0.134221
604.6152	0.131079
604.8434	0.123256
605.0715	0.124985
605.2997	0.125153
605.5279	0.129560
605.7561	0.134263
605.9843	0.139809
606.2125	0.137341
606.4407	0.129708
606.6689	0.122412
606.8972	0.122728
607.1254	0.124942
607.3537	0.127157
607.5819	0.125174
607.8102	0.126840
608.0385	0.122644
608.2668	0.119312
608.4951	0.117731
608.7235	0.117668
608.9518	0.111742
609.1801	0.114505
609.4085	0.106892
609.6369	0.106007
609.8653	0.114273
610.0936	0.120767
610.3220	0.118532
610.5505	0.118068
610.7789	0.113281
611.0073	0.109486
611.2357	0.108706
611.4642	0.111995
611.6927	0.110667
611.9211	0.109359
612.1496	0.110751
612.3781	0.103371
612.6066	0.104509
612.8351	0.103350
613.0637	0.104467
613.2922	0.103350
613.5208	0.099702
613.7493	0.103940
613.9779	0.101599
614.2065	0.103898
614.4351	0.102148
614.6637	0.099385
614.8923	0.100018
615.1209	0.100018
615.3495	0.103181
615.5782	0.105859
615.8068	0.108474
616.0355	0.102633
616.2642	0.095273
616.4929	0.092406
616.7216	0.089791
616.9503	0.087619
617.1790	0.086586
617.4077	0.087324
617.6365	0.087387
617.8652	0.087092
618.0940	0.087682
618.3227	0.085384
618.5515	0.082832
618.7803	0.076485
619.0091	0.074524
619.2379	0.071994
619.4667	0.072858
619.6956	0.072732
619.9244	0.075853
620.1533	0.076612
620.3821	0.078784
620.6110	0.076042
620.8399	0.071003
621.0688	0.063812
621.2977	0.060269
621.5266	0.059299
621.7556	0.061450
621.9845	0.065056
622.2135	0.066047
622.4424	0.067544
622.6714	0.069168
622.9004	0.067987
623.1294	0.070707
623.3584	0.068831
623.5874	0.069421
623.8164	0.069063
624.0454	0.069421
624.2745	0.069147
624.5035	0.071825
624.7326	0.072183
624.9617	0.073090
625.1908	0.069400
625.4199	0.068093
625.6490	0.065668
625.8781	0.064592
626.1072	0.062631
626.3364	0.058625
626.5655	0.059299
626.7947	0.057233
627.0238	0.057507
627.2530	0.056685
627.4822	0.056642
627.7114	0.059299
627.9406	0.056811
628.1698	0.052299
628.3991	0.048081
628.6283	0.048398
628.8576	0.046943
629.0868	0.048925
629.3161	0.049578
629.5454	0.051434
629.7747	0.050738
630.0040	0.051434
630.2333	0.049536
630.4626	0.049283
630.6920	0.045867
630.9213	0.045403
631.1507	0.042957
631.3801	0.042451
631.6094	0.042810
631.8388	0.042219
632.0682	0.042304
632.2976	0.042999
632.5271	0.038951
632.7565	0.038866
632.9859	0.035661
633.2154	0.036231
633.4448	0.034712
633.6743	0.037875
633.9038	0.035218
634.1333	0.035682
634.3628	0.035682
634.5923	0.032709
634.8218	0.032456
635.0514	0.032393
635.2809	0.031950
635.5105	0.032013
635.7400	0.033131
635.9696	0.033679
636.1992	0.035556
636.4288	0.038171
636.6584	0.039520
636.8880	0.037622
637.1177	0.036863
637.3473	0.034080
637.5770	0.034185
637.8066	0.031950
638.0363	0.032414
638.2660	0.033321
638.4957	0.035008
638.7254	0.035767
638.9551	0.035303
639.1848	0.032161
639.4145	0.032477
639.6443	0.030634
639.8740	0.032432
640.1038	0.030798
640.3336	0.031858
640.5633	0.029209
640.7931	0.031097
641.0229	0.028711
641.2528	0.028495
641.4826	0.026192
641.7124	0.028488
641.9423	0.025286
642.1721	0.025622
642.4020	0.024745
642.6319	0.024839
642.8617	0.023974
643.0916	0.022816
643.3216	0.022328
643.5515	0.024779
643.7814	0.021717
644.0113	0.023439
644.2413	0.023845
644.4712	0.021755
644.7012	0.020917
644.9312	0.022107
645.1612	0.022029
645.3912	0.022845
645.6212	0.020118
645.8512	0.023550
646.0812	0.019462
646.3113	0.019331
646.5413	0.019389
646.7714	0.021293
647.0015	0.021238
647.2316	0.022606
647.4616	0.019670
647.6918	0.021550
647.9219	0.022174
648.1520	0.022553
648.3821	0.025055
648.6123	0.028220
648.8424	0.028741
649.0726	0.029840
649.3028	0.029565
649.5329	0.026298
649.7631	0.026099
649.9933	0.027255
650.2236	0.023839
650.4538	0.024385
650.6840	0.024348
650.9143	0.023925
651.1445	0.022109
651.3748	0.022804
651.6051	0.023301
651.8354	0.025121
652.0657	0.024851
652.2960	0.026654
652.5263	0.026438
652.7566	0.027339
652.9870	0.026166
653.2173	0.027160
653.4477	0.026003
653.6780	0.029412
653.9084	0.026872
654.1388	0.027807
654.3692	0.028013
654.5996	0.030784
654.8300	0.032072
655.0605	0.046162
655.2909	0.129922
655.5213	0.395206
655.7518	0.790694
655.9823	1.013447
656.2128	1.004490
656.4433	1.006725
656.6738	1.005680
656.9043	0.884023
657.1348	0.705432
657.3653	0.574439
657.5959	0.491747
657.8264	0.429339
658.0570	0.386767
658.2875	0.349984
658.5181	0.317316
658.7487	0.301809
658.9793	0.286973
659.2099	0.232071
659.4406	0.166270
659.6712	0.101456
659.9018	0.056562
660.1325	0.038901
660.3632	0.027794
660.5938	0.022622
660.8245	0.021762
661.0552	0.019442
661.2859	0.019594
661.5166	0.018286
661.7474	0.018117
661.9781	0.018551
662.2088	0.019368
662.4396	0.018531
662.6704	0.018308
662.9011	0.018782
663.1319	0.018151
663.3627	0.017638
663.5935	0.017278
663.8243	0.016813
664.0552	0.019043
664.2860	0.017448
664.5168	0.017745
664.7477	0.019002
664.9786	0.017377
665.2094	0.021075
665.4403	0.019419
665.6712	0.020322
665.9021	0.020815
666.1330	0.019281
666.3640	0.017329
666.5949	0.018536
666.8259	0.016892
667.0568	0.017464
667.2878	0.016500
667.5188	0.016836
667.7497	0.017213
667.9807	0.019814
668.2117	0.016653
668.4428	0.018012
668.6738	0.016261
668.9048	0.019129
669.1359	0.018412
669.3669	0.018602
669.5980	0.016578
669.8291	0.017716
670.0602	0.017843
670.2913	0.017358
670.5224	0.016767
670.7535	0.018792
670.9846	0.018096
671.2157	0.019593
671.4469	0.019214
671.6781	0.025940
671.9092	0.024928
672.1404	0.028133
672.3716	0.028133
672.6028	0.029947
672.8340	0.028218
673.0652	0.027226
673.2964	0.025476
673.5277	0.025055
673.7589	0.024274
673.9902	0.023747
674.2214	0.026193
674.4527	0.022419
674.6840	0.021997
674.9153	0.022187
675.1466	0.021702
675.3779	0.022587
675.6093	0.022292
675.8406	0.022313
676.0719	0.021913
676.3033	0.019488
676.5347	0.021175
676.7661	0.018729
676.9974	0.018644
677.2288	0.019551
677.4602	0.018729
677.6917	0.023325
677.9231	0.024443
678.1545	0.024548
678.3860	0.023663
678.6174	0.024928
678.8489	0.024506
679.0804	0.024253
679.3119	0.026278
679.5434	0.029082
679.7749	0.030094
680.0064	0.030305
680.2379	0.028913
680.4694	0.028724
680.7010	0.028154
680.9325	0.026763
681.1641	0.028302
681.3957	0.028302
681.6273	0.031549
681.8589	0.029715
682.0905	0.027079
682.3221	0.026636
682.5537	0.025793
682.7854	0.025455
683.0170	0.023705
683.2487	0.024127
683.4803	0.025371
683.7120	0.025497
683.9437	0.027711
684.1754	0.027458
684.4071	0.028196
684.6388	0.031634
684.8705	0.031971
685.1023	0.033595
685.3340	0.036399
685.5658	0.035071
685.7975	0.034712
686.0293	0.038023
686.2611	0.038466
686.4929	0.035134
686.7247	0.033763
686.9565	0.034312
687.1883	0.035345
687.4202	0.037432
687.6520	0.036188
687.8838	0.033004
688.1157	0.032456
688.3476	0.030516
688.5795	0.031676
688.8114	0.029377
689.0433	0.029441
689.2752	0.030685
689.5071	0.031634
689.7390	0.029778
689.9710	0.029061
690.2029	0.026615
690.4349	0.029082
690.6669	0.028239
690.8988	0.027796
691.1308	0.031992
691.3628	0.031170
691.5948	0.031760
691.8269	0.031676
692.0589	0.032709
692.2909	0.031296
692.5230	0.029905
692.7550	0.030600
692.9871	0.029483
693.2192	0.032140
693.4513	0.031275
693.6834	0.031022
693.9155	0.031106
694.1476	0.029462
694.3797	0.028302
694.6119	0.028555
694.8440	0.028133
695.0762	0.026889
695.3083	0.029019
695.5405	0.026573
695.7727	0.024759
696.0049	0.024717
696.2371	0.022840
696.4693	0.025793
696.7016	0.030453
696.9338	0.031212
697.1660	0.033489
697.3983	0.033236
697.6306	0.032878
697.8628	0.031128
698.0951	0.031212
698.3274	0.031992
698.5597	0.029926
698.7920	0.032519
699.0243	0.029230
699.2567	0.029799
699.4890	0.028829
699.7214	0.026868
699.9537	0.027184
700.1861	0.026235
700.4185	0.026931
700.6509	0.026088
700.8833	0.025877
701.1157	0.023747
701.3481	0.025350
701.5806	0.021913
701.8130	0.023789
702.0454	0.024527
702.2779	0.024802
702.5104	0.025371
702.7429	0.025287
702.9753	0.024253
703.2078	0.024317
703.4403	0.024928
703.6729	0.023684
703.9054	0.023431
704.1379	0.021681
704.3705	0.022461
704.6030	0.021512
704.8356	0.022145
705.0682	0.020141
705.3008	0.019024
705.5334	0.021385
705.7660	0.018665
705.9986	0.018307
706.2312	0.023410
706.4638	0.025518
706.6965	0.028956
706.9291	0.028428
707.1618	0.032034
707.3945	0.032140
707.6272	0.031634
707.8599	0.030853
708.0926	0.029314
708.3253	0.032519
708.5580	0.032920
708.7907	0.029715
709.0235	0.028133
709.2562	0.029968
709.4890	0.027079
709.7217	0.026299
709.9545	0.029272
710.1873	0.030115
710.4201	0.029715
710.6529	0.027163
710.8857	0.028091
711.1186	0.028344
711.3514	0.024527
711.5842	0.026446
711.8171	0.024780
712.0500	0.023557
712.2828	0.024274
712.5157	0.023347
712.7486	0.024612
712.9815	0.023347
713.2144	0.023621
713.4474	0.027205
713.6803	0.027922
713.9132	0.028407
714.1462	0.028070
714.3791	0.027965
714.6121	0.027922
714.8451	0.028639
715.0781	0.027838
715.3111	0.030094
715.5441	0.028260
715.7771	0.027522
716.0102	0.027058
716.2432	0.026889
716.4762	0.024949
716.7093	0.023494
716.9424	0.023895
717.1754	0.024169
717.4085	0.024106
717.6416	0.022250
717.8747	0.022229
718.1078	0.024338
718.3410	0.024274
718.5741	0.022609
718.8072	0.023389
719.0404	0.023663
719.2736	0.025476
719.5067	0.023684
719.7399	0.024253
719.9731	0.023178
720.2063	0.023937
720.4395	0.024949
720.6727	0.023810
720.9060	0.024211
721.1392	0.024823
721.3725	0.023958
721.6057	0.024759
721.8390	0.025265
722.0723	0.023178
722.3055	0.024253
722.5388	0.022651
722.7721	0.023684
723.0055	0.022440
723.2388	0.024338
723.4721	0.022862
723.7055	0.021132
723.9388	0.022124
724.1722	0.022840
724.4056	0.022229
724.6389	0.022250
724.8723	0.023621
725.1057	0.025181
725.3391	0.026067
725.5726	0.027248
725.8060	0.026573
726.0394	0.027058
726.2729	0.028913
726.5063	0.028534
726.7398	0.028154
726.9733	0.027353
727.2068	0.027205
727.4403	0.027079
727.6738	0.024823
727.9073	0.026847
728.1408	0.026320
728.3743	0.028175
728.6079	0.029356
728.8414	0.027859
729.0750	0.027374
729.3086	0.028239
729.5421	0.029820
729.7757	0.031844
730.0093	0.029883
730.2429	0.031085
730.4766	0.029188
730.7102	0.033553
730.9438	0.034291
731.1775	0.034881
731.4111	0.036652
731.6448	0.035703
731.8785	0.035197
732.1122	0.036420
732.3458	0.034269
732.5795	0.034396
732.8133	0.035767
733.0470	0.035851
733.2807	0.034523
733.5145	0.035218
733.7482	0.036357
733.9820	0.038023
734.2157	0.040068
734.4495	0.041819
734.6833	0.042810
734.9171	0.040490
735.1509	0.040385
735.3847	0.038866
735.6185	0.040005
735.8524	0.039098
736.0862	0.040026
736.3201	0.039900
736.5539	0.040680
736.7878	0.038845
737.0217	0.039520
737.2556	0.041080
737.4895	0.041291
737.7234	0.037243
737.9573	0.035176
738.1912	0.035008
738.4252	0.033194
738.6591	0.033384
738.8931	0.035239
739.1271	0.036273
739.3610	0.035977
739.5950	0.038255
739.8290	0.037264
740.0630	0.038719
740.2970	0.033848
740.5310	0.031402
740.7651	0.032688
740.9991	0.031549
741.2332	0.031128
741.4672	0.028977
741.7013	0.029715
741.9354	0.027669
742.1695	0.027796
742.4036	0.028112
742.6377	0.030031
742.8718	0.029166
743.1059	0.029736
743.3400	0.026805
743.5742	0.026488
743.8083	0.024886
744.0425	0.025729
744.2767	0.025097
744.5108	0.023789
744.7450	0.025561
744.9792	0.023600
745.2134	0.023979
745.4477	0.023916
745.6819	0.021807
745.9161	0.023199
746.1504	0.023663
746.3846	0.023072
746.6189	0.024380
746.8532	0.020732
747.0874	0.022819
747.3217	0.025518
747.5560	0.026003
747.7903	0.026805
748.0247	0.025940
748.2590	0.023705
748.4933	0.024190
748.7277	0.023262
748.9620	0.025413
749.1964	0.024844
749.4308	0.026404
749.6652	0.027522
749.8995	0.027817
750.1339	0.029947
750.3684	0.035830
750.6028	0.035197
750.8372	0.034122
751.0717	0.031613
751.3061	0.030432
751.5406	0.032055
751.7750	0.033152
752.0095	0.035071
752.2440	0.033131
752.4785	0.032140
752.7130	0.032667
752.9475	0.029736
753.1820	0.029356
753.4166	0.032203
753.6511	0.032625
753.8856	0.035724
754.1202	0.032098
754.3548	0.032983
754.5894	0.034375
754.8239	0.031191
755.0585	0.034712
755.2931	0.033489
755.5278	0.035556
755.7624	0.035408
755.9970	0.035324
756.2317	0.036947
756.4663	0.038656
756.7010	0.041207
756.9356	0.043759
757.1703	0.044518
757.4050	0.046732
757.6397	0.048608
757.8744	0.051076
758.1091	0.050063
758.3438	0.046289
758.5786	0.043632
758.8133	0.043484
759.0481	0.042810
759.2828	0.043885
759.5176	0.046099
759.7524	0.046584
759.9872	0.048735
760.2220	0.051919
760.4568	0.050928
760.6916	0.052741
760.9264	0.055335
761.1613	0.051329
761.3961	0.051476
761.6310	0.044960
761.8658	0.043231
762.1007	0.041502
762.3356	0.040364
762.5705	0.037601
762.8054	0.039288
763.0403	0.042557
763.2752	0.041502
763.5101	0.040321
763.7450	0.040300
763.9800	0.040342
764.2149	0.041144
764.4499	0.046394
764.6849	0.048735
764.9198	0.050148
765.1548	0.046268
765.3898	0.048503
765.6248	0.045593
765.8599	0.042957
766.0949	0.041776
766.3299	0.038107
766.5650	0.037538
766.8000	0.033995
767.0351	0.030347
767.2701	0.033531
767.5052	0.032709
767.7403	0.032540
767.9754	0.033489
768.2105	0.036125
768.4456	0.035345
768.6808	0.039035
768.9159	0.039457
769.1510	0.040659
769.3862	0.038719
769.6214	0.037728
769.8565	0.035746
770.0917	0.036273
770.3269	0.037707
770.5621	0.038887
770.7973	0.036758
771.0325	0.041460
771.2677	0.040490
771.5030	0.037728
771.7382	0.037116
771.9735	0.035408
772.2087	0.033911
772.4440	0.034670
772.6793	0.032583
772.9146	0.032772
773.1499	0.034185
773.3852	0.034143
773.6205	0.031317
773.8558	0.030875
774.0911	0.028829
774.3265	0.028133
774.5618	0.028913
774.7972	0.026510
775.0326	0.026467
775.2679	0.026025
775.5033	0.025097
775.7387	0.023220
775.9741	0.022735
776.2095	0.021512
776.4450	0.021238
776.6804	0.019888
776.9158	0.022081
777.1513	0.019930
777.3868	0.020605
777.6222	0.020500
777.8577	0.019909
778.0932	0.019488
778.3287	0.021955
778.5642	0.022862
778.7997	0.022461
779.0352	0.024506
779.2707	0.024527
779.5063	0.026910
779.7418	0.025940
779.9774	0.025392
780.2130	0.023979
780.4485	0.022651
780.6841	0.025265
780.9197	0.025223
781.1553	0.028703
781.3909	0.030326
781.6265	0.029525
781.8622	0.027585
782.0978	0.028070
782.3335	0.030537
782.5691	0.026678
782.8048	0.028323
783.0405	0.027775
783.2761	0.027037
783.5118	0.029082
783.7475	0.029588
783.9832	0.026362
784.2190	0.025645
784.4547	0.026109
784.6904	0.025223
784.9262	0.024274
785.1619	0.021828
785.3977	0.023600
785.6335	0.025835
785.8692	0.023768
786.1050	0.023030
786.3408	0.022503
786.5766	0.023747
786.8124	0.019973
787.0483	0.021828
787.2841	0.022840
787.5199	0.025687
787.7558	0.024928
787.9917	0.025814
788.2275	0.025624
788.4634	0.026046
788.6993	0.025012
788.9352	0.027374
789.1711	0.025729
789.4070	0.024949
789.6429	0.024169
789.8789	0.023937
790.1148	0.022883
790.3507	0.022862
790.5867	0.020500
790.8227	0.021575
791.0586	0.020753
791.2946	0.020268
791.5306	0.019024
791.7666	0.019867
792.0026	0.020647
792.2387	0.019424
792.4747	0.019403
792.7107	0.017991
792.9468	0.018876
793.1828	0.020057
793.4189	0.018454
793.6550	0.018307
793.8910	0.022355
794.1271	0.024949
794.3632	0.025708
794.5993	0.028513
794.8355	0.026826
795.0716	0.026910
795.3077	0.026531
795.5439	0.028133
795.7800	0.024042
796.0162	0.021449
796.2523	0.020964
796.4885	0.019930
796.7247	0.017506
796.9609	0.017864
797.1971	0.017527
797.4333	0.020500
797.6695	0.019235
797.9058	0.020584
798.1420	0.019930
798.3783	0.019846
798.6145	0.018623
798.8508	0.019699
799.0871	0.018560
799.3233	0.020900
799.5596	0.018707
799.7959	0.017295
800.0322	0.019192
800.2686	0.017358
800.5049	0.015291
800.7412	0.016156
800.9776	0.015987
801.2139	0.016029
801.4503	0.016746
801.6867	0.015650
801.9230	0.015228
802.1594	0.014638
802.3958	0.013731
802.6322	0.015186
802.8686	0.014068
803.1051	0.014300
803.3415	0.015629
803.5779	0.015861
803.8144	0.016325
804.0508	0.016915
804.2873	0.014385
804.5238	0.014743
804.7603	0.014089
804.9968	0.015228
805.2333	0.013626
805.4698	0.014891
805.7063	0.013373
805.9428	0.017506
806.1794	0.018729
806.4159	0.018771
806.6525	0.020542
806.8890	0.021870
807.1256	0.019214
807.3622	0.019677
807.5988	0.018286
807.8354	0.019235
808.0720	0.018244
808.3086	0.016999
808.5452	0.019551
808.7818	0.019973
809.0185	0.020268
809.2551	0.017569
809.4918	0.016430
809.7284	0.017189
809.9651	0.016177
810.2018	0.018307
810.4385	0.014237
810.6752	0.016367
810.9119	0.015966
811.1486	0.018328
811.3853	0.017316
811.6221	0.016683
811.8588	0.015017
812.0956	0.015587
812.3323	0.013626
812.5691	0.012424
812.8059	0.011939
813.0427	0.011559
813.2795	0.013309
813.5163	0.014216
813.7531	0.014005
813.9899	0.015819
814.2267	0.015502
814.4636	0.017843
814.7004	0.015355
814.9373	0.014111
815.1742	0.013351
815.4110	0.013373
815.6479	0.012339
815.8848	0.012171
816.1217	0.011601
816.3586	0.012192
816.5955	0.013689
816.8324	0.012719
817.0694	0.012698
817.3063	0.010905
817.5433	0.012445
817.7802	0.012424
818.0172	0.012698
818.2542	0.011833
818.4912	0.014321
818.7282	0.010589
818.9652	0.010420
819.2022	0.010716
819.4392	0.011664
819.6762	0.010589
819.9133	0.010969
820.1503	0.009978
820.3874	0.011411
820.6244	0.012234
820.8615	0.012951
821.0986	0.013309
821.3357	0.011939
821.5727	0.012213
821.8099	0.012972
822.0470	0.011686
822.2841	0.010716
822.5212	0.010758
822.7584	0.011791
822.9955	0.010694
823.2327	0.011475
823.4698	0.011032
823.7070	0.008670
823.9442	0.009767
824.1814	0.009661
824.4186	0.007257
824.6558	0.010842
824.8930	0.010041
825.1302	0.010631
825.3675	0.010020
825.6047	0.009493
825.8419	0.010083
826.0792	0.011854
826.3165	0.011074
826.5537	0.010231
826.7910	0.011201
827.0283	0.012234
827.2656	0.011538
827.5029	0.012909
827.7402	0.010547
827.9776	0.011222
828.2149	0.009640
828.4522	0.011918
828.6896	0.009261
828.9270	0.011095
829.1643	0.011348
829.4017	0.009788
829.6391	0.010378
829.8765	0.010252
830.1139	0.010484
830.3513	0.009261
830.5887	0.008628
830.8261	0.008691
831.0636	0.008333
831.3010	0.008965
831.5385	0.008755
831.7759	0.007848
832.0134	0.006561
832.2509	0.006414
832.4884	0.007342
832.7259	0.007553
832.9634	0.006034
833.2009	0.008712
833.4384	0.008986
833.6759	0.006477
833.9135	0.008649
834.1510	0.009008
834.3886	0.009577
834.6261	0.008860
834.8637	0.009577
835.1013	0.009535
835.3389	0.008375
835.5765	0.008354
835.8141	0.008755
836.0517	0.009471
836.2893	0.008712
836.5269	0.009155
836.7646	0.007110
837.0022	0.007405
837.2399	0.007089
837.4775	0.004706
837.7152	0.007342
837.9529	0.005507
838.1906	0.006203
838.4283	0.005423
838.6660	0.002998
838.9037	0.007152
839.1414	0.005823
839.3791	0.007531
839.6169	0.006224
839.8546	0.007763
840.0924	0.006793
840.3302	0.004685
840.5679	0.007131
840.8057	0.005191
841.0435	0.005360
841.2813	0.006498
841.5191	0.006119
841.7569	0.004896
841.9947	0.005296
842.2326	0.005549
842.4704	0.005908
842.7082	0.005887
842.9461	0.004811
843.1840	0.004368
843.4218	0.003715
843.6597	0.004643
843.8976	0.005360
844.1355	0.005085
844.3734	0.004242
844.6113	0.006076
844.8492	0.005064
845.0872	0.004664
845.3251	0.005655
845.5631	0.003694
845.8010	0.004643
846.0390	0.004390
846.2770	0.004390
846.5149	0.005507
846.7529	0.005191
846.9909	0.005592
847.2289	0.003525
847.4669	0.003799
847.7050	0.005444
847.9430	0.004411
848.1810	0.003883
848.4191	0.005845
848.6571	0.004200
848.8952	0.003989
849.1333	0.004326
849.3713	0.004938
849.6094	0.003968
849.8475	0.004558
850.0856	0.004390
850.3237	0.005191
850.5619	0.005085
850.8000	0.003546
851.0381	0.004347
851.2763	0.005170
851.5144	0.004579
851.7526	0.004896
851.9908	0.004706
852.2289	0.005908
852.4671	0.005781
852.7053	0.009155
852.9435	0.008712
853.1817	0.010905
853.4200	0.011854
853.6582	0.012065
853.8964	0.011243
854.1347	0.012782
854.3729	0.012318
854.6112	0.011960
854.8495	0.011875
855.0877	0.012023
855.3260	0.010800
855.5643	0.009640
855.8026	0.010758
856.0409	0.011306
856.2792	0.009703
856.5176	0.010990
856.7559	0.009282
856.9942	0.010167
857.2326	0.009809
857.4710	0.009050
857.7093	0.009240
857.9477	0.010821
858.1861	0.008080
858.4245	0.008143
858.6629	0.007595
858.9013	0.008227
859.1397	0.007215
859.3781	0.007679
859.6166	0.008185
859.8550	0.006203
860.0935	0.005402
860.3319	0.005570
860.5704	0.006878
860.8089	0.006815
861.0473	0.005781
861.2858	0.005718
861.5243	0.006013
861.7628	0.005866
862.0013	0.005360
862.2399	0.004896
862.4784	0.006498
862.7169	0.004622
862.9555	0.004917
863.1940	0.005507
863.4326	0.005444
863.6712	0.006224
863.9098	0.005149
864.1483	0.006688
864.3869	0.005444
864.6255	0.005613
864.8642	0.006308
865.1028	0.005549
865.3414	0.005233
865.5800	0.004959
865.8187	0.006140
866.0573	0.005381
866.2960	0.004959
866.5347	0.004158
866.7733	0.005507
867.0120	0.005465
867.2507	0.005317
867.4894	0.004832
867.7281	0.004853
867.9669	0.006456
868.2056	0.005486
868.4443	0.004959
868.6831	0.004368
868.9218	0.005739
869.1606	0.004853
869.3993	0.004284
869.6381	0.003441
869.8769	0.003525
870.1157	0.004706
870.3545	0.004158
870.5933	0.002829
870.8321	0.004305
871.0709	0.004875
871.3097	0.005212
871.5486	0.004600
871.7874	0.004031
872.0263	0.003905
872.2651	0.005592
872.5040	0.004073
872.7429	0.004347
872.9818	0.004516
873.2207	0.003799
873.4596	0.004453
873.6985	0.005128
873.9374	0.004305
874.1763	0.005107
874.4153	0.002956
874.6542	0.004516
874.8932	0.005402
875.1321	0.005338
875.3711	0.004600
875.6101	0.006055
875.8491	0.004938
876.0880	0.005212
876.3270	0.006203
876.5661	0.004769
876.8051	0.004137
877.0441	0.004242
877.2831	0.004516
877.5222	0.004748
877.7612	0.005634
878.0003	0.005085
878.2393	0.005254
878.4784	0.007110
878.7175	0.005360
878.9566	0.006161
879.1957	0.006983
879.4348	0.006899
879.6739	0.007763
879.9130	0.006793
880.1521	0.007405
880.3913	0.006815
880.6304	0.007110
880.8696	0.005781
881.1087	0.008944
881.3479	0.006815
881.5871	0.005992
881.8262	0.006013
882.0654	0.004959
882.3046	0.004453
882.5438	0.006372
882.7831	0.004832
883.0223	0.005233
883.2615	0.005739
883.5007	0.005170
883.7400	0.006351
883.9792	0.005528
884.2185	0.003715
884.4578	0.005064
884.6971	0.004073
884.9363	0.004685
885.1756	0.004643
885.4149	0.006793
885.6542	0.005929
885.8936	0.007700
886.1329	0.005064
886.3722	0.003715
886.6116	0.005191
886.8509	0.004875
887.0903	0.005718
887.3296	0.004896
887.5690	0.004495
887.8084	0.007131
888.0478	0.003778
888.2872	0.006625
888.5266	0.003799
888.7660	0.005402
889.0054	0.003989
889.2448	0.005043
889.4843	0.004411
889.7237	0.004980
889.9632	0.003715
890.2026	0.003947
890.4421	0.003757
890.6816	0.004832
890.9211	0.004896
891.1606	0.003883
891.4001	0.003757
891.6396	0.003567
891.8791	0.004010
892.1186	0.005929
892.3581	0.003841
892.5977	0.003841
892.8372	0.004411
893.0768	0.003609
893.3163	0.005149
893.5559	0.004980
893.7955	0.003019
894.0351	0.005212
894.2747	0.002492
894.5143	0.002787
894.7539	0.002892
894.9935	0.004158
895.2331	0.003441
895.4727	0.004474
895.7124	0.003947
895.9520	0.003420
896.1917	0.005781
896.4314	0.004664
896.6710	0.003314
896.9107	0.005549
897.1504	0.004010
897.3901	0.004938
897.6298	0.004811
897.8695	0.004706
898.1092	0.002112
898.3489	0.004875
898.5887	0.003630
898.8284	0.003926
899.0682	0.002892
899.3079	0.004537
899.5477	0.005107
899.7875	0.004706
900.0272	0.003335
900.2670	0.003989
900.5068	0.003272
900.7466	0.004453
900.9864	0.004579
901.2263	0.004980
901.4661	0.004411
901.7059	0.004390
901.9458	0.003715
902.1856	0.004094
902.4255	0.003862
902.6654	0.004115
902.9052	0.003293
903.1451	0.004242
903.3850	0.002576
903.6249	0.004875
903.8648	0.003124
904.1047	0.003778
904.3446	0.003124
904.5846	0.003778
904.8245	0.004938
905.0644	0.003462
905.3044	0.004959
905.5444	0.004600
905.7843	0.005549
906.0243	0.005592
906.2643	0.003167
906.5043	0.003968
906.7443	0.004769
906.9843	0.003462
907.2243	0.004622
907.4643	0.004158
907.7043	0.003567
907.9444	0.004727
908.1844	0.003167
908.4245	0.005022
908.6645	0.004959
908.9046	0.002745
909.1447	0.003019
909.3847	0.003124
909.6248	0.004622
909.8649	0.002260
910.1050	0.003905
910.3452	0.003230
910.5853	0.003820
910.8254	0.003525
911.0655	0.003905
911.3057	0.003947
911.5458	0.004326
911.7860	0.003757
912.0262	0.003040
912.2663	0.003019
912.5065	0.004221
912.7467	0.003230
912.9869	0.003694
913.2271	0.004284
913.4673	0.004347
913.7075	0.001901
913.9478	0.002745
914.1880	0.004052
914.4283	0.001922
914.6685	0.004010
914.9088	0.003167
915.1490	0.003609
915.3893	0.003525
915.6296	0.003124
915.8699	0.002344
916.1102	0.003483
916.3505	0.004326
916.5908	0.001606
916.8311	0.004453
917.0714	0.004200
917.3118	0.003736
917.5521	0.003799
917.7925	0.003420
918.0328	0.003293
918.2732	0.003968
918.5136	0.004010
918.7539	0.002281
918.9943	0.003883
919.2347	0.002871
919.4751	0.003757
919.7155	0.003293
919.9560	0.005528
920.1964	0.004158
920.4368	0.004221
920.6773	0.001838
920.9177	0.003630
921.1582	0.003588
921.3986	0.003462
921.6391	0.004137
921.8796	0.002935
922.1201	0.003968
922.3606	0.003567
922.6011	0.001986
922.8416	0.002892
923.0821	0.001943
923.3226	0.004305
923.5631	0.004179
923.8037	0.003841
924.0442	0.003356
924.2848	0.002386
924.5254	0.002913
924.7659	0.004390
925.0065	0.002555
925.2471	0.002703
925.4877	0.003441
925.7283	0.001943
925.9689	0.001796
926.2095	0.002724
926.4501	0.002913
926.6908	0.003145
926.9314	0.004137
927.1720	0.003462
927.4127	0.002618
927.6533	0.002618
927.8940	0.002724
928.1347	0.002576
928.3754	0.003293
928.6161	0.002302
928.8568	0.001437
929.0975	0.002808
929.3382	0.003462
929.5789	0.003546
929.8196	0.001859
930.0604	0.001943
930.3011	0.003567
930.5419	0.002302
930.7826	0.001669
931.0234	0.002365
931.2642	0.001606
931.5049	0.001775
931.7457	0.001859
931.9865	0.001733
932.2273	0.002007
932.4681	0.001416
932.7089	0.003124
932.9498	0.002829
933.1906	0.001838
933.4314	0.001775
933.6723	0.002513
933.9131	0.002049
934.1540	0.001585
934.3949	0.001669
934.6358	0.001880
934.8766	0.003019
935.1175	0.001943
935.3584	0.002871
935.5993	0.002492
935.8403	0.002956
936.0812	0.001353
936.3221	0.002344
936.5630	0.000931
936.8040	0.001458
937.0449	0.002597
937.2859	0.000573
937.5269	0.001290
937.7678	0.002007
938.0088	0.002703
938.2498	0.002850
938.4908	0.000868
938.7318	0.002218
938.9728	0.001269
939.2138	0.001669
939.4549	0.002323
939.6959	0.002492
939.9369	0.001965
940.1780	0.001754
940.4190	0.001290
940.6601	0.002133
940.9012	0.001437
941.1422	0.002239
941.3833	0.001522
941.6244	0.001290
941.8655	0.000910
942.1066	0.002850
942.3477	0.002239
942.5889	0.000067
942.8300	0.002365
943.0711	0.001690
943.3123	0.001986
943.5534	0.000088
943.7946	0.001880
944.0357	0.000763
944.2769	0.001163
944.5181	0.003694
944.7593	0.003209
945.0005	0.001121
945.2417	0.000531
945.4829	0.000974
945.7241	0.001648
945.9653	0.000467
946.2066	0.001733
946.4478	0.000046
946.6891	0.000952
946.9303	0.001838
947.1716	0.002344
947.4128	0.001986
947.6541	0.001627
947.8954	-0.000186
948.1367	0.001037
948.3780	0.000531
948.6193	0.000889
948.8606	0.001205
949.1019	0.002428
949.3433	0.000404
949.5846	0.001121
949.8259	0.002260
950.0673	0.001943
950.3086	0.001248
950.5500	0.000278
950.7914	0.000995
951.0327	0.002133
951.2741	0.000193
951.5155	0.000636
951.7569	-0.000418
951.9983	0.001269
952.2398	0.002007
952.4812	0.003778
952.7226	0.001690
952.9640	0.003019
953.2055	0.002428
953.4469	0.002850
953.6884	0.001437
953.9299	0.001374
954.1713	0.000257
954.4128	0.002597
954.6543	0.000278
954.8958	0.002492
955.1373	0.002450
955.3788	0.001564
955.6203	0.000889
955.8618	0.001690
956.1034	0.000763
956.3449	0.002154
956.5865	0.001838
956.8280	0.002070
957.0696	0.000805
957.3111	0.002197
957.5527	0.000594
957.7943	0.001712
958.0359	0.000425
958.2775	0.001817
958.5191	0.001965
958.7607	0.001838
959.0023	0.001712
959.2439	0.000172
959.4856	0.001353
959.7272	0.000868
959.9688	0.002407
960.2105	0.002112
960.4522	0.000278
960.6938	0.002365
960.9355	0.001248
961.1772	0.002070
961.4189	0.000278
961.6606	0.001079
961.9023	0.000004
962.1440	0.001037
962.3857	0.001775
962.6274	0.000763
962.8692	0.001395
963.1109	0.003082
963.3527	0.000193
963.5944	0.001796
963.8362	0.000193
964.0779	0.001627
964.3197	0.000510
964.5615	-0.000018
964.8033	0.000952
965.0451	0.000046
965.2869	-0.000228
965.5287	0.001669
965.7705	0.001058
966.0123	0.002218
966.2542	0.001058
966.4960	0.001733
966.7379	0.001311
966.9797	0.001248
967.2216	-0.000144
967.4634	0.000763
967.7053	0.000341
967.9472	0.000425
968.1891	0.000699
968.4310	0.000573
968.6729	0.001311
968.9148	0.003546
969.1567	0.001522
969.3987	0.001395
969.6406	0.000594
969.8825	0.001754
970.1245	0.000657
970.3664	0.000425
970.6084	-0.000460
970.8504	0.002260
971.0923	0.000995
971.3343	0.002492
971.5763	0.000552
971.8183	0.001079
972.0603	0.001311
972.3023	0.001332
972.5443	0.001817
972.7864	0.001248
973.0284	0.001754
973.2704	0.001648
973.5125	0.000784
973.7545	-0.000081
973.9966	0.000320
974.2387	0.002850
974.4807	0.001163
974.7228	0.001037
974.9649	0.001585
975.2070	0.001564
975.4491	0.001332
975.6912	0.000952
975.9333	0.001100
976.1755	0.000952
976.4176	0.000594
976.6597	0.002154
976.9019	0.001965
977.1440	0.001395
977.3862	0.001669
977.6283	0.000193
977.8705	0.001079
978.1127	0.001458
978.3549	0.000235
978.5971	0.000594
978.8393	0.001543
979.0815	0.000531
979.3237	0.001943
979.5659	0.001817
979.8082	0.000615
980.0504	0.001184
980.2926	0.000868
980.5349	0.000573
980.7771	0.002492
981.0194	0.000531
981.2617	-0.000144
981.5040	0.000594
981.7462	-0.000039
981.9885	0.000299
982.2308	0.000552
982.4731	0.000699
982.7155	0.001585
982.9578	0.000193
983.2001	0.000931
983.4424	-0.000018
983.6848	0.000446
983.9271	0.000425
984.1695	0.000510
984.4118	0.000130
984.6542	0.001269
984.8966	0.000974
985.1390	0.001522
985.3814	0.001669
985.6238	0.001901
985.8662	-0.000102
986.1086	0.000489
986.3510	0.000720
986.5934	0.001311
986.8358	0.000467
987.0783	0.000510
987.3207	0.000425
987.5632	0.002407
987.8056	0.001269
988.0481	-0.000418
988.2906	0.001311
988.5331	0.000615
988.7756	0.001395
989.0180	0.000657
989.2605	0.002049
989.5031	0.000193
989.7456	-0.000777
989.9881	0.000742
990.2306	0.000974
990.4732	-0.000503
990.7157	0.000510
990.9582	0.001227
991.2008	0.002407
991.4434	-0.000545
991.6859	0.001712
991.9285	0.000552
992.1711	0.000573
992.4137	0.000952
992.6563	0.001480
992.8989	0.000109
993.1415	0.000510
993.3841	0.000088
993.6267	0.002471
993.8694	0.001754
994.1120	0.000868
994.3547	-0.000186
994.5973	0.000552
994.8400	0.000931
995.0826	0.001311
995.3253	0.001943
995.5680	0.001480
995.8107	0.000657
996.0534	0.000425
996.2961	0.000214
996.5388	0.001775
996.7815	0.000636
997.0242	-0.000228
997.2670	0.000193
997.5097	0.001733
997.7524	0.001712
997.9952	0.001543
998.2379	0.000615
998.4807	0.001079
998.7235	0.000510
998.9662	0.001501
999.2090	0.000109
999.4518	0.002197
999.6946	0.000826
999.9374	-0.000018
1000.1802	0.000362
1000.4230	0.001290
1000.6659	0.002281
1000.9087	0.001205
1001.1515	-0.000039
1001.3944	0.001480
1001.6372	0.000552
1001.8801	0.000446
1002.1230	0.001079
1002.3658	0.001796
1002.6087	0.001690
1002.8516	0.001290
1003.0945	0.000657
1003.3374	-0.000102
1003.5803	0.000910
1003.8232	0.001669
1004.0661	0.001037
1004.3091	0.000889
1004.5520	-0.001030
1004.7949	0.001458
1005.0379	0.000952
1005.2808	0.000636
1005.5238	0.001627
1005.7667	0.000193
1006.0097	0.001859
1006.2527	-0.000713
1006.4957	0.002365
1006.7387	0.000278
1006.9817	0.002133
1007.2247	0.001501
1007.4677	0.001163
1007.7107	0.000130
1007.9538	0.001564
1008.1968	0.000151
1008.4398	0.001269
1008.6829	-0.000481
1008.9259	-0.000503
1009.1690	0.001205
1009.4121	0.000594
1009.6551	0.002218
1009.8982	0.001248
1010.1413	0.001269
1010.3844	0.000931
1010.6275	0.000657
1010.8706	0.001205
1011.1137	0.000784
1011.3568	0.001796
1011.6000	0.000868
1011.8431	0.001733
1012.0863	0.000109
1012.3294	0.000995
1012.5726	0.000868
1012.8157	0.000467
1013.0589	0.001480
1013.3021	0.000257
1013.5452	0.000467
1013.7884	0.001079
1014.0316	0.000889
1014.2748	0.000257
1014.5180	0.000088
1014.7613	0.000784
1015.0045	0.000826
1015.2477	0.002576
1015.4909	0.000299
1015.7342	-0.000039
1015.9774	0.000889
1016.2207	-0.000081
1016.4640	0.000952
1016.7072	0.001037
1016.9505	-0.000629
1017.1938	-0.000081
1017.4371	0.000720
1017.6804	0.001817
1017.9237	0.000299
1018.1670	0.000341
1018.4103	0.001184
1018.6536	-0.000376
1018.8969	0.000278
1019.1403	0.000720
1019.3836	0.000046
1019.6270	0.001543
1019.8703	0.000489
1020.1137	0.000383
1020.3571	0.000446
1020.6004	-0.000418
1020.8438	0.001205
1021.0872	0.000847
1021.3306	0.000446
1021.5740	0.000278
1021.8174	0.000467
1022.0608	0.000320
1022.3042	-0.000713
1022.5477	0.000362
1022.7911	-0.000018
1023.0345	0.000552
