# Wavelength (nm)	Intensity (a.u.)
197.7802	0.000684
197.9842	0.000325
198.1882	0.000410
198.3922	0.000135
198.5963	0.000536
198.8003	0.000557
199.0044	-0.001025
199.2085	0.001127
199.4126	0.000578
199.6168	-0.000329
199.8209	0.001275
200.0251	-0.000772
200.2292	0.001549
200.4334	-0.001046
200.6376	-0.000455
200.8418	0.000114
201.0461	0.000916
201.2503	0.000410
201.4546	-0.001700
201.6589	0.000009
201.8631	0.000410
202.0674	-0.000413
202.2718	0.000431
202.4761	-0.000033
202.6805	0.000114
202.8848	0.000283
203.0892	0.000473
203.2936	0.001127
203.4980	0.000156
203.7024	0.000114
203.9069	0.000578
204.1113	-0.000055
204.3158	0.000051
204.5203	-0.000012
204.7248	0.000262
204.9293	-0.000540
205.1338	-0.000413
205.3384	-0.000265
205.5430	-0.000392
205.7475	-0.000181
205.9521	0.000241
206.1567	-0.000350
206.3614	0.000578
206.5660	-0.001025
206.7706	0.000072
206.9753	0.000557
207.1800	0.000684
207.3847	-0.000265
207.5894	0.001127
207.7941	0.000283
207.9989	0.000114
208.2036	0.000789
208.4084	0.000241
208.6132	-0.000118
208.8180	0.000304
209.0228	-0.000877
209.2276	0.000473
209.4325	-0.000076
209.6373	-0.000076
209.8422	-0.000097
210.0471	0.001338
210.2520	-0.001236
210.4569	-0.001109
210.6618	-0.000645
210.8668	-0.000519
211.0718	0.000241
211.2767	0.000515
211.4817	-0.001552
211.6867	0.001000
211.8918	-0.000118
212.0968	0.000156
212.3018	-0.001426
212.5069	0.000346
212.7120	-0.000308
212.9171	0.001000
213.1222	0.000811
213.3273	0.001254
213.5325	-0.000181
213.7376	0.000726
213.9428	0.000093
214.1480	0.000283
214.3532	-0.000371
214.5584	0.001380
214.7636	0.001000
214.9689	0.002351
215.1741	-0.001405
215.3794	0.000916
215.5847	0.000642
215.7900	-0.000181
215.9953	-0.000624
216.2007	0.000979
216.4060	0.001612
216.6114	0.000262
216.8168	0.000220
217.0222	0.002161
217.2276	0.002055
217.4330	0.000726
217.6384	0.000220
217.8439	0.001148
218.0494	-0.000666
218.2548	0.000241
218.4603	0.000494
218.6659	-0.000181
218.8714	0.000367
219.0769	0.000979
219.2825	-0.000118
219.4881	0.001064
219.6936	0.000009
219.8992	-0.000814
220.1049	-0.001025
220.3105	0.002013
220.5161	0.000557
220.7218	0.001380
220.9275	0.000789
221.1332	0.001021
221.3389	0.001169
221.5446	0.002287
221.7503	-0.000371
221.9561	-0.000287
222.1618	-0.001531
222.3676	0.000367
222.5734	-0.001215
222.7792	0.001190
222.9850	-0.000329
223.1909	0.000811
223.3967	0.000705
223.6026	0.000220
223.8085	0.000241
224.0144	0.000220
224.2203	-0.000160
224.4262	0.000937
224.6322	-0.001574
224.8381	0.000389
225.0441	-0.000392
225.2501	0.000705
225.4561	-0.000898
225.6621	-0.000687
225.8681	-0.001025
226.0742	0.000093
226.2802	0.000156
226.4863	0.000325
226.6924	-0.000476
226.8985	0.000367
227.1046	0.000304
227.3107	0.000114
227.5169	0.000473
227.7230	0.000684
227.9292	-0.000055
228.1354	0.000832
228.3416	-0.001721
228.5478	0.000726
228.7541	0.001254
228.9603	0.000410
229.1666	0.000452
229.3729	0.001254
229.5791	0.000051
229.7855	0.000241
229.9918	-0.000097
230.1981	0.000262
230.4045	-0.000540
230.6108	0.000937
230.8172	0.001739
231.0236	0.000325
231.2300	0.000135
231.4364	0.000199
231.6429	0.001043
231.8493	-0.000561
232.0558	-0.000730
232.2623	-0.000139
232.4688	0.000241
232.6753	0.000030
232.8818	0.001612
233.0884	-0.000139
233.2949	0.000367
233.5015	0.000051
233.7081	0.000515
233.9147	0.000367
234.1213	0.000642
234.3279	0.001148
234.5346	0.000663
234.7413	-0.000476
234.9479	0.000199
235.1546	0.001000
235.3613	-0.000160
235.5680	0.000768
235.7748	0.000072
235.9815	0.000114
236.1883	0.001211
236.3951	0.000452
236.6018	0.000642
236.8087	0.001486
237.0155	-0.000645
237.2223	-0.000202
237.4292	0.001064
237.6360	-0.000118
237.8429	-0.000139
238.0498	-0.000329
238.2567	-0.001468
238.4636	0.001802
238.6706	-0.000413
238.8775	0.001064
239.0845	-0.000371
239.2915	0.001929
239.4985	0.000536
239.7055	0.000874
239.9125	0.001127
240.1195	-0.000012
240.3266	0.000473
240.5337	-0.000455
240.7407	-0.000350
240.9478	0.000642
241.1549	-0.000983
241.3621	0.002119
241.5692	-0.000287
241.7764	0.000030
241.9835	-0.000265
242.1907	0.000536
242.3979	0.000663
242.6051	0.001148
242.8124	0.000325
243.0196	0.000304
243.2269	-0.000434
243.4341	-0.000962
243.6414	0.000199
243.8487	0.001148
244.0560	0.000304
244.2634	-0.000223
244.4707	-0.000055
244.6781	-0.000244
244.8854	-0.000413
245.0928	0.000051
245.3002	0.000283
245.5076	-0.000371
245.7151	-0.000645
245.9225	0.000325
246.1300	-0.000392
246.3375	0.001254
246.5449	0.000389
246.7524	0.001401
246.9600	-0.001152
247.1675	0.000072
247.3750	-0.000139
247.5826	-0.000181
247.7902	-0.000244
247.9978	0.000473
248.2054	0.000874
248.4130	0.000578
248.6206	0.000410
248.8283	0.000895
249.0359	-0.000139
249.2436	0.001106
249.4513	-0.000287
249.6590	-0.000118
249.8667	-0.000814
250.0745	-0.000139
250.2822	0.000241
250.4900	0.000958
250.6978	0.000747
250.9056	0.000642
251.1134	0.000937
251.3212	-0.000012
251.5290	0.000431
251.7369	0.000304
251.9447	0.001823
252.1526	0.000030
252.3605	-0.000730
252.5684	-0.000223
252.7763	0.000832
252.9843	0.000768
253.1922	0.001021
253.4002	0.000346
253.6082	-0.000730
253.8162	0.000642
254.0242	0.001465
254.2322	-0.000139
254.4402	-0.001574
254.6483	0.000705
254.8564	0.000346
255.0644	0.000536
255.2725	0.000663
255.4806	0.000663
255.6888	-0.000455
255.8969	-0.000223
256.1051	-0.000033
256.3132	0.002076
256.5214	0.000642
256.7296	0.000135
256.9378	-0.000350
257.1460	0.000199
257.3543	-0.000223
257.5625	-0.000814
257.7708	0.001486
257.9791	0.000832
258.1874	-0.000540
258.3957	0.001000
258.6040	-0.000139
258.8124	0.000199
259.0207	-0.000012
259.2291	0.000030
259.4375	-0.000603
259.6459	0.000325
259.8543	0.000367
260.0627	0.000979
260.2711	-0.000308
260.4796	0.000199
260.6881	0.000009
260.8965	0.001549
261.1050	-0.000898
261.3135	0.001591
261.5221	-0.000666
261.7306	-0.000012
261.9392	0.001570
262.1477	0.000663
262.3563	0.000684
262.5649	-0.000350
262.7735	0.000199
262.9822	0.000726
263.1908	0.000178
263.3995	0.001211
263.6081	-0.000519
263.8168	0.000093
264.0255	-0.000329
264.2342	0.000874
264.4429	-0.000371
264.6517	-0.000265
264.8604	0.000621
265.0692	-0.000097
265.2780	0.000916
265.4868	0.001338
265.6956	0.000431
265.9044	0.000473
266.1133	-0.000645
266.3221	-0.000033
266.5310	-0.000223
266.7399	-0.000055
266.9488	-0.001742
267.1577	0.000578
267.3666	-0.001067
267.5755	0.001359
267.7845	0.001064
267.9935	-0.000012
268.2024	-0.000244
268.4114	-0.000687
268.6205	-0.000097
268.8295	0.001676
269.0385	0.000199
269.2476	0.000199
269.4566	-0.000687
269.6657	0.001148
269.8748	-0.000055
270.0839	0.000789
270.2931	0.000452
270.5022	-0.001552
270.7114	-0.000033
270.9205	-0.000814
271.1297	-0.001109
271.3389	0.000431
271.5481	0.000220
271.7573	-0.001173
271.9666	-0.000455
272.1758	0.000199
272.3851	-0.000519
272.5944	0.001190
272.8037	0.000789
273.0130	0.001760
273.2223	-0.000582
273.4316	-0.000751
273.6410	0.000726
273.8504	0.000663
274.0597	-0.000962
274.2691	0.000389
274.4785	-0.001320
274.6880	0.000241
274.8974	-0.000540
275.1069	0.000367
275.3163	-0.000202
275.5258	0.001232
275.7353	0.000093
275.9448	0.000304
276.1543	-0.000265
276.3639	-0.000540
276.5734	0.000135
276.7830	0.000578
276.9926	-0.001088
277.2022	0.000979
277.4118	0.000642
277.6214	0.000958
277.8310	0.001443
278.0407	0.000768
278.2503	-0.000476
278.4600	0.000220
278.6697	0.001317
278.8794	0.001380
279.0891	-0.000265
279.2989	-0.000012
279.5086	0.000916
279.7184	-0.000076
279.9281	-0.001236
280.1379	0.000135
280.3477	0.000642
280.5576	0.000009
280.7674	-0.000076
280.9772	0.001401
281.1871	-0.000371
281.3970	-0.000983
281.6069	0.000979
281.8168	-0.000983
282.0267	0.001676
282.2366	-0.000265
282.4466	-0.000687
282.6565	0.000747
282.8665	0.000367
283.0765	0.001591
283.2865	0.000452
283.4965	-0.001405
283.7065	0.000410
283.9166	-0.000498
284.1266	-0.000033
284.3367	-0.000898
284.5468	0.000009
284.7569	0.000874
284.9670	0.002119
285.1771	0.000536
285.3873	0.000663
285.5974	0.000853
285.8076	0.000367
286.0178	0.000410
286.2280	0.000536
286.4382	-0.000033
286.6484	-0.000265
286.8587	-0.000329
287.0689	-0.001911
287.2792	-0.000139
287.4895	0.001021
287.6998	0.000557
287.9101	-0.000540
288.1204	0.001085
288.3308	0.001064
288.5411	0.000705
288.7515	0.000853
288.9619	0.001169
289.1723	-0.000055
289.3827	0.001085
289.5931	0.000853
289.8035	0.000410
290.0140	0.000389
290.2245	0.000135
290.4349	-0.000350
290.6454	0.000325
290.8559	0.001296
291.0665	0.000789
291.2770	0.000853
291.4875	0.000895
291.6981	0.000030
291.9087	0.001612
292.1193	-0.001152
292.3299	0.000642
292.5405	-0.001637
292.7511	-0.000835
292.9618	0.000325
293.1724	0.000895
293.3831	0.000199
293.5938	-0.000476
293.8045	-0.000012
294.0152	0.000241
294.2260	-0.000055
294.4367	0.000367
294.6475	0.000178
294.8582	-0.000582
295.0690	0.000557
295.2798	0.000557
295.4906	-0.002080
295.7015	0.001232
295.9123	0.000811
296.1232	0.000304
296.3340	0.000874
296.5449	0.001718
296.7558	0.000283
296.9667	-0.000076
297.1777	0.000853
297.3886	-0.000561
297.5995	-0.000730
297.8105	-0.000033
298.0215	-0.000624
298.2325	0.000874
298.4435	-0.000603
298.6545	0.001317
298.8656	0.000811
299.0766	-0.000772
299.2877	-0.001067
299.4988	0.002013
299.7099	0.000389
299.9210	0.000473
300.1321	0.002140
300.3432	0.001254
300.5544	-0.000202
300.7655	0.000473
300.9767	-0.000223
301.1879	-0.000139
301.3991	0.001443
301.6103	0.000494
301.8215	-0.000603
302.0328	0.000621
302.2441	-0.000540
302.4553	0.001190
302.6666	-0.000687
302.8779	0.001401
303.0892	-0.000181
303.3006	0.001739
303.5119	0.000114
303.7233	-0.000434
303.9346	-0.000434
304.1460	0.000832
304.3574	-0.000730
304.5688	0.000072
304.7803	-0.001046
304.9917	0.001085
305.2031	-0.000350
305.4146	0.000937
305.6261	0.000135
305.8376	0.001169
306.0491	-0.000413
306.2606	-0.000624
306.4722	-0.000877
306.6837	0.001021
306.8953	0.000199
307.1069	0.000684
307.3184	-0.000160
307.5301	0.000811
307.7417	0.000811
307.9533	0.001401
308.1650	0.001085
308.3766	0.000325
308.5883	0.000494
308.8000	-0.000645
309.0117	0.000431
309.2234	0.000642
309.4351	-0.000181
309.6469	0.000093
309.8586	0.000410
310.0704	0.000536
310.2822	0.000325
310.4940	0.000199
310.7058	0.000473
310.9176	0.000895
311.1295	0.000346
311.3413	0.000431
311.5532	0.001296
311.7651	0.000600
311.9770	0.000789
312.1889	0.000578
312.4008	0.000578
312.6127	0.002055
312.8247	-0.000287
313.0366	0.000958
313.2486	0.000494
313.4606	0.000832
313.6726	-0.001130
313.8846	0.000220
314.0967	-0.000012
314.3087	-0.000055
314.5208	-0.000350
314.7328	0.000410
314.9449	-0.000603
315.1570	0.001127
315.3692	0.000220
315.5813	0.001043
315.7934	-0.000181
316.0056	-0.000118
316.2177	0.000642
316.4299	0.000895
316.6421	-0.000223
316.8543	0.001465
317.0666	0.000747
317.2788	0.001211
317.4911	-0.000160
317.7033	-0.000118
317.9156	-0.001384
318.1279	-0.000097
318.3402	0.000515
318.5525	0.000135
318.7649	-0.000603
318.9772	-0.000012
319.1896	-0.000097
319.4019	0.000642
319.6143	-0.000498
319.8267	0.001465
320.0392	-0.000033
320.2516	0.000937
320.4640	0.001296
320.6765	0.000135
320.8890	-0.000540
321.1014	-0.001067
321.3139	-0.000012
321.5265	0.000325
321.7390	0.000283
321.9515	0.000452
322.1641	0.001401
322.3766	0.000389
322.5892	0.001064
322.8018	0.000114
323.0144	0.000874
323.2270	0.000663
323.4397	-0.000793
323.6523	0.000410
323.8650	0.000220
324.0777	0.000916
324.2904	-0.000055
324.5031	0.001254
324.7158	-0.000413
324.9285	0.000283
325.1412	-0.000181
325.3540	0.000410
325.5668	-0.000540
325.7796	0.001781
325.9924	0.001000
326.2052	-0.000814
326.4180	-0.000793
326.6308	0.001254
326.8437	-0.000877
327.0566	0.000009
327.2694	0.000431
327.4823	0.002161
327.6952	0.001021
327.9082	-0.000055
328.1211	-0.000012
328.3340	0.001886
328.5470	-0.001130
328.7600	0.000009
328.9730	0.000747
329.1860	0.000557
329.3990	0.000557
329.6120	0.000410
329.8251	-0.000413
330.0381	0.000600
330.2512	-0.000244
330.4643	0.000410
330.6774	0.000853
330.8905	-0.000434
331.1036	-0.001173
331.3167	0.000473
331.5299	0.000325
331.7431	0.001739
331.9562	-0.000793
332.1694	0.000241
332.3826	0.000178
332.5959	0.000178
332.8091	0.000494
333.0223	0.002076
333.2356	-0.001173
333.4489	-0.000730
333.6622	0.000030
333.8755	-0.000118
334.0888	0.000557
334.3021	0.000030
334.5154	-0.000202
334.7288	0.000642
334.9422	-0.001574
335.1555	0.001211
335.3689	-0.000434
335.5823	0.001338
335.7958	0.001443
336.0092	-0.000308
336.2227	-0.000498
336.4361	-0.000139
336.6496	0.001211
336.8631	-0.000434
337.0766	-0.000941
337.2901	0.000895
337.5036	-0.000329
337.7172	0.000114
337.9307	-0.000709
338.1443	0.000916
338.3579	-0.000012
338.5715	0.001739
338.7851	-0.000941
338.9987	0.000705
339.2124	0.000199
339.4260	-0.000709
339.6397	0.001254
339.8533	-0.000118
340.0670	-0.001763
340.2807	0.000937
340.4945	-0.000202
340.7082	0.000874
340.9219	0.000009
341.1357	0.000705
341.3495	-0.000350
341.5633	0.001591
341.7771	-0.000181
341.9909	-0.000498
342.2047	-0.000772
342.4185	0.000705
342.6324	-0.000181
342.8463	-0.000097
343.0601	-0.001046
343.2740	0.000494
343.4879	-0.000033
343.7019	0.001422
343.9158	-0.000223
344.1297	0.001760
344.3437	-0.000561
344.5577	0.000072
344.7717	0.000367
344.9857	-0.000582
345.1997	0.000789
345.4137	0.000789
345.6277	-0.000265
345.8418	0.000072
346.0559	0.000811
346.2699	0.001317
346.4840	0.000030
346.6981	0.000009
346.9123	0.000389
347.1264	-0.000139
347.3406	0.000431
347.5547	0.000389
347.7689	-0.000540
347.9831	-0.000244
348.1973	0.000072
348.4115	0.000114
348.6257	0.001064
348.8400	0.001633
349.0542	0.000220
349.2685	-0.000139
349.4828	-0.000371
349.6971	-0.000265
349.9114	-0.001215
350.1257	-0.000666
350.3400	0.000346
350.5544	0.000958
350.7687	-0.000941
350.9831	0.001127
351.1975	0.000515
351.4119	0.001021
351.6263	0.000389
351.8407	0.001401
352.0552	0.000452
352.2696	-0.000139
352.4841	0.000600
352.6986	0.000621
352.9131	0.001190
353.1276	0.000747
353.3421	0.000346
353.5566	0.000325
353.7712	0.000030
353.9858	-0.000392
354.2003	0.000747
354.4149	0.000578
354.6295	0.000156
354.8441	0.000811
355.0588	0.000135
355.2734	0.000452
355.4881	-0.000223
355.7027	0.000979
355.9174	0.000030
356.1321	0.000958
356.3468	-0.000033
356.5615	0.000114
356.7763	-0.000118
356.9910	0.000304
357.2058	0.000431
357.4206	0.000811
357.6353	-0.000118
357.8501	0.000747
358.0650	0.000389
358.2798	-0.000012
358.4946	0.000220
358.7095	-0.000413
358.9243	0.000304
359.1392	0.000009
359.3541	0.000367
359.5690	0.000241
359.7839	-0.001194
359.9989	-0.001046
360.2138	0.000178
360.4288	-0.000687
360.6438	-0.000434
360.8587	0.000578
361.0737	-0.000434
361.2888	-0.000645
361.5038	-0.000814
361.7188	0.000832
361.9339	0.000684
362.1489	0.000410
362.3640	-0.000139
362.5791	0.000135
362.7942	0.001486
363.0093	0.000220
363.2245	-0.000139
363.4396	-0.000055
363.6548	0.000557
363.8699	0.001064
364.0851	-0.001194
364.3003	0.000684
364.5155	0.000114
364.7308	-0.000814
364.9460	-0.000476
365.1612	0.000515
365.3765	-0.000877
365.5918	0.000979
365.8071	0.000621
366.0224	0.001781
366.2377	0.000452
366.4530	0.000389
366.6684	-0.000603
366.8837	0.001254
367.0991	-0.000561
367.3145	-0.000097
367.5299	-0.000244
367.7453	0.000220
367.9607	0.000832
368.1761	-0.000434
368.3916	0.000663
368.6070	0.000410
368.8225	0.000473
369.0380	0.000515
369.2535	0.000747
369.4690	0.000389
369.6845	-0.001130
369.9001	0.000410
370.1156	0.000705
370.3312	0.001676
370.5468	0.001085
370.7624	0.000557
370.9780	0.000578
371.1936	0.001422
371.4092	0.000600
371.6249	0.000199
371.8405	-0.001067
372.0562	-0.000160
372.2719	-0.000308
372.4876	-0.000751
372.7033	-0.001109
372.9190	-0.000181
373.1348	-0.000835
373.3505	0.000473
373.5663	-0.000118
373.7820	0.000241
373.9978	0.000009
374.2136	0.000811
374.4294	0.000979
374.6453	0.000768
374.8611	0.001254
375.0770	0.000093
375.2928	0.000030
375.5087	0.001697
375.7246	0.000072
375.9405	-0.000645
376.1564	-0.000877
376.3724	0.000600
376.5883	-0.001299
376.8043	-0.000561
377.0203	-0.000371
377.2362	0.001612
377.4522	-0.000139
377.6682	0.000389
377.8843	-0.000055
378.1003	0.000473
378.3164	0.000916
378.5324	-0.000898
378.7485	-0.000624
378.9646	0.000663
379.1807	0.000199
379.3968	-0.000561
379.6129	0.001106
379.8291	-0.000012
380.0452	0.000578
380.2614	0.001992
380.4776	-0.000139
380.6938	0.000051
380.9100	-0.000371
381.1262	0.000958
381.3424	0.000642
381.5587	0.001612
381.7749	-0.001827
381.9912	0.001106
382.2075	0.000536
382.4238	0.000178
382.6401	-0.000476
382.8564	-0.000603
383.0728	0.000072
383.2891	0.001338
383.5055	0.000600
383.7219	0.001380
383.9382	0.000346
384.1546	0.001000
384.3711	0.000114
384.5875	0.001064
384.8039	-0.000308
385.0204	0.000726
385.2368	-0.000097
385.4533	0.001676
385.6698	-0.000730
385.8863	0.000515
386.1028	-0.000223
386.3194	0.000979
386.5359	0.000325
386.7525	0.000325
386.9690	0.000304
387.1856	0.001422
387.4022	-0.000835
387.6188	0.001633
387.8355	0.000768
388.0521	-0.000076
388.2687	0.000346
388.4854	0.001992
388.7021	-0.000877
388.9188	0.001043
389.1355	0.000726
389.3522	0.000789
389.5689	0.000515
389.7856	0.001338
390.0024	-0.000223
390.2192	0.001718
390.4359	0.000937
390.6527	0.001422
390.8695	-0.000434
391.0863	0.001127
391.3032	-0.000055
391.5200	0.002414
391.7369	0.000114
391.9537	0.002287
392.1706	0.000895
392.3875	0.002182
392.6044	0.001570
392.8213	0.001802
393.0383	0.002393
393.2552	0.002182
393.4722	0.001591
393.6891	0.001401
393.9061	0.002330
394.1231	0.001591
394.3401	0.001844
394.5572	0.001676
394.7742	0.002203
394.9912	0.001992
395.2083	0.001465
395.4254	0.002583
395.6425	0.001697
395.8596	0.002730
396.0767	0.002308
396.2938	0.002330
396.5109	0.002308
396.7281	0.002076
396.9453	0.002076
397.1624	0.004207
397.3796	0.003511
397.5968	0.002414
397.8140	0.004186
398.0313	0.003490
398.2485	0.001591
398.4658	0.004144
398.6830	0.004524
398.9003	0.003996
399.1176	0.003068
399.3349	0.005114
399.5522	0.003110
399.7696	0.003701
399.9869	0.002435
400.2043	0.002941
400.4216	0.002941
400.6390	0.004566
400.8564	0.004271
401.0738	0.005114
401.2912	0.003680
401.5087	0.005325
401.7261	0.003173
401.9436	0.003870
402.1610	0.005979
402.3785	0.004186
402.5960	0.004840
402.8135	0.004397
403.0310	0.005473
403.2486	0.005811
403.4661	0.005093
403.6837	0.003617
403.9013	0.005178
404.1189	0.005958
404.3365	0.003933
404.5541	0.004756
404.7717	0.004946
404.9893	0.006528
405.2070	0.005325
405.4246	0.005093
405.6423	0.006001
405.8600	0.005642
406.0777	0.007077
406.2954	0.008448
406.5131	0.007414
406.7309	0.006022
406.9486	0.006169
407.1664	0.006633
407.3842	0.004967
407.6020	0.007752
407.8198	0.006612
408.0376	0.004397
408.2554	0.005600
408.4733	0.008300
408.6911	0.008258
408.9090	0.007709
409.1269	0.008153
409.3448	0.007498
409.5627	0.008722
409.7806	0.006486
409.9985	0.006233
410.2165	0.008321
410.4344	0.008870
410.6524	0.005768
410.8704	0.007351
411.0884	0.005621
411.3064	0.007456
411.5244	0.009313
411.7424	0.006908
411.9605	0.007498
412.1785	0.008321
412.3966	0.009229
412.6147	0.009925
412.8328	0.009672
413.0509	0.008996
413.2690	0.009777
413.4871	0.009819
413.7053	0.009904
413.9234	0.009566
414.1416	0.008469
414.3598	0.010241
414.5780	0.008912
414.7962	0.009566
415.0144	0.009313
415.2326	0.008364
415.4509	0.010051
415.6692	0.010347
415.8874	0.008553
416.1057	0.009207
416.3240	0.008596
416.5423	0.008933
416.7606	0.010705
416.9790	0.009418
417.1973	0.010136
417.4157	0.010642
417.6341	0.010368
417.8524	0.011444
418.0708	0.010726
418.2893	0.012646
418.5077	0.012541
418.7261	0.011634
418.9446	0.012710
419.1630	0.010832
419.3815	0.011127
419.6000	0.012035
419.8185	0.011106
420.0370	0.012857
420.2555	0.011507
420.4741	0.012245
420.6926	0.012414
420.9112	0.013722
421.1298	0.012921
421.3483	0.014482
421.5669	0.014608
421.7856	0.014967
422.0042	0.014883
422.2228	0.015220
422.4415	0.013976
422.6601	0.015579
422.8788	0.015094
423.0975	0.015157
423.3162	0.014355
423.5349	0.014883
423.7536	0.015094
423.9724	0.014630
424.1911	0.013343
424.4099	0.015368
424.6287	0.014967
424.8475	0.015136
425.0663	0.013891
425.2851	0.014039
425.5039	0.015094
425.7228	0.015895
425.9416	0.013870
426.1605	0.013047
426.3793	0.015178
426.5982	0.013532
426.8171	0.013912
427.0361	0.012942
427.2550	0.013490
427.4739	0.014819
427.6929	0.014862
427.9118	0.015431
428.1308	0.014165
428.3498	0.014735
428.5688	0.015748
428.7878	0.014672
429.0068	0.015600
429.2259	0.015811
429.4449	0.016001
429.6640	0.017499
429.8831	0.018279
430.1022	0.017857
430.3213	0.019524
430.5404	0.017182
430.7595	0.019060
430.9787	0.019777
431.1978	0.018005
431.4170	0.017140
431.6362	0.016338
431.8553	0.013364
432.0745	0.015769
432.2938	0.016064
432.5130	0.015410
432.7322	0.015199
432.9515	0.014714
433.1707	0.015347
433.3900	0.016022
433.6093	0.017794
433.8286	0.019419
434.0479	0.019693
434.2673	0.017140
434.4866	0.017267
434.7059	0.016191
434.9253	0.016718
435.1447	0.016528
435.3641	0.016212
435.5835	0.016381
435.8029	0.015769
436.0223	0.016381
436.2418	0.018322
436.4612	0.017794
436.6807	0.017625
436.9001	0.018174
437.1196	0.015748
437.3391	0.017330
437.5586	0.018301
437.7782	0.017414
437.9977	0.016887
438.2173	0.016824
438.4368	0.017309
438.6564	0.017857
438.8760	0.017921
439.0956	0.018997
439.3152	0.017414
439.5348	0.017857
439.7545	0.018786
439.9741	0.017773
440.1938	0.016423
440.4135	0.018258
440.6331	0.017203
440.8528	0.016992
441.0725	0.018955
441.2923	0.021613
441.5120	0.020516
441.7318	0.020284
441.9515	0.021444
442.1713	0.022309
442.3911	0.020431
442.6109	0.019588
442.8307	0.020242
443.0505	0.019461
443.2703	0.019988
443.4902	0.019883
443.7101	0.021339
443.9299	0.019461
444.1498	0.021191
444.3697	0.020073
444.5896	0.020242
444.8095	0.017879
445.0295	0.019123
445.2494	0.018258
445.4694	0.018596
445.6894	0.017815
445.9093	0.019440
446.1293	0.018828
446.3493	0.018533
446.5694	0.019334
446.7894	0.018701
447.0094	0.019419
447.2295	0.019862
447.4496	0.018891
447.6696	0.017836
447.8897	0.019440
448.1098	0.018891
448.3300	0.016866
448.5501	0.016634
448.7702	0.018533
448.9904	0.016655
449.2106	0.017583
449.4307	0.019187
449.6509	0.019187
449.8711	0.018828
450.0914	0.017330
450.3116	0.017836
450.5318	0.018153
450.7521	0.019503
450.9724	0.015621
451.1926	0.018068
451.4129	0.015938
451.6332	0.019123
451.8535	0.016845
452.0739	0.017836
452.2942	0.015431
452.5146	0.015558
452.7349	0.016360
452.9553	0.017414
453.1757	0.015558
453.3961	0.016233
453.6165	0.015938
453.8369	0.015009
454.0574	0.014060
454.2778	0.014862
454.4983	0.014819
454.7188	0.014693
454.9393	0.013448
455.1597	0.016022
455.3803	0.015558
455.6008	0.015706
455.8213	0.013849
456.0419	0.014271
456.2624	0.014714
456.4830	0.013912
456.7036	0.013765
456.9242	0.014229
457.1448	0.014397
457.3654	0.014440
457.5860	0.014503
457.8067	0.013047
458.0274	0.014039
458.2480	0.017393
458.4687	0.014967
458.6894	0.014693
458.9101	0.014271
459.1308	0.014208
459.3516	0.013786
459.5723	0.014756
459.7931	0.013068
460.0138	0.016233
460.2346	0.014123
460.4554	0.013765
460.6762	0.012942
460.8970	0.012689
461.1178	0.014250
461.3387	0.013132
461.5595	0.010832
461.7804	0.013786
462.0013	0.011254
462.2222	0.010748
462.4431	0.010410
462.6640	0.010874
462.8849	0.011887
463.1059	0.011212
463.3268	0.011359
463.5478	0.010115
463.7687	0.012456
463.9897	0.013047
464.2107	0.011971
464.4317	0.012056
464.6528	0.013701
464.8738	0.013807
465.0948	0.014229
465.3159	0.010157
465.5370	0.013912
465.7581	0.011591
465.9792	0.011338
466.2003	0.011402
466.4214	0.011043
466.6425	0.010452
466.8637	0.011106
467.0848	0.009587
467.3060	0.009418
467.5272	0.009144
467.7484	0.008891
467.9696	0.008553
468.1908	0.008596
468.4120	0.009798
468.6333	0.009566
468.8545	0.009250
469.0758	0.007688
469.2970	0.007878
469.5183	0.005937
469.7396	0.006444
469.9610	0.006844
470.1823	0.007731
470.4036	0.006254
470.6250	0.008743
470.8463	0.007288
471.0677	0.006950
471.2891	0.007646
471.5105	0.006254
471.7319	0.007456
471.9533	0.007013
472.1748	0.005916
472.3962	0.006655
472.6177	0.008131
472.8391	0.005747
473.0606	0.008153
473.2821	0.007667
473.5036	0.007583
473.7251	0.007182
473.9467	0.007330
474.1682	0.007878
474.3898	0.006781
474.6113	0.005832
474.8329	0.007477
475.0545	0.007562
475.2761	0.007393
475.4977	0.007456
475.7193	0.008342
475.9410	0.005515
476.1626	0.006739
476.3843	0.007034
476.6060	0.008828
476.8277	0.005431
477.0494	0.007245
477.2711	0.005347
477.4928	0.006380
477.7145	0.006465
477.9363	0.005136
478.1580	0.005051
478.3798	0.005600
478.6016	0.004925
478.8234	0.005283
479.0452	0.005768
479.2670	0.006296
479.4888	0.006022
479.7107	0.006359
479.9325	0.005557
480.1544	0.004482
480.3763	0.005684
480.5982	0.005473
480.8201	0.003849
481.0420	0.004967
481.2639	0.005283
481.4859	0.005009
481.7078	0.004524
481.9298	0.006106
482.1517	0.004207
482.3737	0.004460
482.5957	0.006043
482.8177	0.006064
483.0398	0.005389
483.2618	0.003827
483.4838	0.005642
483.7059	0.004861
483.9280	0.004123
484.1501	0.005178
484.3721	0.004439
484.5943	0.005557
484.8164	0.005114
485.0385	0.005642
485.2606	0.006739
485.4828	0.008406
485.7050	0.010916
485.9271	0.016233
486.1493	0.015431
486.3715	0.013870
486.5937	0.010262
486.8160	0.007878
487.0382	0.008258
487.2605	0.007372
487.4827	0.006148
487.7050	0.005684
487.9273	0.002962
488.1496	0.005600
488.3719	0.003827
488.5942	0.004629
488.8165	0.005136
489.0389	0.004165
489.2612	0.003849
489.4836	0.004861
489.7060	0.004271
489.9284	0.003891
490.1508	0.001570
490.3732	0.006190
490.5956	0.002730
490.8180	0.004566
491.0405	0.003173
491.2630	0.003321
491.4854	0.003195
491.7079	0.004482
491.9304	0.003026
492.1529	0.003680
492.3755	0.004524
492.5980	0.002372
492.8205	0.005325
493.0431	0.003427
493.2657	0.001802
493.4882	0.003701
493.7108	0.002435
493.9334	0.003722
494.1561	0.004186
494.3787	0.003279
494.6013	0.005642
494.8240	0.002941
495.0466	0.002773
495.2693	0.003448
495.4920	0.002541
495.7147	0.003638
495.9374	0.003406
496.1601	0.003427
496.3829	0.001275
496.6056	0.003342
496.8284	0.003258
497.0511	0.003173
497.2739	0.003384
497.4967	0.003363
497.7195	0.002414
497.9423	0.002730
498.1652	0.001950
498.3880	0.002709
498.6109	0.001971
498.8337	0.003047
499.0566	0.000705
499.2795	0.003891
499.5024	0.003427
499.7253	0.003975
499.9482	0.003722
500.1712	0.003680
500.3941	0.002456
500.6171	0.003026
500.8400	0.003195
501.0630	0.001760
501.2860	0.002393
501.5090	0.002330
501.7320	0.001612
501.9551	0.002751
502.1781	0.003047
502.4012	0.002984
502.6242	0.002435
502.8473	0.002076
503.0704	0.001929
503.2935	0.002435
503.5166	0.002794
503.7397	0.002962
503.9628	0.000178
504.1860	0.003216
504.4092	0.001254
504.6323	0.003047
504.8555	0.003005
505.0787	0.002604
505.3019	0.002076
505.5251	0.002140
505.7483	0.001739
505.9716	0.003110
506.1948	0.002667
506.4181	0.004038
506.6414	0.002773
506.8647	0.002224
507.0880	0.002836
507.3113	0.002203
507.5346	0.002330
507.7579	0.001401
507.9813	0.002055
508.2046	0.003722
508.4280	0.002709
508.6514	0.003195
508.8748	0.001380
509.0982	0.002076
509.3216	0.000895
509.5450	0.002984
509.7685	0.002456
509.9919	0.002330
510.2154	0.002224
510.4388	0.002351
510.6623	0.001127
510.8858	0.003849
511.1093	0.003490
511.3329	0.002604
511.5564	0.001676
511.7799	0.003617
512.0035	0.001886
512.2270	0.001844
512.4506	0.001823
512.6742	0.002330
512.8978	0.001591
513.1214	0.003469
513.3451	0.001802
513.5687	0.002773
513.7923	0.003511
514.0160	0.000389
514.2397	0.001380
514.4634	0.001275
514.6871	0.002119
514.9108	0.002097
515.1345	0.002604
515.3582	0.002034
515.5819	0.001085
515.8057	0.002899
516.0295	0.001697
516.2532	0.002076
516.4770	0.002308
516.7008	0.002941
516.9246	0.001802
517.1485	0.001760
517.3723	0.002962
517.5961	0.003131
517.8200	0.001865
518.0439	0.003996
518.2677	0.001676
518.4916	0.001296
518.7155	0.001296
518.9395	0.002920
519.1634	0.002541
519.3873	0.002372
519.6113	0.002308
519.8352	0.002836
520.0592	0.001950
520.2832	0.001802
520.5072	0.002266
520.7312	0.001760
520.9552	0.003659
521.1792	0.002815
521.4033	0.003954
521.6273	0.002709
521.8514	0.002836
522.0755	0.002836
522.2996	0.003279
522.5237	0.001443
522.7478	0.000958
522.9719	0.003047
523.1960	0.001507
523.4202	0.002899
523.6443	0.003384
523.8685	0.003532
524.0927	0.003532
524.3169	0.002435
524.5411	0.003912
524.7653	0.001697
524.9895	0.004081
525.2138	0.004038
525.4380	0.003047
525.6623	0.002224
525.8865	0.001254
526.1108	0.002984
526.3351	0.003469
526.5594	0.001549
526.7837	0.003131
527.0081	0.001465
527.2324	0.003785
527.4568	0.002266
527.6811	0.004735
527.9055	0.003110
528.1299	0.003342
528.3543	0.003216
528.5787	0.003659
528.8031	0.004144
529.0276	0.004355
529.2520	0.002519
529.4765	0.004566
529.7009	0.002097
529.9254	0.003659
530.1499	0.004482
530.3744	0.004123
530.5989	0.003996
530.8234	0.004313
531.0480	0.005009
531.2725	0.005241
531.4971	0.005642
531.7217	0.005937
531.9462	0.006085
532.1708	0.004756
532.3954	0.004165
532.6200	0.003785
532.8447	0.004946
533.0693	0.004102
533.2940	0.005157
533.5186	0.005557
533.7433	0.005452
533.9680	0.005663
534.1927	0.006064
534.4174	0.006612
534.6421	0.007435
534.8668	0.005853
535.0916	0.007055
535.3163	0.005220
535.5411	0.005410
535.7659	0.006444
535.9907	0.007013
536.2155	0.007477
536.4403	0.007562
536.6651	0.005494
536.8899	0.005199
537.1148	0.007541
537.3396	0.006423
537.5645	0.006169
537.7894	0.006212
538.0143	0.007520
538.2392	0.007583
538.4641	0.008743
538.6890	0.007520
538.9139	0.008258
539.1389	0.007414
539.3638	0.009271
539.5888	0.007435
539.8138	0.008553
540.0388	0.006866
540.2638	0.008364
540.4888	0.008807
540.7138	0.009292
540.9389	0.007477
541.1639	0.009650
541.3890	0.008891
541.6140	0.007963
541.8391	0.009925
542.0642	0.009777
542.2893	0.010072
542.5144	0.008764
542.7396	0.009334
542.9647	0.009313
543.1899	0.008743
543.4150	0.010515
543.6402	0.009608
543.8654	0.011634
544.0906	0.008743
544.3158	0.011043
544.5410	0.011528
544.7662	0.012013
544.9915	0.011043
545.2167	0.013469
545.4420	0.010304
545.6673	0.010874
545.8926	0.011591
546.1179	0.012098
546.3432	0.010937
546.5685	0.010094
546.7938	0.011718
547.0192	0.012267
547.2445	0.013364
547.4699	0.013068
547.6953	0.015663
547.9206	0.014777
548.1460	0.014018
548.3715	0.014587
548.5969	0.015980
548.8223	0.016571
549.0478	0.013195
549.2732	0.013068
549.4987	0.014587
549.7242	0.013005
549.9496	0.013828
550.1751	0.014798
550.4007	0.012119
550.6262	0.015157
550.8517	0.012710
551.0773	0.015220
551.3028	0.013364
551.5284	0.014482
551.7540	0.014250
551.9796	0.015832
552.2052	0.016950
552.4308	0.017309
552.6564	0.017056
552.8820	0.019271
553.1077	0.017689
553.3333	0.016866
553.5590	0.018596
553.7847	0.019208
554.0104	0.018533
554.2361	0.018005
554.4618	0.018891
554.6875	0.018258
554.9132	0.016718
555.1390	0.018744
555.3648	0.019904
555.5905	0.018554
555.8163	0.018933
556.0421	0.020938
556.2679	0.022984
556.4937	0.021550
556.7195	0.019377
556.9454	0.019081
557.1712	0.018596
557.3971	0.020242
557.6230	0.018617
557.8488	0.019925
558.0747	0.021360
558.3006	0.020663
558.5266	0.019566
558.7525	0.018533
558.9784	0.019313
559.2044	0.020917
559.4303	0.019334
559.6563	0.022077
559.8823	0.021929
560.1083	0.023617
560.3343	0.023237
560.5603	0.023934
560.7863	0.025284
561.0124	0.025790
561.2384	0.025959
561.4645	0.025706
561.6905	0.026740
561.9166	0.026740
562.1427	0.025410
562.3688	0.026275
562.5949	0.025242
562.8211	0.027225
563.0472	0.026381
563.2733	0.027119
563.4995	0.027267
563.7257	0.027689
563.9519	0.027773
564.1781	0.028913
564.4043	0.029292
564.6305	0.030769
564.8567	0.029335
565.0829	0.030242
565.3092	0.032942
565.5355	0.030516
565.7617	0.030537
565.9880	0.031466
566.2143	0.032225
566.4406	0.033217
566.6669	0.034968
566.8932	0.035875
567.1196	0.036466
567.3459	0.039989
567.5723	0.042858
567.7987	0.041529
568.0250	0.044314
568.2514	0.046065
568.4778	0.046382
568.7043	0.050053
568.9307	0.050960
569.1571	0.056698
569.3836	0.058175
569.6100	0.068070
569.8365	0.073788
570.0630	0.078535
570.2895	0.079969
570.5160	0.076784
570.7425	0.082691
570.9690	0.088282
571.1956	0.092965
571.4221	0.096236
571.6487	0.100856
571.8752	0.105287
572.1018	0.104316
572.3284	0.108641
572.5550	0.100350
572.7816	0.095371
573.0082	0.091826
573.2349	0.094506
573.4615	0.109211
573.6882	0.115097
573.9149	0.120815
574.1415	0.125435
574.3682	0.127756
574.5949	0.134887
574.8216	0.135942
575.0484	0.134507
575.2751	0.139950
575.5018	0.136364
575.7286	0.126405
575.9554	0.126574
576.1821	0.123220
576.4089	0.127249
576.6357	0.134908
576.8626	0.139613
577.0894	0.143199
577.3162	0.144592
577.5431	0.153537
577.7699	0.169044
577.9968	0.192779
578.2237	0.188201
578.4505	0.176618
578.6774	0.168306
578.9044	0.153453
579.1313	0.146744
579.3582	0.145583
579.5851	0.157736
579.8121	0.157820
580.0391	0.164381
580.2660	0.161639
580.4930	0.163791
580.7200	0.157103
580.9470	0.160225
581.1741	0.187610
581.4011	0.229573
581.6281	0.253308
581.8552	0.249363
582.0822	0.248350
582.3093	0.239764
582.5364	0.222400
582.7635	0.204298
582.9906	0.182968
583.2177	0.174867
583.4449	0.159170
583.6720	0.149676
583.8991	0.144718
584.1263	0.149486
584.3535	0.150035
584.5807	0.153537
584.8079	0.169086
585.0351	0.174382
585.2623	0.185120
585.4895	0.188813
585.7167	0.188686
585.9440	0.181196
586.1713	0.168432
586.3985	0.160457
586.6258	0.153748
586.8531	0.155921
587.0804	0.168495
587.3077	0.177335
587.5350	0.175226
587.7624	0.173812
587.9897	0.170668
588.2171	0.160499
588.4445	0.160647
588.6718	0.156913
588.8992	0.148453
589.1266	0.141786
589.3540	0.131785
589.5815	0.129528
589.8089	0.129148
590.0363	0.125182
590.2638	0.122460
590.4913	0.117186
590.7187	0.113620
590.9462	0.106405
591.1737	0.107818
591.4012	0.100350
591.6288	0.102291
591.8563	0.104633
592.0838	0.101004
592.3114	0.103071
592.5389	0.120857
592.7665	0.143938
592.9941	0.155119
593.2217	0.159170
593.4493	0.163116
593.6769	0.153073
593.9046	0.151807
594.1322	0.142187
594.3598	0.135161
594.5875	0.134380
594.8152	0.144803
595.0429	0.155141
595.2705	0.152757
595.4983	0.151132
595.7260	0.142503
595.9537	0.135520
596.1814	0.128072
596.4092	0.119485
596.6369	0.113937
596.8647	0.113451
597.0925	0.115076
597.3203	0.120287
597.5481	0.117291
597.7759	0.117354
598.0037	0.115181
598.2315	0.110793
598.4594	0.112122
598.6872	0.123452
598.9151	0.140499
599.1430	0.149086
599.3709	0.144339
599.5988	0.142904
599.8267	0.141427
600.0546	0.144634
600.2825	0.148410
600.5105	0.147545
600.7384	0.141828
600.9664	0.146976
601.1944	0.151913
601.4223	0.143748
601.6503	0.142398
601.8783	0.133980
602.1064	0.131258
602.3344	0.129254
602.5624	0.132882
602.7905	0.135245
603.0185	0.136364
603.2466	0.146195
603.4747	0.150119
603.7028	0.151174
603.9309	0.146744
604.1590	0.138579
604.3871	0.132608
604.6152	0.128431
604.8434	0.124697
605.0715	0.123768
605.2997	0.123410
605.5279	0.132186
605.7561	0.135583
605.9843	0.140182
606.2125	0.138832
606.4407	0.129233
606.6689	0.125688
606.8972	0.124528
607.1254	0.123895
607.3537	0.128389
607.5819	0.129676
607.8102	0.129422
608.0385	0.127713
608.2668	0.119633
608.4951	0.116194
608.7235	0.120245
608.9518	0.110118
609.1801	0.112776
609.4085	0.106194
609.6369	0.105350
609.8653	0.110561
610.0936	0.119971
610.3220	0.122249
610.5505	0.118599
610.7789	0.112017
611.0073	0.109801
611.2357	0.111532
611.4642	0.107481
611.6927	0.111658
611.9211	0.111363
612.1496	0.108979
612.3781	0.106004
612.6066	0.102649
612.8351	0.102248
613.0637	0.105392
613.2922	0.101658
613.5208	0.099696
613.7493	0.102312
613.9779	0.100582
614.2065	0.102945
614.4351	0.100033
614.6637	0.104464
614.8923	0.098261
615.1209	0.100582
615.3495	0.104759
615.5782	0.104274
615.8068	0.104527
616.0355	0.101573
616.2642	0.092902
616.4929	0.092965
616.7216	0.088936
616.9503	0.086256
617.1790	0.085539
617.4077	0.089484
617.6365	0.088915
617.8652	0.088915
618.0940	0.089442
618.3227	0.085244
618.5515	0.080919
618.7803	0.075539
619.0091	0.071847
619.2379	0.071868
619.4667	0.070707
619.6956	0.072648
619.9244	0.074210
620.1533	0.079336
620.3821	0.079568
620.6110	0.078514
620.8399	0.073302
621.0688	0.065496
621.2977	0.059715
621.5266	0.060180
621.7556	0.063218
621.9845	0.065538
622.2135	0.067353
622.4424	0.068766
622.6714	0.068218
622.9004	0.068598
623.1294	0.068766
623.3584	0.070750
623.5874	0.074653
623.8164	0.071593
624.0454	0.069885
624.2745	0.069505
624.5035	0.074231
624.7326	0.076425
624.9617	0.075222
625.1908	0.069526
625.4199	0.067669
625.6490	0.065792
625.8781	0.065159
626.1072	0.063956
626.3364	0.060855
626.5655	0.061614
626.7947	0.053871
627.0238	0.057184
627.2530	0.055707
627.4822	0.059800
627.7114	0.057901
627.9406	0.054504
628.1698	0.053112
628.3991	0.051361
628.6283	0.046466
628.8576	0.047015
629.0868	0.046804
629.3161	0.051783
629.5454	0.051867
629.7747	0.049884
630.0040	0.051023
630.2333	0.048217
630.4626	0.047078
630.6920	0.046382
630.9213	0.047458
631.1507	0.045010
631.3801	0.041677
631.6094	0.045158
631.8388	0.041339
632.0682	0.042352
632.2976	0.040538
632.5271	0.038871
632.7565	0.038597
632.9859	0.036234
633.2154	0.035432
633.4448	0.037035
633.6743	0.035938
633.9038	0.037289
634.1333	0.035980
634.3628	0.035432
634.5923	0.034736
634.8218	0.034525
635.0514	0.032478
635.2809	0.033217
635.5105	0.033892
635.7400	0.032309
635.9696	0.032520
636.1992	0.033533
636.4288	0.036782
636.6584	0.038259
636.8880	0.038575
637.1177	0.034757
637.3473	0.033639
637.5770	0.033786
637.8066	0.036044
638.0363	0.032584
638.2660	0.033807
638.4957	0.035580
638.7254	0.032605
638.9551	0.034926
639.1848	0.032774
639.4145	0.031508
639.6443	0.032574
639.8740	0.031370
640.1038	0.029360
640.3336	0.030894
640.5633	0.028103
640.7931	0.031502
641.0229	0.029613
641.2528	0.028029
641.4826	0.028268
641.7124	0.027382
641.9423	0.026195
642.1721	0.025236
642.4020	0.024593
642.6319	0.023214
642.8617	0.024435
643.0916	0.025171
643.3216	0.024395
643.5515	0.023398
643.7814	0.025458
644.0113	0.025411
644.2413	0.023568
644.4712	0.022596
644.7012	0.021380
644.9312	0.021634
645.1612	0.021037
645.3912	0.022348
645.6212	0.022358
645.8512	0.020671
646.0812	0.022440
646.3113	0.021330
646.5413	0.019360
646.7714	0.021043
647.0015	0.018210
647.2316	0.020345
647.4616	0.019330
647.6918	0.020923
647.9219	0.022987
648.1520	0.023228
648.3821	0.024898
648.6123	0.026241
648.8424	0.026540
649.0726	0.027790
649.3028	0.029391
649.5329	0.027194
649.7631	0.026437
649.9933	0.027742
650.2236	0.026023
650.4538	0.024214
650.6840	0.022970
650.9143	0.023475
651.1445	0.023744
651.3748	0.023715
651.6051	0.024800
651.8354	0.024545
652.0657	0.026376
652.2960	0.026525
652.5263	0.025133
652.7566	0.024350
652.9870	0.027634
653.2173	0.025494
653.4477	0.026298
653.6780	0.026882
653.9084	0.026276
654.1388	0.026611
654.3692	0.030678
654.5996	0.029226
654.8300	0.032222
655.0605	0.048964
655.2909	0.128411
655.5213	0.396600
655.7518	0.783243
655.9823	1.000000
656.2128	1.000000
656.4433	1.000000
656.6738	1.000000
656.9043	0.876944
657.1348	0.697746
657.3653	0.567839
657.5959	0.489015
657.8264	0.424148
658.0570	0.386743
658.2875	0.350066
658.5181	0.321464
658.7487	0.298565
658.9793	0.283791
659.2099	0.232049
659.4406	0.162642
659.6712	0.100422
659.9018	0.059704
660.1325	0.039839
660.3632	0.027855
660.5938	0.023840
660.8245	0.020614
661.0552	0.020638
661.2859	0.019038
661.5166	0.019816
661.7474	0.017941
661.9781	0.018122
662.2088	0.018347
662.4396	0.019569
662.6704	0.019171
662.9011	0.020830
663.1319	0.015473
663.3627	0.017357
663.5935	0.017815
663.8243	0.017958
664.0552	0.017789
664.2860	0.019162
664.5168	0.017401
664.7477	0.019206
664.9786	0.018889
665.2094	0.020314
665.4403	0.019914
665.6712	0.020108
665.9021	0.020186
666.1330	0.020870
666.3640	0.018290
666.5949	0.018509
666.8259	0.017369
667.0568	0.016589
667.2878	0.018338
667.5188	0.018831
667.7497	0.017417
667.9807	0.018548
668.2117	0.017463
668.4428	0.017182
668.6738	0.017963
668.9048	0.019039
669.1359	0.016085
669.3669	0.017414
669.5980	0.018343
669.8291	0.016127
670.0602	0.018786
670.2913	0.019651
670.5224	0.017014
670.7535	0.018701
670.9846	0.018385
671.2157	0.018638
671.4469	0.022815
671.6781	0.022583
671.9092	0.025600
672.1404	0.025115
672.3716	0.026887
672.6028	0.030495
672.8340	0.027394
673.0652	0.028512
673.2964	0.026149
673.5277	0.026381
673.7589	0.025094
673.9902	0.024989
674.2214	0.024588
674.4527	0.022161
674.6840	0.022183
674.9153	0.022942
675.1466	0.021761
675.3779	0.021128
675.6093	0.021001
675.8406	0.021486
676.0719	0.020263
676.3033	0.022246
676.5347	0.020178
676.7661	0.019081
676.9974	0.018849
677.2288	0.019798
677.4602	0.019693
677.6917	0.022499
677.9231	0.025685
678.1545	0.023870
678.3860	0.024060
678.6174	0.024778
678.8489	0.022900
679.0804	0.025748
679.3119	0.026191
679.5434	0.028238
679.7749	0.029039
680.0064	0.029693
680.2379	0.028406
680.4694	0.026845
680.7010	0.027077
680.9325	0.027710
681.1641	0.028533
681.3957	0.031191
681.6273	0.028681
681.8589	0.028491
682.0905	0.027752
682.3221	0.025073
682.5537	0.025727
682.7854	0.024419
683.0170	0.024567
683.2487	0.024567
683.4803	0.025221
683.7120	0.025347
683.9437	0.025854
684.1754	0.028322
684.4071	0.029356
684.6388	0.029736
684.8705	0.030115
685.1023	0.033533
685.3340	0.036170
685.5658	0.036571
685.7975	0.034356
686.0293	0.036972
686.2611	0.037478
686.4929	0.034546
686.7247	0.037457
686.9565	0.034525
687.1883	0.038786
687.4202	0.034693
687.6520	0.034630
687.8838	0.033364
688.1157	0.033364
688.3476	0.032731
688.5795	0.029946
688.8114	0.028554
689.0433	0.029883
689.2752	0.030031
689.5071	0.031993
689.7390	0.028617
689.9710	0.028491
690.2029	0.027541
690.4349	0.028216
690.6669	0.030516
690.8988	0.030284
691.1308	0.029714
691.3628	0.033301
691.5948	0.031466
691.8269	0.030558
692.0589	0.030579
692.2909	0.032098
692.5230	0.031698
692.7550	0.032394
692.9871	0.031423
693.2192	0.032963
693.4513	0.033786
693.6834	0.030115
693.9155	0.029736
694.1476	0.030917
694.3797	0.025811
694.6119	0.026951
694.8440	0.026887
695.0762	0.028027
695.3083	0.028976
695.5405	0.025748
695.7727	0.024398
696.0049	0.022752
696.2371	0.023385
696.4693	0.023828
696.7016	0.031128
696.9338	0.033702
697.1660	0.034335
697.3983	0.031993
697.6306	0.031255
697.8628	0.031255
698.0951	0.033723
698.3274	0.032879
698.5597	0.030347
698.7920	0.030305
699.0243	0.029314
699.2567	0.028322
699.4890	0.028449
699.7214	0.028322
699.9537	0.026697
700.1861	0.025643
700.4185	0.024102
700.6509	0.024292
700.8833	0.025157
701.1157	0.022879
701.3481	0.022520
701.5806	0.023385
701.8130	0.024187
702.0454	0.024693
702.2779	0.024102
702.5104	0.026550
702.7429	0.025790
702.9753	0.025010
703.2078	0.025305
703.4403	0.022478
703.6729	0.022858
703.9054	0.023765
704.1379	0.021064
704.3705	0.021571
704.6030	0.021972
704.8356	0.021697
705.0682	0.020896
705.3008	0.020284
705.5334	0.018575
705.7660	0.020410
705.9986	0.021170
706.2312	0.023026
706.4638	0.024630
706.6965	0.029609
706.9291	0.031276
707.1618	0.030812
707.3945	0.032141
707.6272	0.030516
707.8599	0.029609
708.0926	0.030200
708.3253	0.031761
708.5580	0.031529
708.7907	0.028807
709.0235	0.030179
709.2562	0.028913
709.4890	0.029989
709.7217	0.028048
709.9545	0.028786
710.1873	0.027562
710.4201	0.027689
710.6529	0.029018
710.8857	0.028322
711.1186	0.027415
711.3514	0.026254
711.5842	0.026613
711.8171	0.023744
712.0500	0.023069
712.2828	0.023195
712.5157	0.021360
712.7486	0.025178
712.9815	0.024588
713.2144	0.023891
713.4474	0.027541
713.6803	0.026212
713.9132	0.027562
714.1462	0.029356
714.3791	0.028512
714.6121	0.029166
714.8451	0.028470
715.0781	0.026613
715.3111	0.029630
715.5441	0.029208
715.7771	0.028533
716.0102	0.027647
716.2432	0.024778
716.4762	0.024060
716.7093	0.023617
716.9424	0.021993
717.1754	0.022372
717.4085	0.022161
717.6416	0.021929
717.8747	0.023448
718.1078	0.024039
718.3410	0.024799
718.5741	0.022794
718.8072	0.023237
719.0404	0.024271
719.2736	0.026022
719.5067	0.025453
719.7399	0.023807
719.9731	0.022879
720.2063	0.022457
720.4395	0.020558
720.6727	0.023617
720.9060	0.024651
721.1392	0.026191
721.3725	0.024841
721.6057	0.025875
721.8390	0.023934
722.0723	0.023596
722.3055	0.024145
722.5388	0.023132
722.7721	0.023849
723.0055	0.024102
723.2388	0.021550
723.4721	0.022689
723.7055	0.023913
723.9388	0.023132
724.1722	0.023976
724.4056	0.021254
724.6389	0.022963
724.8723	0.022056
725.1057	0.024102
725.3391	0.024609
725.5726	0.028301
725.8060	0.025347
726.0394	0.027373
726.2729	0.030094
726.5063	0.027035
726.7398	0.029736
726.9733	0.028006
727.2068	0.026339
727.4403	0.025790
727.6738	0.026782
727.9073	0.028638
728.1408	0.027119
728.3743	0.029229
728.6079	0.030326
728.8414	0.028997
729.0750	0.028913
729.3086	0.028132
729.5421	0.028807
729.7757	0.029925
730.0093	0.031887
730.2429	0.027984
730.4766	0.031001
730.7102	0.032710
730.9438	0.035242
731.1775	0.037014
731.4111	0.034609
731.6448	0.034841
731.8785	0.037753
732.1122	0.036487
732.3458	0.034440
732.5795	0.033006
732.8133	0.034904
733.0470	0.037457
733.2807	0.035896
733.5145	0.034419
733.7482	0.037605
733.9820	0.039082
734.2157	0.041318
734.4495	0.042732
734.6833	0.041740
734.9171	0.042479
735.1509	0.040348
735.3847	0.038850
735.6185	0.038470
735.8524	0.038744
736.0862	0.040369
736.3201	0.039609
736.5539	0.039356
736.7878	0.039525
737.0217	0.041614
737.2556	0.039208
737.4895	0.036424
737.7234	0.038301
737.9573	0.036360
738.1912	0.034989
738.4252	0.035052
738.6591	0.033955
738.8931	0.033618
739.1271	0.036086
739.3610	0.037858
739.5950	0.038533
739.8290	0.037078
740.0630	0.034989
740.2970	0.036466
740.5310	0.033828
740.7651	0.031191
740.9991	0.032668
741.2332	0.029841
741.4672	0.029103
741.7013	0.027668
741.9354	0.027731
742.1695	0.028828
742.4036	0.028343
742.6377	0.027246
742.8718	0.026887
743.1059	0.028006
743.3400	0.025242
743.5742	0.025579
743.8083	0.026086
744.0425	0.024609
744.2767	0.026655
744.5108	0.022815
744.7450	0.024946
744.9792	0.025664
745.2134	0.024545
745.4477	0.022710
745.6819	0.023533
745.9161	0.022267
746.1504	0.022963
746.3846	0.024229
746.6189	0.021507
746.8532	0.022879
747.0874	0.023976
747.3217	0.025790
747.5560	0.026381
747.7903	0.025938
748.0247	0.023870
748.2590	0.025748
748.4933	0.023364
748.7277	0.022794
748.9620	0.024081
749.1964	0.026803
749.4308	0.026107
749.6652	0.028090
749.8995	0.030579
750.1339	0.031149
750.3684	0.032668
750.6028	0.033807
750.8372	0.035137
751.0717	0.031466
751.3061	0.032415
751.5406	0.032120
751.7750	0.033976
752.0095	0.032246
752.2440	0.031761
752.4785	0.030579
752.7130	0.031698
752.9475	0.031001
753.1820	0.027478
753.4166	0.031550
753.6511	0.033660
753.8856	0.032563
754.1202	0.033343
754.3548	0.032668
754.5894	0.032056
754.8239	0.031655
755.0585	0.032499
755.2931	0.031887
755.5278	0.036529
755.7624	0.035559
755.9970	0.036634
756.2317	0.036634
756.4663	0.038238
756.7010	0.040305
756.9356	0.041424
757.1703	0.043871
757.4050	0.046171
757.6397	0.047669
757.8744	0.048892
758.1091	0.046951
758.3438	0.047183
758.5786	0.042837
758.8133	0.045580
759.0481	0.042816
759.2828	0.048238
759.5176	0.046445
759.7524	0.049947
759.9872	0.050707
760.2220	0.049103
760.4568	0.051044
760.6916	0.052162
760.9264	0.052838
761.1613	0.050960
761.3961	0.049167
761.6310	0.044272
761.8658	0.042753
762.1007	0.041825
762.3356	0.040263
762.5705	0.039862
762.8054	0.040010
763.0403	0.039862
763.2752	0.040221
763.5101	0.041635
763.7450	0.043618
763.9800	0.040369
764.2149	0.041571
764.4499	0.044863
764.6849	0.044989
764.9198	0.050939
765.1548	0.047795
765.3898	0.047795
765.6248	0.046150
765.8599	0.042858
766.0949	0.042120
766.3299	0.038913
766.5650	0.036445
766.8000	0.033554
767.0351	0.033407
767.2701	0.031719
767.5052	0.031698
767.7403	0.030432
767.9754	0.032689
768.2105	0.036191
768.4456	0.037352
768.6808	0.040327
768.9159	0.040622
769.1510	0.040580
769.3862	0.038976
769.6214	0.036972
769.8565	0.038238
770.0917	0.038259
770.3269	0.037331
770.5621	0.036149
770.7973	0.039314
771.0325	0.038449
771.2677	0.041550
771.5030	0.038069
771.7382	0.038301
771.9735	0.035432
772.2087	0.032584
772.4440	0.033533
772.6793	0.033301
772.9146	0.032731
773.1499	0.033976
773.3852	0.033660
773.6205	0.032394
773.8558	0.030221
774.0911	0.029208
774.3265	0.030179
774.5618	0.026719
774.7972	0.027731
775.0326	0.026402
775.2679	0.024166
775.5033	0.023385
775.7387	0.023048
775.9741	0.023554
776.2095	0.021339
776.4450	0.019187
776.6804	0.020474
776.9158	0.021655
777.1513	0.021212
777.3868	0.020368
777.6222	0.020178
777.8577	0.021191
778.0932	0.021149
778.3287	0.021149
778.5642	0.023005
778.7997	0.024756
779.0352	0.023723
779.2707	0.024841
779.5063	0.027647
779.7418	0.027330
779.9774	0.023153
780.2130	0.023913
780.4485	0.023638
780.6841	0.021465
780.9197	0.027541
781.1553	0.027056
781.3909	0.029398
781.6265	0.028343
781.8622	0.028976
782.0978	0.030031
782.3335	0.030706
782.5691	0.029567
782.8048	0.028871
783.0405	0.027921
783.2761	0.026676
783.5118	0.028765
783.7475	0.027858
783.9832	0.028955
784.2190	0.025263
784.4547	0.025178
784.6904	0.025157
784.9262	0.021761
785.1619	0.024334
785.3977	0.022858
785.6335	0.024102
785.8692	0.024904
786.1050	0.025579
786.3408	0.023807
786.5766	0.022942
786.8124	0.024187
787.0483	0.023005
787.2841	0.022647
787.5199	0.023491
787.7558	0.026318
787.9917	0.023659
788.2275	0.023174
788.4634	0.023111
788.6993	0.025115
788.9352	0.026339
789.1711	0.026803
789.4070	0.024567
789.6429	0.024208
789.8789	0.022773
790.1148	0.021972
790.3507	0.021275
790.5867	0.021402
790.8227	0.020917
791.0586	0.022647
791.2946	0.020474
791.5306	0.018744
791.7666	0.020453
792.0026	0.018807
792.2387	0.019566
792.4747	0.019798
792.7107	0.019102
792.9468	0.015832
793.1828	0.019102
793.4189	0.018596
793.6550	0.019904
793.8910	0.022309
794.1271	0.023955
794.3632	0.026571
794.5993	0.028427
794.8355	0.027140
795.0716	0.027077
795.3077	0.027162
795.5439	0.025727
795.7800	0.025073
796.0162	0.020347
796.2523	0.020495
796.4885	0.020474
796.7247	0.019925
796.9609	0.016212
797.1971	0.018385
797.4333	0.018111
797.6695	0.019672
797.9058	0.020410
798.1420	0.017225
798.3783	0.018406
798.6145	0.018364
798.8508	0.020199
799.0871	0.019862
799.3233	0.018976
799.5596	0.019461
799.7959	0.017351
800.0322	0.016127
800.2686	0.015600
800.5049	0.016528
800.7412	0.016170
800.9776	0.015241
801.2139	0.015051
801.4503	0.016085
801.6867	0.014587
801.9230	0.014102
802.1594	0.013490
802.3958	0.012224
802.6322	0.015410
802.8686	0.013933
803.1051	0.016043
803.3415	0.012731
803.5779	0.015874
803.8144	0.016760
804.0508	0.013575
804.2873	0.014566
804.5238	0.013364
804.7603	0.015220
804.9968	0.014376
805.2333	0.014503
805.4698	0.014651
805.7063	0.013997
805.9428	0.016170
806.1794	0.017351
806.4159	0.019102
806.6525	0.020663
806.8890	0.019398
807.1256	0.019820
807.3622	0.018849
807.5988	0.018997
807.8354	0.016950
808.0720	0.017436
808.3086	0.018955
808.5452	0.017815
808.7818	0.018701
809.0185	0.019651
809.2551	0.019440
809.4918	0.018385
809.7284	0.016697
809.9651	0.015579
810.2018	0.016085
810.4385	0.017288
810.6752	0.014904
810.9119	0.014123
811.1486	0.016676
811.3853	0.014819
811.6221	0.014988
811.8588	0.013680
812.0956	0.014862
812.3323	0.013870
812.5691	0.012773
812.8059	0.014376
813.0427	0.011676
813.2795	0.012646
813.5163	0.013575
813.7531	0.014208
813.9899	0.016360
814.2267	0.015009
814.4636	0.016528
814.7004	0.013891
814.9373	0.014039
815.1742	0.013765
815.4110	0.013005
815.6479	0.012963
815.8848	0.012351
816.1217	0.012203
816.3586	0.011824
816.5955	0.011148
816.8324	0.011718
817.0694	0.012035
817.3063	0.012414
817.5433	0.010769
817.7802	0.011950
818.0172	0.011739
818.2542	0.010537
818.4912	0.013237
818.7282	0.009271
818.9652	0.009081
819.2022	0.010410
819.4392	0.010832
819.6762	0.008975
819.9133	0.008849
820.1503	0.010642
820.3874	0.011338
820.6244	0.012245
820.8615	0.013237
821.0986	0.014376
821.3357	0.012203
821.5727	0.011106
821.8099	0.012288
822.0470	0.010326
822.2841	0.011866
822.5212	0.011549
822.7584	0.011634
822.9955	0.009925
823.2327	0.008807
823.4698	0.007984
823.7070	0.009207
823.9442	0.009355
824.1814	0.009250
824.4186	0.010600
824.6558	0.007878
824.8930	0.008828
825.1302	0.011866
825.3675	0.010199
825.6047	0.011760
825.8419	0.011507
826.0792	0.010326
826.3165	0.010895
826.5537	0.010262
826.7910	0.011212
827.0283	0.009650
827.2656	0.011064
827.5029	0.012857
827.7402	0.011423
827.9776	0.011570
828.2149	0.011170
828.4522	0.009566
828.6896	0.009144
828.9270	0.011971
829.1643	0.009545
829.4017	0.009883
829.6391	0.009714
829.8765	0.010494
830.1139	0.009524
830.3513	0.008912
830.5887	0.008996
830.8261	0.008722
831.0636	0.008596
831.3010	0.007625
831.5385	0.008469
831.7759	0.007224
832.0134	0.006591
832.2509	0.006655
832.4884	0.006612
832.7259	0.006317
832.9634	0.006697
833.2009	0.009376
833.4384	0.008153
833.6759	0.009271
833.9135	0.008385
834.1510	0.008807
834.3886	0.008131
834.6261	0.007541
834.8637	0.007688
835.1013	0.009439
835.3389	0.007899
835.5765	0.008912
835.8141	0.007541
836.0517	0.007520
836.2893	0.008722
836.5269	0.006296
836.7646	0.007456
837.0022	0.007731
837.2399	0.004988
837.4775	0.006359
837.7152	0.006444
837.9529	0.006423
838.1906	0.006190
838.4283	0.004988
838.6660	0.005389
838.9037	0.004629
839.1414	0.006148
839.3791	0.007646
839.6169	0.005368
839.8546	0.006570
840.0924	0.005199
840.3302	0.006739
840.5679	0.005536
840.8057	0.006697
841.0435	0.006190
841.2813	0.005853
841.5191	0.004376
841.7569	0.005790
841.9947	0.004123
842.2326	0.006317
842.4704	0.005895
842.7082	0.003975
842.9461	0.004756
843.1840	0.004186
843.4218	0.004418
843.6597	0.005347
843.8976	0.004587
844.1355	0.005515
844.3734	0.004967
844.6113	0.004060
844.8492	0.004207
845.0872	0.004882
845.3251	0.002794
845.5631	0.005220
845.8010	0.003617
846.0390	0.004671
846.2770	0.004081
846.5149	0.005663
846.7529	0.004819
846.9909	0.004925
847.2289	0.001971
847.4669	0.004608
847.7050	0.005283
847.9430	0.005157
848.1810	0.004186
848.4191	0.004439
848.6571	0.003849
848.8952	0.003870
849.1333	0.004060
849.3713	0.004545
849.6094	0.005136
849.8475	0.004038
850.0856	0.004587
850.3237	0.004903
850.5619	0.002920
850.8000	0.005093
851.0381	0.003975
851.2763	0.005452
851.5144	0.004102
851.7526	0.005241
851.9908	0.005178
852.2289	0.005136
852.4671	0.006781
852.7053	0.006844
852.9435	0.007773
853.1817	0.011106
853.4200	0.010705
853.6582	0.011676
853.8964	0.012098
854.1347	0.012140
854.3729	0.012182
854.6112	0.013026
854.8495	0.011802
855.0877	0.012604
855.3260	0.011591
855.5643	0.008849
855.8026	0.009840
856.0409	0.009207
856.2792	0.009629
856.5176	0.010030
856.7559	0.012478
856.9942	0.010072
857.2326	0.009861
857.4710	0.009271
857.7093	0.008469
857.9477	0.009081
858.1861	0.007942
858.4245	0.008174
858.6629	0.008532
858.9013	0.007034
859.1397	0.007055
859.3781	0.007477
859.6166	0.007309
859.8550	0.007034
860.0935	0.006781
860.3319	0.008406
860.5704	0.007224
860.8089	0.007203
861.0473	0.006697
861.2858	0.005621
861.5243	0.003954
861.7628	0.005347
862.0013	0.005072
862.2399	0.004629
862.4784	0.005030
862.7169	0.005494
862.9555	0.004629
863.1940	0.005051
863.4326	0.005958
863.6712	0.006380
863.9098	0.004313
864.1483	0.005178
864.3869	0.005304
864.6255	0.004081
864.8642	0.003722
865.1028	0.004608
865.3414	0.003764
865.5800	0.004292
865.8187	0.004925
866.0573	0.004165
866.2960	0.003574
866.5347	0.005579
866.7733	0.004988
867.0120	0.003553
867.2507	0.004165
867.4894	0.004714
867.7281	0.003173
867.9669	0.005747
868.2056	0.004967
868.4443	0.005072
868.6831	0.005262
868.9218	0.004946
869.1606	0.002224
869.3993	0.003047
869.6381	0.002393
869.8769	0.003891
870.1157	0.002836
870.3545	0.004545
870.5933	0.004503
870.8321	0.003806
871.0709	0.005199
871.3097	0.005389
871.5486	0.003258
871.7874	0.004608
872.0263	0.003384
872.2651	0.004819
872.5040	0.004165
872.7429	0.004482
872.9818	0.003406
873.2207	0.005726
873.4596	0.004207
873.6985	0.005114
873.9374	0.005705
874.1763	0.004587
874.4153	0.005600
874.6542	0.003785
874.8932	0.004988
875.1321	0.005304
875.3711	0.004355
875.6101	0.005557
875.8491	0.005452
876.0880	0.005726
876.3270	0.003595
876.5661	0.003701
876.8051	0.004903
877.0441	0.003870
877.2831	0.005895
877.5222	0.004903
877.7612	0.005557
878.0003	0.005494
878.2393	0.004903
878.4784	0.004292
878.7175	0.004692
878.9566	0.006043
879.1957	0.006591
879.4348	0.006043
879.6739	0.006423
879.9130	0.008047
880.1521	0.007140
880.3913	0.006169
880.6304	0.007330
880.8696	0.005642
881.1087	0.006233
881.3479	0.006001
881.5871	0.007709
881.8262	0.006085
882.0654	0.006676
882.3046	0.006212
882.5438	0.006148
882.7831	0.005642
883.0223	0.004714
883.2615	0.004967
883.5007	0.006317
883.7400	0.005009
883.9792	0.003912
884.2185	0.004967
884.4578	0.006106
884.6971	0.005262
884.9363	0.005347
885.1756	0.005304
885.4149	0.004524
885.6542	0.006233
885.8936	0.006338
886.1329	0.005600
886.3722	0.004692
886.6116	0.005157
886.8509	0.004186
887.0903	0.004692
887.3296	0.003785
887.5690	0.003195
887.8084	0.004249
888.0478	0.003743
888.2872	0.005114
888.5266	0.004460
888.7660	0.003384
889.0054	0.005515
889.2448	0.005220
889.4843	0.005937
889.7237	0.003511
889.9632	0.003827
890.2026	0.004038
890.4421	0.003659
890.6816	0.003258
890.9211	0.003152
891.1606	0.005515
891.4001	0.002604
891.6396	0.004545
891.8791	0.004017
892.1186	0.003996
892.3581	0.002646
892.5977	0.004271
892.8372	0.005768
893.0768	0.004292
893.3163	0.004967
893.5559	0.003574
893.7955	0.003279
894.0351	0.003152
894.2747	0.002646
894.5143	0.004313
894.7539	0.003617
894.9935	0.003005
895.2331	0.003659
895.4727	0.004967
895.7124	0.002562
895.9520	0.004714
896.1917	0.004460
896.4314	0.004439
896.6710	0.003617
896.9107	0.005093
897.1504	0.003300
897.3901	0.005051
897.6298	0.003996
897.8695	0.002456
898.1092	0.003216
898.3489	0.002562
898.5887	0.005157
898.8284	0.004482
899.0682	0.004566
899.3079	0.003827
899.5477	0.003279
899.7875	0.005051
900.0272	0.003638
900.2670	0.002583
900.5068	0.003321
900.7466	0.004165
900.9864	0.002920
901.2263	0.004017
901.4661	0.005051
901.7059	0.004566
901.9458	0.004123
902.1856	0.004376
902.4255	0.002857
902.6654	0.003701
902.9052	0.003659
903.1451	0.003511
903.3850	0.004271
903.6249	0.003216
903.8648	0.002076
904.1047	0.003659
904.3446	0.004692
904.5846	0.003574
904.8245	0.004503
905.0644	0.004249
905.3044	0.005557
905.5444	0.004671
905.7843	0.003384
906.0243	0.004988
906.2643	0.003617
906.5043	0.003279
906.7443	0.003321
906.9843	0.003469
907.2243	0.003827
907.4643	0.004503
907.7043	0.004861
907.9444	0.005262
908.1844	0.003068
908.4245	0.003638
908.6645	0.003954
908.9046	0.003785
909.1447	0.001612
909.3847	0.003891
909.6248	0.002836
909.8649	0.004671
910.1050	0.001654
910.3452	0.001929
910.5853	0.002541
910.8254	0.001401
911.0655	0.002245
911.3057	0.004608
911.5458	0.003152
911.7860	0.003279
912.0262	0.002751
912.2663	0.003785
912.5065	0.002688
912.7467	0.002920
912.9869	0.003891
913.2271	0.003743
913.4673	0.003321
913.7075	0.002836
913.9478	0.002477
914.1880	0.003617
914.4283	0.002393
914.6685	0.003532
914.9088	0.002878
915.1490	0.003089
915.3893	0.002330
915.6296	0.002667
915.8699	0.003173
916.1102	0.002245
916.3505	0.002751
916.5908	0.002498
916.8311	0.003258
917.0714	0.004819
917.3118	0.002245
917.5521	0.004060
917.7925	0.002751
918.0328	0.004186
918.2732	0.004271
918.5136	0.004081
918.7539	0.003638
918.9943	0.002667
919.2347	0.004165
919.4751	0.003237
919.7155	0.002836
919.9560	0.004460
920.1964	0.003216
920.4368	0.003722
920.6773	0.003237
920.9177	0.002583
921.1582	0.002372
921.3986	0.002076
921.6391	0.001085
921.8796	0.002836
922.1201	0.002351
922.3606	0.001760
922.6011	0.002076
922.8416	0.002393
923.0821	0.003342
923.3226	0.003300
923.5631	0.002477
923.8037	0.003131
924.0442	0.002435
924.2848	0.002773
924.5254	0.003996
924.7659	0.002055
925.0065	0.001401
925.2471	0.003722
925.4877	0.001190
925.7283	0.002182
925.9689	0.001359
926.2095	0.002097
926.4501	0.001528
926.6908	0.003110
926.9314	0.002625
927.1720	0.002435
927.4127	0.001148
927.6533	0.002498
927.8940	0.002224
928.1347	0.001254
928.3754	0.001718
928.6161	0.001654
928.8568	0.001106
929.0975	0.002625
929.3382	0.001950
929.5789	0.001633
929.8196	0.001317
930.0604	0.002519
930.3011	0.000494
930.5419	0.001950
930.7826	0.000621
931.0234	0.002604
931.2642	0.002477
931.5049	0.001971
931.7457	0.002456
931.9865	0.002140
932.2273	0.001211
932.4681	0.001232
932.7089	0.001697
932.9498	0.001422
933.1906	0.002688
933.4314	0.003173
933.6723	0.002836
933.9131	0.002604
934.1540	0.002182
934.3949	0.001676
934.6358	0.001886
934.8766	0.000557
935.1175	0.002097
935.3584	0.001507
935.5993	0.003258
935.8403	0.001676
936.0812	0.001781
936.3221	0.001718
936.5630	0.001211
936.8040	0.000811
937.0449	0.001043
937.2859	0.001317
937.5269	0.001971
937.7678	0.002414
938.0088	0.001971
938.2498	0.001422
938.4908	0.002097
938.7318	0.001971
938.9728	0.002182
939.2138	-0.000434
939.4549	0.001338
939.6959	0.001570
939.9369	0.001127
940.1780	0.002055
940.4190	0.002456
940.6601	0.001486
940.9012	0.000979
941.1422	0.000747
941.3833	0.000958
941.6244	0.001127
941.8655	0.000093
942.1066	0.000832
942.3477	0.001000
942.5889	0.000114
942.8300	0.001844
943.0711	0.000009
943.3123	0.000874
943.5534	0.000178
943.7946	0.000578
944.0357	0.000557
944.2769	0.001422
944.5181	-0.000076
944.7593	0.000958
945.0005	0.000262
945.2417	0.000789
945.4829	0.000051
945.7241	0.002604
945.9653	-0.000603
946.2066	0.001676
946.4478	0.001317
946.6891	0.000536
946.9303	0.000811
947.1716	0.000241
947.4128	0.001064
947.6541	0.000895
947.8954	0.000726
948.1367	-0.000139
948.3780	0.001254
948.6193	0.001380
948.8606	-0.000244
949.1019	0.002055
949.3433	0.000536
949.5846	0.002119
949.8259	0.000178
950.0673	0.001043
950.3086	0.000726
950.5500	0.001718
950.7914	0.000726
951.0327	0.001865
951.2741	0.002646
951.5155	0.001654
951.7569	0.001021
951.9983	0.001232
952.2398	-0.000181
952.4812	0.001127
952.7226	0.001422
952.9640	0.002815
953.2055	0.001528
953.4469	0.001232
953.6884	0.001844
953.9299	0.002604
954.1713	0.001211
954.4128	0.001043
954.6543	0.001338
954.8958	0.001886
955.1373	0.000283
955.3788	0.000979
955.6203	0.000135
955.8618	0.001697
956.1034	0.000557
956.3449	0.001844
956.5865	0.000536
956.8280	0.000304
957.0696	0.000473
957.3111	0.000557
957.5527	0.000642
957.7943	0.000768
958.0359	0.001232
958.2775	0.001127
958.5191	-0.000540
958.7607	0.000642
959.0023	0.001359
959.2439	0.000705
959.4856	-0.000624
959.7272	0.001317
959.9688	0.000916
960.2105	0.001000
960.4522	-0.000645
960.6938	0.000789
960.9355	0.000895
961.1772	0.000557
961.4189	-0.000329
961.6606	0.001654
961.9023	0.001021
962.1440	0.000473
962.3857	-0.000371
962.6274	0.000958
962.8692	0.001338
963.1109	0.000747
963.3527	0.000410
963.5944	0.000642
963.8362	0.000705
964.0779	0.000663
964.3197	0.001338
964.5615	0.000452
964.8033	0.000853
965.0451	0.000747
965.2869	0.000473
965.5287	0.001127
965.7705	-0.000265
966.0123	0.000199
966.2542	-0.000920
966.4960	0.000346
966.7379	0.000515
966.9797	0.000768
967.2216	0.000283
967.4634	0.000452
967.7053	-0.000097
967.9472	-0.000603
968.1891	0.000832
968.4310	0.001254
968.6729	0.000874
968.9148	0.001633
969.1567	0.000431
969.3987	0.000325
969.6406	-0.000413
969.8825	-0.000329
970.1245	0.001085
970.3664	0.001338
970.6084	0.000578
970.8504	-0.000012
971.0923	0.000874
971.3343	0.000325
971.5763	0.000853
971.8183	0.001359
972.0603	0.000389
972.3023	0.000220
972.5443	0.000220
972.7864	0.000874
973.0284	0.001507
973.2704	0.000705
973.5125	-0.000287
973.7545	0.000663
973.9966	0.000410
974.2387	0.001992
974.4807	0.000093
974.7228	0.001465
974.9649	-0.000265
975.2070	0.000114
975.4491	-0.001257
975.6912	0.001064
975.9333	0.000832
976.1755	0.000684
976.4176	0.000895
976.6597	0.000515
976.9019	0.000557
977.1440	0.000389
977.3862	-0.000898
977.6283	0.000367
977.8705	0.000051
978.1127	0.001127
978.3549	-0.000055
978.5971	0.002224
978.8393	0.000494
979.0815	-0.000244
979.3237	-0.000139
979.5659	0.000578
979.8082	0.000346
980.0504	0.001106
980.2926	-0.000033
980.5349	0.000621
980.7771	0.000156
981.0194	0.000030
981.2617	0.000178
981.5040	0.001296
981.7462	0.000114
981.9885	0.000874
982.2308	-0.000645
982.4731	0.000410
982.7155	0.000600
982.9578	0.000874
983.2001	0.000093
983.4424	0.002604
983.6848	0.000114
983.9271	0.000515
984.1695	-0.000139
984.4118	0.002182
984.6542	0.000473
984.8966	0.000663
985.1390	-0.000055
985.3814	-0.000160
985.6238	-0.000202
985.8662	0.000346
986.1086	0.000747
986.3510	-0.000751
986.5934	0.000473
986.8358	0.000030
987.0783	0.000473
987.3207	0.000220
987.5632	-0.000076
987.8056	0.000220
988.0481	-0.000287
988.2906	0.000304
988.5331	0.000283
988.7756	0.000241
989.0180	0.000578
989.2605	0.001275
989.5031	-0.000687
989.7456	-0.000856
989.9881	0.000557
990.2306	0.001380
990.4732	0.000389
990.7157	0.001844
990.9582	-0.000223
991.2008	0.001085
991.4434	0.001148
991.6859	-0.001046
991.9285	-0.000308
992.1711	0.001676
992.4137	0.000705
992.6563	0.000452
992.8989	-0.000476
993.1415	-0.000265
993.3841	0.000979
993.6267	0.000367
993.8694	-0.000645
994.1120	0.001021
994.3547	-0.000540
994.5973	-0.001468
994.8400	0.000431
995.0826	0.001148
995.3253	0.000431
995.5680	0.000789
995.8107	0.000789
996.0534	0.001591
996.2961	-0.000181
996.5388	-0.000413
996.7815	0.000916
997.0242	-0.000244
997.2670	-0.000624
997.5097	0.000895
997.7524	0.000030
997.9952	0.000473
998.2379	0.000578
998.4807	0.001232
998.7235	-0.000033
998.9662	0.000621
999.2090	0.000178
999.4518	-0.000097
999.6946	0.001021
999.9374	-0.000097
1000.1802	0.000663
1000.4230	-0.000772
1000.6659	-0.000308
1000.9087	-0.000055
1001.1515	0.001401
1001.3944	0.001422
1001.6372	-0.000329
1001.8801	0.000093
1002.1230	0.001211
1002.3658	-0.000097
1002.6087	0.000494
1002.8516	-0.000603
1003.0945	0.000874
1003.3374	0.000367
1003.5803	0.000093
1003.8232	0.000557
1004.0661	0.001148
1004.3091	0.000220
1004.5520	0.000030
1004.7949	-0.000772
1005.0379	0.000789
1005.2808	-0.000160
1005.5238	-0.000076
1005.7667	0.000178
1006.0097	0.000853
1006.2527	-0.000350
1006.4957	-0.000624
1006.7387	0.000325
1006.9817	-0.000055
1007.2247	0.000811
1007.4677	0.000832
1007.7107	-0.000033
1007.9538	0.000895
1008.1968	-0.000877
1008.4398	-0.000350
1008.6829	-0.000434
1008.9259	-0.000413
1009.1690	0.000789
1009.4121	0.000895
1009.6551	0.000410
1009.8982	0.001211
1010.1413	0.000494
1010.3844	0.000093
1010.6275	0.000389
1010.8706	0.001106
1011.1137	0.000958
1011.3568	0.001085
1011.6000	-0.000055
1011.8431	0.001570
1012.0863	-0.000371
1012.3294	0.001296
1012.5726	0.000093
1012.8157	-0.000308
1013.0589	-0.001109
1013.3021	0.000346
1013.5452	0.000705
1013.7884	0.000199
1014.0316	-0.000223
1014.2748	-0.000877
1014.5180	-0.000455
1014.7613	0.001169
1015.0045	0.000051
1015.2477	0.002203
1015.4909	-0.000371
1015.7342	0.000747
1015.9774	0.001359
1016.2207	0.000156
1016.4640	-0.001215
1016.7072	0.000199
1016.9505	-0.000962
1017.1938	0.001296
1017.4371	0.000832
1017.6804	0.000768
1017.9237	-0.001658
1018.1670	0.001654
1018.4103	-0.000561
1018.6536	-0.000645
1018.8969	-0.001447
1019.1403	0.000832
1019.3836	0.000705
1019.6270	0.001781
1019.8703	0.000789
1020.1137	0.000135
1020.3571	0.000789
1020.6004	0.000410
1020.8438	0.001718
1021.0872	0.000030
1021.3306	-0.000898
1021.5740	0.000979
1021.8174	-0.002164
1022.0608	0.001085
1022.3042	-0.001426
1022.5477	-0.000076
1022.7911	-0.000413
1023.0345	0.001169
