# Wavelength (nm)	Intensity (a.u.)
197.7802	0.002090
197.9842	-0.000652
198.1882	0.001816
198.3922	-0.000504
198.5963	0.000002
198.8003	0.000381
199.0044	0.000782
199.2085	-0.000357
199.4126	0.000297
199.6168	0.000255
199.8209	0.000170
200.0251	0.001141
200.2292	0.000234
200.4334	0.000276
200.6376	0.000698
200.8418	0.000508
201.0461	0.000445
201.2503	0.000951
201.4546	0.002132
201.6589	-0.000357
201.8631	0.000466
202.0674	0.000360
202.2718	0.000381
202.4761	0.000909
202.6805	0.001288
202.8848	0.000339
203.0892	0.000255
203.2936	0.000719
203.4980	0.000318
203.7024	0.001183
203.9069	0.000993
204.1113	0.000677
204.3158	0.001394
204.5203	-0.000863
204.7248	-0.000209
204.9293	0.000403
205.1338	0.000571
205.3384	0.000888
205.5430	0.000909
205.7475	0.000888
205.9521	-0.000062
206.1567	0.000635
206.3614	0.000656
206.5660	0.000867
206.7706	0.000487
206.9753	-0.000652
207.1800	0.000740
207.3847	0.000635
207.5894	-0.000589
207.7941	0.000782
207.9989	0.000951
208.2036	0.000044
208.4084	0.001120
208.6132	0.001288
208.8180	0.000445
209.0228	0.000149
209.2276	0.000782
209.4325	0.001141
209.6373	0.000044
209.8422	0.000656
210.0471	0.000318
210.2520	-0.000378
210.4569	0.000065
210.6618	0.001373
210.8668	0.000635
211.0718	0.001647
211.2767	0.001077
211.4817	0.001394
211.6867	0.000656
211.8918	-0.000947
212.0968	-0.000483
212.3018	0.000550
212.5069	0.000466
212.7120	0.000086
212.9171	0.000656
213.1222	0.000381
213.3273	-0.000146
213.5325	-0.001116
213.7376	-0.000336
213.9428	-0.000758
214.1480	0.000255
214.3532	-0.000779
214.5584	0.001267
214.7636	0.002385
214.9689	0.000529
215.1741	0.000276
215.3794	0.000550
215.5847	0.000381
215.7900	-0.000694
215.9953	-0.001053
216.2007	0.000782
216.4060	-0.000294
216.6114	0.002174
216.8168	-0.001264
217.0222	-0.001116
217.2276	0.000613
217.4330	0.000845
217.6384	-0.000146
217.8439	0.001204
218.0494	0.000065
218.2548	-0.000610
218.4603	0.000719
218.6659	0.000592
218.8714	0.001837
219.0769	-0.000167
219.2825	0.002681
219.4881	0.002406
219.6936	-0.000188
219.8992	0.001605
220.1049	0.000107
220.3105	0.000276
220.5161	-0.000272
220.7218	0.001858
220.9275	-0.000019
221.1332	0.001394
221.3389	-0.000483
221.5446	-0.000083
221.7503	-0.000209
221.9561	0.000381
222.1618	0.000571
222.3676	0.000740
222.5734	0.000761
222.7792	0.000170
222.9850	0.001563
223.1909	0.000888
223.3967	0.000719
223.6026	0.001415
223.8085	-0.000272
224.0144	0.000065
224.2203	-0.000652
224.4262	0.001014
224.6322	-0.000568
224.8381	-0.000441
225.0441	0.000318
225.2501	0.000445
225.4561	0.000635
225.6621	0.000824
225.8681	0.000592
226.0742	0.000529
226.2802	0.000192
226.4863	-0.000357
226.6924	-0.000652
226.8985	0.001584
227.1046	0.000445
227.3107	-0.000125
227.5169	0.001542
227.7230	0.000951
227.9292	0.000424
228.1354	-0.000040
228.3416	-0.000947
228.5478	0.000803
228.7541	0.000613
228.9603	0.002006
229.1666	-0.000040
229.3729	0.001963
229.5791	0.000909
229.7855	0.000107
229.9918	0.000677
230.1981	0.001605
230.4045	-0.000019
230.6108	0.000339
230.8172	-0.000526
231.0236	0.001478
231.2300	-0.000336
231.4364	0.000993
231.6429	-0.000462
231.8493	0.000824
232.0558	0.000508
232.2623	0.001584
232.4688	-0.000589
232.6753	0.000824
232.8818	0.000592
233.0884	-0.000462
233.2949	0.000592
233.5015	-0.000083
233.7081	0.001099
233.9147	-0.000315
234.1213	0.000424
234.3279	0.001120
234.5346	-0.000821
234.7413	0.000318
234.9479	-0.000652
235.1546	0.000740
235.3613	0.000529
235.5680	0.001246
235.7748	0.000677
235.9815	0.000613
236.1883	0.000698
236.3951	0.002807
236.6018	-0.000209
236.8087	0.000909
237.0155	-0.000863
237.2223	0.001921
237.4292	-0.000378
237.6360	-0.000483
237.8429	0.001099
238.0498	0.000297
238.2567	0.001077
238.4636	0.000128
238.6706	0.000297
238.8775	0.000403
239.0845	-0.000441
239.2915	0.001394
239.4985	0.000276
239.7055	-0.000483
239.9125	-0.000821
240.1195	0.002048
240.3266	-0.001665
240.5337	0.001141
240.7407	0.000845
240.9478	0.001415
241.1549	-0.000019
241.3621	0.001120
241.5692	-0.000715
241.7764	0.000170
241.9835	0.001731
242.1907	0.000170
242.3979	-0.000905
242.6051	0.001331
242.8124	0.001056
243.0196	0.001563
243.2269	0.000613
243.4341	0.001288
243.6414	0.000381
243.8487	0.000192
244.0560	0.000002
244.2634	-0.000104
244.4707	0.000508
244.6781	0.000276
244.8854	-0.000483
245.0928	0.000424
245.3002	0.001056
245.5076	0.001520
245.7151	0.000234
245.9225	-0.000315
246.1300	-0.000399
246.3375	-0.000062
246.5449	0.000255
246.7524	0.000656
246.9600	0.000149
247.1675	-0.000040
247.3750	0.000192
247.5826	-0.000441
247.7902	0.001584
247.9978	-0.000083
248.2054	-0.000779
248.4130	0.001499
248.6206	0.000656
248.8283	-0.000526
249.0359	0.001120
249.2436	0.000761
249.4513	-0.000462
249.6590	0.001035
249.8667	0.000845
250.0745	0.002238
250.2822	-0.000083
250.4900	0.001099
250.6978	0.000635
250.9056	0.000403
251.1134	0.000888
251.3212	-0.000040
251.5290	0.001394
251.7369	0.001014
251.9447	0.001352
252.1526	0.001520
252.3605	-0.000462
252.5684	-0.000547
252.7763	0.000213
252.9843	0.000824
253.1922	-0.000188
253.4002	0.001120
253.6082	0.000466
253.8162	-0.000104
254.0242	-0.000251
254.2322	0.001204
254.4402	0.000318
254.6483	0.000761
254.8564	0.000993
255.0644	0.001563
255.2725	-0.000125
255.4806	0.000107
255.6888	0.001457
255.8969	0.000002
256.1051	0.000656
256.3132	0.000782
256.5214	0.001120
256.7296	0.002301
256.9378	0.000044
257.1460	0.000930
257.3543	0.001689
257.5625	0.001035
257.7708	-0.000146
257.9791	0.000403
258.1874	0.000234
258.3957	-0.000736
258.6040	0.001352
258.8124	-0.000441
259.0207	-0.000272
259.2291	0.000972
259.4375	0.000065
259.6459	0.000297
259.8543	-0.000230
260.0627	0.000424
260.2711	-0.000842
260.4796	0.000677
260.6881	0.000360
260.8965	0.002048
261.1050	0.001394
261.3135	0.001204
261.5221	-0.001222
261.7306	-0.000715
261.9392	0.000951
262.1477	0.000698
262.3563	-0.000547
262.5649	-0.000336
262.7735	-0.000188
262.9822	0.001141
263.1908	-0.001454
263.3995	0.000107
263.6081	-0.000104
263.8168	0.000803
264.0255	0.000445
264.2342	0.000128
264.4429	-0.000547
264.6517	0.000403
264.8604	0.001436
265.0692	0.000023
265.2780	0.000719
265.4868	0.000592
265.6956	0.000613
265.9044	0.000128
266.1133	0.000592
266.3221	0.000149
266.5310	-0.000884
266.7399	0.001816
266.9488	-0.000589
267.1577	-0.000209
267.3666	0.000170
267.5755	0.000107
267.7845	0.000403
267.9935	0.000192
268.2024	0.000993
268.4114	0.000782
268.6205	0.001056
268.8295	0.000909
269.0385	0.001120
269.2476	0.001120
269.4566	0.000192
269.6657	0.000002
269.8748	0.000403
270.0839	0.001963
270.2931	0.000740
270.5022	0.000740
270.7114	-0.000040
270.9205	0.000677
271.1297	0.000613
271.3389	0.000845
271.5481	-0.000272
271.7573	0.000318
271.9666	-0.000652
272.1758	0.002385
272.3851	-0.000526
272.5944	0.000867
272.8037	0.000719
273.0130	0.001879
273.2223	0.001710
273.4316	0.000445
273.6410	-0.000104
273.8504	0.000107
274.0597	-0.000673
274.2691	0.000255
274.4785	0.001120
274.6880	-0.000019
274.8974	0.000023
275.1069	0.001014
275.3163	0.000466
275.5258	0.001162
275.7353	0.000677
275.9448	0.001879
276.1543	0.002027
276.3639	0.000508
276.5734	0.000192
276.7830	-0.000272
276.9926	0.000445
277.2022	0.001605
277.4118	0.000888
277.6214	0.001520
277.8310	0.000318
278.0407	0.000845
278.2503	-0.000125
278.4600	-0.000062
278.6697	0.000424
278.8794	0.002216
279.0891	-0.000209
279.2989	0.000445
279.5086	0.000360
279.7184	0.001204
279.9281	-0.000610
280.1379	0.000023
280.3477	0.000445
280.5576	0.001035
280.7674	-0.000673
280.9772	-0.001327
281.1871	0.000845
281.3970	0.000297
281.6069	-0.000251
281.8168	0.001858
282.0267	-0.000230
282.2366	0.001710
282.4466	0.000002
282.6565	-0.000062
282.8665	0.000635
283.0765	-0.000673
283.2865	0.000613
283.4965	0.001394
283.7065	0.000888
283.9166	0.001457
284.1266	0.000023
284.3367	0.000867
284.5468	0.001183
284.7569	-0.000125
284.9670	-0.000568
285.1771	0.000128
285.3873	-0.000357
285.5974	0.000803
285.8076	0.000571
286.0178	0.000571
286.2280	-0.000104
286.4382	0.001288
286.6484	0.001478
286.8587	0.000213
287.0689	0.000339
287.2792	-0.000863
287.4895	0.000698
287.6998	0.000107
287.9101	0.001774
288.1204	0.000044
288.3308	-0.000209
288.5411	0.000719
288.7515	-0.000504
288.9619	0.000170
289.1723	0.000571
289.3827	0.001077
289.5931	0.001141
289.8035	-0.000167
290.0140	0.000782
290.2245	-0.000294
290.4349	0.001605
290.6454	0.000613
290.8559	0.000677
291.0665	0.000698
291.2770	0.000002
291.4875	0.000339
291.6981	0.000677
291.9087	0.001584
292.1193	0.000909
292.3299	0.000740
292.5405	0.000782
292.7511	-0.000336
292.9618	-0.000146
293.1724	0.000360
293.3831	0.000571
293.5938	0.001035
293.8045	0.000782
294.0152	0.001499
294.2260	-0.000800
294.4367	0.000192
294.6475	0.000318
294.8582	-0.000230
295.0690	0.000360
295.2798	0.000318
295.4906	0.000213
295.7015	0.002238
295.9123	-0.000146
296.1232	0.000445
296.3340	-0.000125
296.5449	0.000698
296.7558	0.000761
296.9667	0.000529
297.1777	-0.000947
297.3886	0.001288
297.5995	0.001014
297.8105	0.000909
298.0215	-0.000736
298.2325	-0.000294
298.4435	0.000255
298.6545	-0.000526
298.8656	-0.000104
299.0766	0.000318
299.2877	-0.000652
299.4988	0.000466
299.7099	-0.000947
299.9210	0.000951
300.1321	0.000656
300.3432	0.000213
300.5544	-0.001011
300.7655	0.000677
300.9767	0.001077
301.1879	0.000613
301.3991	0.000234
301.6103	0.001331
301.8215	0.001731
302.0328	0.000993
302.2441	-0.000209
302.4553	0.000466
302.6666	0.001141
302.8779	0.000951
303.0892	-0.000441
303.3006	-0.000272
303.5119	0.000128
303.7233	-0.000062
303.9346	-0.000167
304.1460	0.001984
304.3574	0.000698
304.5688	0.000529
304.7803	0.000424
304.9917	0.001352
305.2031	-0.000146
305.4146	-0.000673
305.6261	0.000128
305.8376	0.001816
306.0491	-0.000610
306.2606	0.000381
306.4722	0.000761
306.6837	-0.000019
306.8953	0.000213
307.1069	0.000550
307.3184	0.000234
307.5301	0.001246
307.7417	0.000149
307.9533	0.001120
308.1650	0.000213
308.3766	0.000445
308.5883	0.000107
308.8000	0.000529
309.0117	-0.001580
309.2234	0.000276
309.4351	0.001162
309.6469	-0.000209
309.8586	0.000360
310.0704	0.001542
310.2822	0.001246
310.4940	0.001626
310.7058	-0.000441
310.9176	0.001035
311.1295	-0.000019
311.3413	0.001309
311.5532	0.000803
311.7651	0.001077
311.9770	0.000550
312.1889	0.000276
312.4008	0.001563
312.6127	0.000445
312.8247	0.000719
313.0366	0.000255
313.2486	0.000613
313.4606	0.001984
313.6726	0.000508
313.8846	0.001204
314.0967	0.000170
314.3087	-0.000125
314.5208	0.000360
314.7328	0.000888
314.9449	-0.000040
315.1570	-0.000209
315.3692	0.000761
315.5813	0.000360
315.7934	-0.000483
316.0056	0.000023
316.2177	0.000656
316.4299	-0.000083
316.6421	0.001288
316.8543	0.001162
317.0666	0.000023
317.2788	0.000381
317.4911	0.001014
317.7033	-0.000589
317.9156	0.000508
318.1279	-0.000209
318.3402	0.000698
318.5525	0.000993
318.7649	0.000613
318.9772	0.000909
319.1896	-0.000251
319.4019	0.000592
319.6143	0.001542
319.8267	0.000255
320.0392	0.000613
320.2516	0.001014
320.4640	0.000128
320.6765	0.000888
320.8890	0.001605
321.1014	0.000782
321.3139	0.001141
321.5265	0.000002
321.7390	-0.000167
321.9515	0.000170
322.1641	0.000656
322.3766	0.001183
322.5892	-0.000483
322.8018	0.000128
323.0144	0.000360
323.2270	0.001752
323.4397	0.001394
323.6523	0.000867
323.8650	-0.000926
324.0777	0.000951
324.2904	0.001162
324.5031	0.000023
324.7158	-0.000758
324.9285	0.001246
325.1412	0.000803
325.3540	0.000656
325.5668	0.001647
325.7796	0.000318
325.9924	0.000065
326.2052	0.000360
326.4180	0.000213
326.6308	0.000951
326.8437	0.000192
327.0566	0.001689
327.2694	-0.000441
327.4823	0.001731
327.6952	-0.000019
327.9082	0.002048
328.1211	0.001415
328.3340	0.001056
328.5470	0.000255
328.7600	0.000424
328.9730	0.000656
329.1860	0.000719
329.3990	-0.000167
329.6120	0.000972
329.8251	0.000107
330.0381	0.000550
330.2512	0.000381
330.4643	0.000529
330.6774	-0.000146
330.8905	-0.000357
331.1036	0.000824
331.3167	0.001668
331.5299	-0.000230
331.7431	0.000487
331.9562	0.000445
332.1694	0.000719
332.3826	-0.000294
332.5959	-0.000040
332.8091	-0.000378
333.0223	0.002216
333.2356	-0.000294
333.4489	0.000086
333.6622	0.000297
333.8755	0.000824
334.0888	0.000466
334.3021	0.000023
334.5154	0.000529
334.7288	0.000381
334.9422	0.000297
335.1555	0.000888
335.3689	0.000592
335.5823	0.001394
335.7958	0.000930
336.0092	0.000086
336.2227	0.001499
336.4361	0.001288
336.6496	0.000445
336.8631	0.001626
337.0766	-0.000167
337.2901	0.001225
337.5036	0.001921
337.7172	0.000613
337.9307	0.000867
338.1443	0.001141
338.3579	-0.001137
338.5715	0.001647
338.7851	-0.000589
338.9987	0.000761
339.2124	0.001457
339.4260	0.001014
339.6397	0.000192
339.8533	0.001225
340.0670	0.000318
340.2807	0.000824
340.4945	0.000656
340.7082	0.001605
340.9219	0.000234
341.1357	0.000318
341.3495	0.000297
341.5633	0.001225
341.7771	0.000234
341.9909	-0.000019
342.2047	0.000213
342.4185	0.002153
342.6324	-0.000062
342.8463	0.001162
343.0601	-0.000758
343.2740	0.000698
343.4879	-0.000842
343.7019	0.000993
343.9158	0.002659
344.1297	0.001077
344.3437	0.000845
344.5577	-0.000125
344.7717	0.001795
344.9857	0.001457
345.1997	-0.000779
345.4137	0.000677
345.6277	0.000023
345.8418	0.000403
346.0559	0.000888
346.2699	0.001099
346.4840	0.000529
346.6981	-0.000251
346.9123	-0.000357
347.1264	0.001415
347.3406	0.001795
347.5547	0.000803
347.7689	0.000318
347.9831	-0.000990
348.1973	-0.000779
348.4115	0.000824
348.6257	-0.000926
348.8400	0.001963
349.0542	-0.000420
349.2685	0.002575
349.4828	0.000635
349.6971	-0.000399
349.9114	-0.000462
350.1257	0.000613
350.3400	-0.000083
350.5544	0.000529
350.7687	0.000318
350.9831	0.000044
351.1975	-0.000610
351.4119	0.001478
351.6263	0.000677
351.8407	0.001331
352.0552	0.000909
352.2696	0.000086
352.4841	-0.000062
352.6986	0.000529
352.9131	-0.000673
353.1276	0.000403
353.3421	0.000592
353.5566	-0.000062
353.7712	0.000529
353.9858	-0.000209
354.2003	0.001288
354.4149	0.001731
354.6295	0.000719
354.8441	-0.000146
355.0588	0.000635
355.2734	0.000466
355.4881	0.001225
355.7027	0.000487
355.9174	0.000972
356.1321	0.000824
356.3468	-0.000800
356.5615	0.000867
356.7763	0.000635
356.9910	0.000972
357.2058	0.000951
357.4206	0.000613
357.6353	0.001309
357.8501	0.000128
358.0650	0.000276
358.2798	0.000381
358.4946	0.000951
358.7095	0.001056
358.9243	0.000297
359.1392	0.001478
359.3541	0.000128
359.5690	-0.000125
359.7839	0.001563
359.9989	0.001288
360.2138	0.000487
360.4288	0.001668
360.6438	0.000719
360.8587	0.001984
361.0737	0.000149
361.2888	0.000445
361.5038	0.000930
361.7188	0.000297
361.9339	0.000487
362.1489	-0.000125
362.3640	-0.000504
362.5791	0.000972
362.7942	0.001478
363.0093	0.000824
363.2245	0.001626
363.4396	-0.000146
363.6548	0.001120
363.8699	0.001077
364.0851	-0.000272
364.3003	0.000234
364.5155	0.000571
364.7308	0.000993
364.9460	0.000888
365.1612	-0.000441
365.3765	0.000993
365.5918	-0.000230
365.8071	-0.000926
366.0224	-0.000019
366.2377	0.000276
366.4530	0.000002
366.6684	0.000107
366.8837	0.000592
367.0991	0.000466
367.3145	0.000234
367.5299	-0.000736
367.7453	0.000888
367.9607	0.002195
368.1761	0.000656
368.3916	-0.000610
368.6070	-0.000357
368.8225	-0.000378
369.0380	0.001478
369.2535	0.000002
369.4690	0.000170
369.6845	0.000297
369.9001	0.000002
370.1156	0.001035
370.3312	0.000740
370.5468	0.000698
370.7624	0.001352
370.9780	0.000613
371.1936	0.001183
371.4092	-0.000230
371.6249	0.001056
371.8405	0.001077
372.0562	0.000170
372.2719	-0.000336
372.4876	0.001394
372.7033	-0.000167
372.9190	0.001584
373.1348	-0.000209
373.3505	0.002027
373.5663	0.000044
373.7820	0.000234
373.9978	0.000192
374.2136	0.000782
374.4294	-0.000019
374.6453	0.000360
374.8611	0.000719
375.0770	-0.000462
375.2928	-0.001348
375.5087	0.000888
375.7246	-0.000104
375.9405	0.000613
376.1564	0.000698
376.3724	0.002385
376.5883	0.000656
376.8043	0.001056
377.0203	0.000824
377.2362	0.000635
377.4522	0.000656
377.6682	0.000677
377.8843	0.000192
378.1003	0.000592
378.3164	0.000803
378.5324	0.000529
378.7485	0.001056
378.9646	-0.000167
379.1807	0.000698
379.3968	-0.000504
379.6129	0.000677
379.8291	-0.000062
380.0452	0.000698
380.2614	-0.000610
380.4776	0.000803
380.6938	-0.000019
380.9100	-0.000019
381.1262	0.000213
381.3424	-0.000019
381.5587	0.002343
381.7749	0.000824
381.9912	0.002027
382.2075	-0.000568
382.4238	-0.000230
382.6401	-0.000019
382.8564	0.000592
383.0728	0.000213
383.2891	0.001077
383.5055	-0.000357
383.7219	0.001752
383.9382	0.000297
384.1546	0.001563
384.3711	-0.000357
384.5875	0.000424
384.8039	-0.000209
385.0204	-0.000125
385.2368	0.001710
385.4533	0.001984
385.6698	0.001542
385.8863	-0.000019
386.1028	0.001858
386.3194	0.001162
386.5359	0.001099
386.7525	0.001225
386.9690	-0.000526
387.1856	0.001267
387.4022	0.000592
387.6188	0.001394
387.8355	-0.000315
388.0521	0.001331
388.2687	0.000065
388.4854	0.001605
388.7021	0.000276
388.9188	0.002006
389.1355	-0.000062
389.3522	0.000761
389.5689	0.001710
389.7856	0.002744
390.0024	0.002554
390.2192	0.000867
390.4359	0.000002
390.6527	0.000107
390.8695	0.001309
391.0863	0.002470
391.3032	0.001520
391.5200	0.001668
391.7369	0.002006
391.9537	0.002174
392.1706	0.001204
392.3875	0.002069
392.6044	0.002406
392.8213	0.002069
393.0383	0.002554
393.2552	0.002195
393.4722	0.002828
393.6891	0.002470
393.9061	0.002322
394.1231	0.002385
394.3401	0.003545
394.5572	0.003398
394.7742	0.003398
394.9912	0.002891
395.2083	0.002406
395.4254	0.002406
395.6425	0.002512
395.8596	0.004052
396.0767	0.003060
396.2938	0.003904
396.5109	0.003777
396.7281	0.003355
396.9453	0.003060
397.1624	0.004030
397.3796	0.003313
397.5968	0.004410
397.8140	0.004115
398.0313	0.004305
398.2485	0.005697
398.4658	0.004853
398.6830	0.004684
398.9003	0.006098
399.1176	0.004621
399.3349	0.006393
399.5522	0.007194
399.7696	0.007447
399.9869	0.004790
400.2043	0.005971
400.4216	0.006203
400.6390	0.006498
400.8564	0.005676
401.0738	0.008080
401.2912	0.006625
401.5087	0.008397
401.7261	0.006772
401.9436	0.007131
402.1610	0.005380
402.3785	0.008692
402.5960	0.008692
402.8135	0.007110
403.0310	0.007237
403.2486	0.007026
403.4661	0.007258
403.6837	0.007089
403.9013	0.008249
404.1189	0.007869
404.3365	0.007152
404.5541	0.008650
404.7717	0.009557
404.9893	0.008629
405.2070	0.007975
405.4246	0.009789
405.6423	0.008713
405.8600	0.009240
406.0777	0.008882
406.2954	0.008101
406.5131	0.008797
406.7309	0.008481
406.9486	0.009451
407.1664	0.009008
407.3842	0.009367
407.6020	0.010421
407.8198	0.009915
408.0376	0.010189
408.2554	0.009325
408.4733	0.010168
408.6911	0.010759
408.9090	0.011054
409.1269	0.010274
409.3448	0.010654
409.5627	0.011054
409.7806	0.010527
409.9985	0.011603
410.2165	0.010759
410.4344	0.010211
410.6524	0.011181
410.8704	0.011075
411.0884	0.010485
411.3064	0.011012
411.5244	0.011582
411.7424	0.012889
411.9605	0.011750
412.1785	0.012193
412.3966	0.011054
412.6147	0.012025
412.8328	0.012235
413.0509	0.012425
413.2690	0.011919
413.4871	0.013522
413.7053	0.013438
413.9234	0.012784
414.1416	0.012636
414.3598	0.011307
414.5780	0.012699
414.7962	0.013944
415.0144	0.012214
415.2326	0.015104
415.4509	0.013185
415.6692	0.013206
415.8874	0.012025
416.1057	0.015104
416.3240	0.013522
416.5423	0.013164
416.7606	0.012510
416.9790	0.014324
417.1973	0.013733
417.4157	0.014577
417.6341	0.014535
417.8524	0.014281
418.0708	0.014197
418.2893	0.013016
418.5077	0.014703
418.7261	0.016053
418.9446	0.015547
419.1630	0.014745
419.3815	0.015294
419.6000	0.015378
419.8185	0.014872
420.0370	0.016180
420.2555	0.015231
420.4741	0.016201
420.6926	0.017150
420.9112	0.016791
421.1298	0.016370
421.3483	0.018268
421.5669	0.020609
421.7856	0.018437
422.0042	0.018901
422.2228	0.019681
422.4415	0.018078
422.6601	0.018184
422.8788	0.016728
423.0975	0.018795
423.3162	0.019365
423.5349	0.017973
423.7536	0.019280
423.9724	0.018078
424.1911	0.019365
424.4099	0.016707
424.6287	0.015863
424.8475	0.019323
425.0663	0.018036
425.2851	0.016180
425.5039	0.018352
425.7228	0.018690
425.9416	0.018352
426.1605	0.016517
426.3793	0.016180
426.5982	0.018015
426.8171	0.017509
427.0361	0.017656
427.2550	0.018626
427.4739	0.018753
427.6929	0.017487
427.9118	0.018184
428.1308	0.017108
428.3498	0.018162
428.5688	0.018205
428.7878	0.019533
429.0068	0.018605
429.2259	0.019217
429.4449	0.017762
429.6640	0.021453
429.8831	0.021917
430.1022	0.021516
430.3213	0.021073
430.5404	0.021938
430.7595	0.020040
430.9787	0.022191
431.1978	0.020525
431.4170	0.019533
431.6362	0.017994
431.8553	0.019512
432.0745	0.016813
432.2938	0.020356
432.5130	0.017255
432.7322	0.017994
432.9515	0.018268
433.1707	0.017994
433.3900	0.017741
433.6093	0.018247
433.8286	0.023541
434.0479	0.022402
434.2673	0.021453
434.4866	0.019597
434.7059	0.020757
434.9253	0.018015
435.1447	0.020820
435.3641	0.020314
435.5835	0.018626
435.8029	0.018901
436.0223	0.018584
436.2418	0.020440
436.4612	0.019407
436.6807	0.021369
436.9001	0.020103
437.1196	0.020272
437.3391	0.020398
437.5586	0.020040
437.7782	0.019112
437.9977	0.019597
438.2173	0.018964
438.4368	0.019787
438.6564	0.020145
438.8760	0.019512
439.0956	0.018774
439.3152	0.021390
439.5348	0.021305
439.7545	0.020124
439.9741	0.019871
440.1938	0.019175
440.4135	0.019048
440.6331	0.019681
440.8528	0.020736
441.0725	0.021305
441.2923	0.021200
441.5120	0.023984
441.7318	0.024047
441.9515	0.022508
442.1713	0.022929
442.3911	0.021516
442.6109	0.022571
442.8307	0.020019
443.0505	0.020968
443.2703	0.022486
443.4902	0.023499
443.7101	0.024596
443.9299	0.022086
444.1498	0.024807
444.3697	0.022086
444.5896	0.022845
444.8095	0.022655
445.0295	0.021305
445.2494	0.021158
445.4694	0.020757
445.6894	0.021579
445.9093	0.021200
446.1293	0.020989
446.3493	0.022550
446.5694	0.021115
446.7894	0.022043
447.0094	0.021073
447.2295	0.021959
447.4496	0.021643
447.6696	0.023140
447.8897	0.019133
448.1098	0.021305
448.3300	0.019618
448.5501	0.019069
448.7702	0.018563
448.9904	0.020799
449.2106	0.019133
449.4307	0.019449
449.6509	0.019913
449.8711	0.019597
450.0914	0.017888
450.3116	0.019006
450.5318	0.019238
450.7521	0.019533
450.9724	0.017952
451.1926	0.017867
451.4129	0.018184
451.6332	0.017867
451.8535	0.016454
452.0739	0.018837
452.2942	0.018521
452.5146	0.016897
452.7349	0.017171
452.9553	0.016602
453.1757	0.017762
453.3961	0.018837
453.6165	0.016243
453.8369	0.015631
454.0574	0.016644
454.2778	0.017572
454.4983	0.015631
454.7188	0.015463
454.9393	0.016011
455.1597	0.015716
455.3803	0.016370
455.6008	0.016180
455.8213	0.015526
456.0419	0.016918
456.2624	0.014745
456.4830	0.015568
456.7036	0.013670
456.9242	0.016159
457.1448	0.015652
457.3654	0.015104
457.5860	0.014239
457.8067	0.017002
458.0274	0.015231
458.2480	0.015357
458.4687	0.016665
458.6894	0.016327
458.9101	0.015884
459.1308	0.014661
459.3516	0.014176
459.5723	0.014366
459.7931	0.015568
460.0138	0.015209
460.2346	0.014513
460.4554	0.014872
460.6762	0.015167
460.8970	0.014914
461.1178	0.014640
461.3387	0.014640
461.5595	0.012594
461.7804	0.012657
462.0013	0.013227
462.2222	0.012425
462.4431	0.011835
462.6640	0.012931
462.8849	0.010569
463.1059	0.013480
463.3268	0.012805
463.5478	0.013691
463.7687	0.013564
463.9897	0.013332
464.2107	0.012341
464.4317	0.014619
464.6528	0.013079
464.8738	0.012278
465.0948	0.014134
465.3159	0.012510
465.5370	0.012721
465.7581	0.013691
465.9792	0.013543
466.2003	0.011877
466.4214	0.011792
466.6425	0.010780
466.8637	0.010822
467.0848	0.010928
467.3060	0.011835
467.5272	0.010443
467.7484	0.009599
467.9696	0.009536
468.1908	0.010506
468.4120	0.008818
468.6333	0.008544
468.8545	0.009873
469.0758	0.009029
469.2970	0.009219
469.5183	0.008776
469.7396	0.007933
469.9610	0.008376
470.1823	0.008122
470.4036	0.007384
470.6250	0.007237
470.8463	0.008291
471.0677	0.007237
471.2891	0.006224
471.5105	0.008861
471.7319	0.008608
471.9533	0.008228
472.1748	0.007701
472.3962	0.007026
472.6177	0.008987
472.8391	0.008333
473.0606	0.007026
473.2821	0.007426
473.5036	0.007975
473.7251	0.007026
473.9467	0.007848
474.1682	0.007532
474.3898	0.007701
474.6113	0.008629
474.8329	0.007173
475.0545	0.009578
475.2761	0.007637
475.4977	0.007890
475.7193	0.007996
475.9410	0.006730
476.1626	0.006667
476.3843	0.006878
476.6060	0.007469
476.8277	0.008249
477.0494	0.006688
477.2711	0.006013
477.4928	0.005844
477.7145	0.003862
477.9363	0.007785
478.1580	0.006308
478.3798	0.007342
478.6016	0.005591
478.8234	0.005676
479.0452	0.005718
479.2670	0.006920
479.4888	0.007047
479.7107	0.005380
479.9325	0.004790
480.1544	0.005992
480.3763	0.006983
480.5982	0.007026
480.8201	0.008038
481.0420	0.005633
481.2639	0.006013
481.4859	0.005633
481.7078	0.006836
481.9298	0.005591
482.1517	0.004368
482.3737	0.005612
482.5957	0.005148
482.8177	0.004937
483.0398	0.005359
483.2618	0.005971
483.4838	0.003503
483.7059	0.005697
483.9280	0.006414
484.1501	0.004431
484.3721	0.006751
484.5943	0.005233
484.8164	0.006203
485.0385	0.007848
485.2606	0.006034
485.4828	0.008755
485.7050	0.011455
485.9271	0.015167
486.1493	0.016391
486.3715	0.013606
486.5937	0.011118
486.8160	0.010358
487.0382	0.008818
487.2605	0.008228
487.4827	0.006119
487.7050	0.005486
487.9273	0.004494
488.1496	0.006751
488.3719	0.004726
488.5942	0.002301
488.8165	0.004621
489.0389	0.003651
489.2612	0.003461
489.4836	0.004600
489.7060	0.004959
489.9284	0.003524
490.1508	0.004136
490.3732	0.004937
490.5956	0.004305
490.8180	0.003820
491.0405	0.004073
491.2630	0.005591
491.4854	0.003587
491.7079	0.003482
491.9304	0.002976
492.1529	0.004030
492.3755	0.003018
492.5980	0.004959
492.8205	0.002807
493.0431	0.002470
493.2657	0.005528
493.4882	0.005064
493.7108	0.003925
493.9334	0.003081
494.1561	0.003334
494.3787	0.003693
494.6013	0.003081
494.8240	0.003419
495.0466	0.002533
495.2693	0.003419
495.4920	0.003609
495.7147	0.003145
495.9374	0.002702
496.1601	0.003566
496.3829	0.002427
496.6056	0.003988
496.8284	0.003672
497.0511	0.002870
497.2739	0.004009
497.4967	0.004368
497.7195	0.003355
497.9423	0.003081
498.1652	0.003039
498.3880	0.003039
498.6109	0.003735
498.8337	0.003081
499.0566	0.003587
499.2795	0.002828
499.5024	0.002765
499.7253	0.003313
499.9482	0.004030
500.1712	0.002364
500.3941	0.003883
500.6171	0.002343
500.8400	0.004094
501.0630	0.003187
501.2860	0.004009
501.5090	0.004410
501.7320	0.002174
501.9551	0.004136
502.1781	0.003229
502.4012	0.004558
502.6242	0.001499
502.8473	0.003904
503.0704	0.003693
503.2935	0.003292
503.5166	0.002448
503.7397	0.003419
503.9628	0.002617
504.1860	0.004178
504.4092	0.003820
504.6323	0.001035
504.8555	0.003271
505.0787	0.001436
505.3019	0.001647
505.5251	0.003250
505.7483	0.002976
505.9716	0.003334
506.1948	0.001689
506.4181	0.003208
506.6414	0.002280
506.8647	0.004157
507.0880	0.002406
507.3113	0.003355
507.5346	0.002596
507.7579	0.002913
507.9813	0.002470
508.2046	0.001837
508.4280	0.002364
508.6514	0.002427
508.8748	0.001900
509.0982	0.004073
509.3216	0.002723
509.5450	0.001774
509.7685	0.001963
509.9919	0.002153
510.2154	0.003904
510.4388	0.001942
510.6623	0.002195
510.8858	0.002238
511.1093	0.001984
511.3329	0.001879
511.5564	0.002997
511.7799	0.001056
512.0035	0.003482
512.2270	0.002744
512.4506	0.002596
512.6742	0.002638
512.8978	0.002406
513.1214	0.003798
513.3451	0.002343
513.5687	0.003714
513.7923	0.003018
514.0160	0.001014
514.2397	0.003440
514.4634	0.002364
514.6871	0.002048
514.9108	0.002048
515.1345	0.003440
515.3582	0.001689
515.5819	0.001014
515.8057	0.001921
516.0295	0.001520
516.2532	0.002280
516.4770	0.002870
516.7008	0.004537
516.9246	0.002427
517.1485	0.003187
517.3723	0.001099
517.5961	0.003503
517.8200	0.002807
518.0439	0.003946
518.2677	0.003883
518.4916	0.004326
518.7155	0.003334
518.9395	0.003862
519.1634	0.002702
519.3873	0.002111
519.6113	0.003461
519.8352	0.003081
520.0592	0.002575
520.2832	0.002027
520.5072	0.003102
520.7312	0.003693
520.9552	0.002512
521.1792	0.002406
521.4033	0.002891
521.6273	0.002132
521.8514	0.002533
522.0755	0.002870
522.2996	0.003229
522.5237	0.003355
522.7478	0.003081
522.9719	0.002723
523.1960	0.001563
523.4202	0.003777
523.6443	0.004136
523.8685	0.002575
524.0927	0.003081
524.3169	0.001963
524.5411	0.002427
524.7653	0.001415
524.9895	0.004980
525.2138	0.001626
525.4380	0.003820
525.6623	0.002659
525.8865	0.003355
526.1108	0.004790
526.3351	0.004874
526.5594	0.003841
526.7837	0.003060
527.0081	0.003756
527.2324	0.004326
527.4568	0.005697
527.6811	0.004178
527.9055	0.003988
528.1299	0.003862
528.3543	0.004220
528.5787	0.004558
528.8031	0.004537
529.0276	0.003229
529.2520	0.004705
529.4765	0.004494
529.7009	0.003503
529.9254	0.004558
530.1499	0.003862
530.3744	0.004980
530.5989	0.002828
530.8234	0.004136
531.0480	0.003587
531.2725	0.006730
531.4971	0.003735
531.7217	0.005908
531.9462	0.004558
532.1708	0.006308
532.3954	0.005001
532.6200	0.005380
532.8447	0.004895
533.0693	0.005275
533.2940	0.004284
533.5186	0.006393
533.7433	0.006604
533.9680	0.007426
534.1927	0.006287
534.4174	0.007279
534.6421	0.005148
534.8668	0.005908
535.0916	0.006562
535.3163	0.008291
535.5411	0.005338
535.7659	0.006920
535.9907	0.005992
536.2155	0.006836
536.4403	0.007026
536.6651	0.007532
536.8899	0.006751
537.1148	0.007258
537.3396	0.006646
537.5645	0.008629
537.7894	0.005655
538.0143	0.007869
538.2392	0.005950
538.4641	0.007954
538.6890	0.008017
538.9139	0.007595
539.1389	0.008945
539.3638	0.007511
539.5888	0.008692
539.8138	0.009683
540.0388	0.008439
540.2638	0.010211
540.4888	0.008080
540.7138	0.011033
540.9389	0.008650
541.1639	0.009662
541.3890	0.009409
541.6140	0.010105
541.8391	0.010295
542.0642	0.008987
542.2893	0.011603
542.5144	0.011160
542.7396	0.009240
542.9647	0.009430
543.1899	0.010295
543.4150	0.010632
543.6402	0.011582
543.8654	0.011814
544.0906	0.011307
544.3158	0.011539
544.5410	0.011624
544.7662	0.012531
544.9915	0.014682
545.2167	0.013417
545.4420	0.012383
545.6673	0.012868
545.8926	0.011455
546.1179	0.011244
546.3432	0.011750
546.5685	0.012320
546.7938	0.012257
547.0192	0.012910
547.2445	0.012130
547.4699	0.013438
547.6953	0.013522
547.9206	0.017171
548.1460	0.015737
548.3715	0.016749
548.5969	0.017213
548.8223	0.017741
549.0478	0.014197
549.2732	0.016032
549.4987	0.015041
549.7242	0.015969
549.9496	0.013881
550.1751	0.014429
550.4007	0.014197
550.6262	0.015420
550.8517	0.013986
551.0773	0.015083
551.3028	0.014767
551.5284	0.014070
551.7540	0.015842
551.9796	0.017445
552.2052	0.018015
552.4308	0.018521
552.6564	0.018711
552.8820	0.019280
553.1077	0.017150
553.3333	0.019344
553.5590	0.019576
553.7847	0.019323
554.0104	0.019702
554.2361	0.019533
554.4618	0.016960
554.6875	0.018943
554.9132	0.019386
555.1390	0.017973
555.3648	0.019850
555.5905	0.020609
555.8163	0.021094
556.0421	0.021115
556.2679	0.023267
556.4937	0.021601
556.7195	0.021411
556.9454	0.020989
557.1712	0.021601
557.3971	0.019048
557.6230	0.021369
557.8488	0.022191
558.0747	0.023288
558.3006	0.022423
558.5266	0.019660
558.7525	0.020904
558.9784	0.021242
559.2044	0.020208
559.4303	0.021284
559.6563	0.020799
559.8823	0.024195
560.1083	0.023246
560.3343	0.026916
560.5603	0.025460
560.7863	0.026346
561.0124	0.029742
561.2384	0.030923
561.4645	0.028582
561.6905	0.027085
561.9166	0.028793
562.1427	0.027380
562.3688	0.027422
562.5949	0.027675
562.8211	0.027591
563.0472	0.028076
563.2733	0.027064
563.4995	0.028519
563.7257	0.029552
563.9519	0.029700
564.1781	0.031282
564.4043	0.031620
564.6305	0.030839
564.8567	0.031873
565.0829	0.033876
565.3092	0.034130
565.5355	0.032526
565.7617	0.034994
565.9880	0.033223
566.2143	0.035627
566.4406	0.034425
566.6669	0.036197
566.8932	0.034108
567.1196	0.038306
567.3459	0.041892
567.5723	0.043706
567.7987	0.045245
568.0250	0.047355
568.2514	0.048430
568.4778	0.049843
568.7043	0.055496
568.9307	0.058196
569.1571	0.060622
569.3836	0.062794
569.6100	0.070894
569.8365	0.075998
570.0630	0.081440
570.2895	0.085743
570.5160	0.088696
570.7425	0.088928
570.9690	0.090953
571.1956	0.099601
571.4221	0.107321
571.6487	0.105275
571.8752	0.110590
572.1018	0.111666
572.3284	0.113332
572.5550	0.107004
572.7816	0.096732
573.0082	0.097534
573.2349	0.103081
573.4615	0.117213
573.6882	0.122782
573.9149	0.126030
574.1415	0.132020
574.3682	0.139867
574.5949	0.140520
574.8216	0.144823
575.0484	0.141533
575.2751	0.145266
575.5018	0.143326
575.7286	0.136070
575.9554	0.131155
576.1821	0.130438
576.4089	0.132315
576.6357	0.141364
576.8626	0.149274
577.0894	0.151636
577.3162	0.152585
577.5431	0.159883
577.7699	0.176694
577.9968	0.205401
578.2237	0.202406
578.4505	0.188527
578.6774	0.177559
578.9044	0.165599
579.1313	0.157626
579.3582	0.161022
579.5851	0.168616
579.8121	0.168932
580.0391	0.168742
580.2660	0.172075
580.4930	0.168278
580.7200	0.164376
580.9470	0.164355
581.1741	0.200676
581.4011	0.242208
581.6281	0.265241
581.8552	0.271526
582.0822	0.266169
582.3093	0.254821
582.5364	0.236070
582.7635	0.213606
582.9906	0.197154
583.2177	0.184414
583.4449	0.171569
583.6720	0.160790
583.8991	0.155728
584.1263	0.160368
584.3535	0.160664
584.5807	0.162372
584.8079	0.170830
585.0351	0.186692
585.2623	0.197470
585.4895	0.199010
585.7167	0.198419
585.9440	0.191796
586.1713	0.180596
586.3985	0.170683
586.6258	0.164250
586.8531	0.166485
587.0804	0.173298
587.3077	0.184034
587.5350	0.190700
587.7624	0.188633
587.9897	0.182052
588.2171	0.171801
588.4445	0.170050
588.6718	0.170873
588.8992	0.158955
589.1266	0.144971
589.3540	0.137863
589.5815	0.137673
589.8089	0.134910
590.0363	0.132400
590.2638	0.128941
590.4913	0.122992
590.7187	0.122571
590.9462	0.113606
591.1737	0.106456
591.4012	0.104262
591.6288	0.110843
591.8563	0.107679
592.0838	0.109346
592.3114	0.109282
592.5389	0.126346
592.7665	0.149801
592.9941	0.168763
593.2217	0.168573
593.4493	0.171801
593.6769	0.165578
593.9046	0.162014
594.1322	0.153092
594.3598	0.143157
594.5875	0.141955
594.8152	0.149189
595.0429	0.161613
595.2705	0.161803
595.4983	0.163469
595.7260	0.150497
595.9537	0.146026
596.1814	0.135922
596.4092	0.125756
596.6369	0.121347
596.8647	0.116412
597.0925	0.117487
597.3203	0.123646
597.5481	0.125249
597.7759	0.123414
598.0037	0.121537
598.2315	0.113438
598.4594	0.115737
598.6872	0.127970
598.9151	0.145815
599.1430	0.157331
599.3709	0.154041
599.5988	0.145941
599.8267	0.150814
600.0546	0.150919
600.2825	0.158048
600.5105	0.147502
600.7384	0.150539
600.9664	0.152438
601.1944	0.157268
601.4223	0.154188
601.6503	0.142503
601.8783	0.138327
602.1064	0.137504
602.3344	0.136766
602.5624	0.142313
602.7905	0.144992
603.0185	0.145498
603.2466	0.149168
603.4747	0.158154
603.7028	0.159166
603.9309	0.147818
604.1590	0.144001
604.3871	0.137778
604.6152	0.134657
604.8434	0.129616
605.0715	0.128266
605.2997	0.132864
605.5279	0.136365
605.7561	0.141680
605.9843	0.145351
606.2125	0.139930
606.4407	0.138664
606.6689	0.131176
606.8972	0.130438
607.1254	0.131598
607.3537	0.135374
607.5819	0.135121
607.8102	0.132632
608.0385	0.132822
608.2668	0.128519
608.4951	0.122318
608.7235	0.121432
608.9518	0.119976
609.1801	0.116728
609.4085	0.111138
609.6369	0.110885
609.8653	0.112678
610.0936	0.124469
610.3220	0.128835
610.5505	0.124089
610.7789	0.117213
611.0073	0.117762
611.2357	0.116180
611.4642	0.115294
611.6927	0.118162
611.9211	0.113311
612.1496	0.112952
612.3781	0.106224
612.6066	0.108354
612.8351	0.105992
613.0637	0.108164
613.2922	0.111202
613.5208	0.110147
613.7493	0.105992
613.9779	0.106561
614.2065	0.109008
614.4351	0.104283
614.6637	0.104558
614.8923	0.107110
615.1209	0.104705
615.3495	0.109388
615.5782	0.112151
615.8068	0.109599
616.0355	0.105106
616.2642	0.100466
616.4929	0.096753
616.7216	0.092261
616.9503	0.093674
617.1790	0.090911
617.4077	0.090932
617.6365	0.090067
617.8652	0.092176
618.0940	0.097238
618.3227	0.091143
618.5515	0.085258
618.7803	0.082094
619.0091	0.077074
619.2379	0.076568
619.4667	0.076926
619.6956	0.074226
619.9244	0.078424
620.1533	0.080364
620.3821	0.083275
620.6110	0.083043
620.8399	0.074859
621.0688	0.067603
621.2977	0.060094
621.5266	0.060221
621.7556	0.064334
621.9845	0.069586
622.2135	0.069143
622.4424	0.071274
622.6714	0.070831
622.9004	0.070746
623.1294	0.074564
623.3584	0.076146
623.5874	0.075724
623.8164	0.073256
624.0454	0.071358
624.2745	0.073256
624.5035	0.076969
624.7326	0.077475
624.9617	0.076378
625.1908	0.072877
625.4199	0.070156
625.6490	0.067857
625.8781	0.068658
626.1072	0.067139
626.3364	0.064904
626.5655	0.059778
626.7947	0.060031
627.0238	0.057078
627.2530	0.061149
627.4822	0.058660
627.7114	0.060516
627.9406	0.055391
628.1698	0.056846
628.3991	0.051214
628.6283	0.050265
628.8576	0.048430
629.0868	0.050413
629.3161	0.051404
629.5454	0.051995
629.7747	0.054505
630.0040	0.050961
630.2333	0.051130
630.4626	0.049253
630.6920	0.047629
630.9213	0.049675
631.1507	0.047165
631.3801	0.043853
631.6094	0.045583
631.8388	0.046595
632.0682	0.043642
632.2976	0.042060
632.5271	0.042271
632.7565	0.040605
632.9859	0.037968
633.2154	0.039571
633.4448	0.037821
633.6743	0.038918
633.9038	0.036133
634.1333	0.036175
634.3628	0.036260
634.5923	0.036429
634.8218	0.034404
635.0514	0.033244
635.2809	0.035100
635.5105	0.035205
635.7400	0.034889
635.9696	0.034594
636.1992	0.038348
636.4288	0.038875
636.6584	0.039529
636.8880	0.037715
637.1177	0.037357
637.3473	0.036302
637.5770	0.034804
637.8066	0.035205
638.0363	0.034952
638.2660	0.033644
638.4957	0.035669
638.7254	0.035226
638.9551	0.036618
639.1848	0.035648
639.4145	0.034952
639.6443	0.033064
639.8740	0.031716
640.1038	0.032855
640.3336	0.030900
640.5633	0.031959
640.7931	0.030700
641.0229	0.030522
641.2528	0.031310
641.4826	0.029779
641.7124	0.028791
641.9423	0.026436
642.1721	0.025521
642.4020	0.025259
642.6319	0.027328
642.8617	0.025054
643.0916	0.024800
643.3216	0.025805
643.5515	0.026160
643.7814	0.025558
644.0113	0.025839
644.2413	0.025170
644.4712	0.023541
644.7012	0.023196
644.9312	0.024003
645.1612	0.022795
645.3912	0.022581
645.6212	0.022100
645.8512	0.022724
646.0812	0.021648
646.3113	0.022587
646.5413	0.021163
646.7714	0.020364
647.0015	0.020975
647.2316	0.020996
647.4616	0.019895
647.6918	0.022754
647.9219	0.023703
648.1520	0.025014
648.3821	0.027423
648.6123	0.027018
648.8424	0.027506
649.0726	0.030472
649.3028	0.028944
649.5329	0.029982
649.7631	0.031154
649.9933	0.030084
650.2236	0.026220
650.4538	0.027520
650.6840	0.023930
650.9143	0.024757
651.1445	0.025646
651.3748	0.025342
651.6051	0.025697
651.8354	0.023683
652.0657	0.026681
652.2960	0.028138
652.5263	0.027832
652.7566	0.026854
652.9870	0.026640
653.2173	0.027587
653.4477	0.027835
653.6780	0.027104
653.9084	0.028086
654.1388	0.027663
654.3692	0.030410
654.5996	0.030919
654.8300	0.034277
655.0605	0.048987
655.2909	0.133659
655.5213	0.409539
655.7518	0.803207
655.9823	1.000000
656.2128	1.000000
656.4433	1.000000
656.6738	1.000000
656.9043	0.923223
657.1348	0.740784
657.3653	0.603570
657.5959	0.518015
657.8264	0.450626
658.0570	0.411147
658.2875	0.378565
658.5181	0.335555
658.7487	0.318794
658.9793	0.308669
659.2099	0.251453
659.4406	0.176070
659.6712	0.107305
659.9018	0.063697
660.1325	0.042113
660.3632	0.029782
660.5938	0.026250
660.8245	0.021745
661.0552	0.021027
661.2859	0.018815
661.5166	0.020814
661.7474	0.019832
661.9781	0.019083
662.2088	0.017701
662.4396	0.021081
662.6704	0.018226
662.9011	0.019929
663.1319	0.019038
663.3627	0.018947
663.5935	0.018285
663.8243	0.019455
664.0552	0.017144
664.2860	0.018901
664.5168	0.019013
664.7477	0.018733
664.9786	0.020459
665.2094	0.019483
665.4403	0.021423
665.6712	0.022984
665.9021	0.019820
666.1330	0.020544
666.3640	0.018447
666.5949	0.019235
666.8259	0.018305
667.0568	0.019711
667.2878	0.017761
667.5188	0.019283
667.7497	0.016985
667.9807	0.018708
668.2117	0.018309
668.4428	0.018753
668.6738	0.017930
668.9048	0.018732
669.1359	0.017361
669.3669	0.018521
669.5980	0.018352
669.8291	0.017319
670.0602	0.018901
670.2913	0.016053
670.5224	0.019934
670.7535	0.018985
670.9846	0.018205
671.2157	0.020356
671.4469	0.021980
671.6781	0.028308
671.9092	0.027085
672.1404	0.026979
672.3716	0.031050
672.6028	0.029953
672.8340	0.029320
673.0652	0.030734
673.2964	0.026895
673.5277	0.025903
673.7589	0.024575
673.9902	0.023436
674.2214	0.022149
674.4527	0.025566
674.6840	0.023604
674.9153	0.022803
675.1466	0.024490
675.3779	0.022613
675.6093	0.024300
675.8406	0.022550
676.0719	0.021896
676.3033	0.022676
676.5347	0.022149
676.7661	0.019976
676.9974	0.017530
677.2288	0.020293
677.4602	0.021284
677.6917	0.024575
677.9231	0.025228
678.1545	0.024553
678.3860	0.025714
678.6174	0.026937
678.8489	0.026958
679.0804	0.026599
679.3119	0.028181
679.5434	0.028877
679.7749	0.029342
680.0064	0.030080
680.2379	0.031261
680.4694	0.031071
680.7010	0.031303
680.9325	0.029827
681.1641	0.027865
681.3957	0.030649
681.6273	0.030354
681.8589	0.029869
682.0905	0.027591
682.3221	0.028413
682.5537	0.027000
682.7854	0.025967
683.0170	0.025039
683.2487	0.024532
683.4803	0.027253
683.7120	0.028181
683.9437	0.025798
684.1754	0.027949
684.4071	0.029468
684.6388	0.032759
684.8705	0.032505
685.1023	0.034994
685.3340	0.033560
685.5658	0.040014
685.7975	0.040183
686.0293	0.040035
686.2611	0.039677
686.4929	0.038559
686.7247	0.036175
686.9565	0.035796
687.1883	0.037336
687.4202	0.038074
687.6520	0.039192
687.8838	0.036386
688.1157	0.034340
688.3476	0.033729
688.5795	0.032358
688.8114	0.031198
689.0433	0.031261
689.2752	0.031978
689.5071	0.028519
689.7390	0.030839
689.9710	0.027760
690.2029	0.029721
690.4349	0.027549
690.6669	0.029806
690.8988	0.029995
691.1308	0.031620
691.3628	0.034783
691.5948	0.031430
691.8269	0.030945
692.0589	0.033750
692.2909	0.029932
692.5230	0.031852
692.7550	0.033054
692.9871	0.030670
693.2192	0.032168
693.4513	0.034910
693.6834	0.033581
693.9155	0.033180
694.1476	0.029194
694.3797	0.031409
694.6119	0.027464
694.8440	0.028034
695.0762	0.029658
695.3083	0.031177
695.5405	0.029552
695.7727	0.025313
696.0049	0.026494
696.2371	0.026431
696.4693	0.028477
696.7016	0.030586
696.9338	0.033560
697.1660	0.033265
697.3983	0.035395
697.6306	0.031662
697.8628	0.034530
698.0951	0.032189
698.3274	0.035311
698.5597	0.032358
698.7920	0.032210
699.0243	0.029974
699.2567	0.030248
699.4890	0.028645
699.7214	0.028392
699.9537	0.029531
700.1861	0.026831
700.4185	0.027211
700.6509	0.028793
700.8833	0.025692
701.1157	0.024068
701.3481	0.023393
701.5806	0.024617
701.8130	0.024385
702.0454	0.025629
702.2779	0.024532
702.5104	0.027148
702.7429	0.024258
702.9753	0.026325
703.2078	0.024891
703.4403	0.025967
703.6729	0.024406
703.9054	0.024870
704.1379	0.024828
704.3705	0.023288
704.6030	0.022043
704.8356	0.023351
705.0682	0.020799
705.3008	0.021221
705.5334	0.020862
705.7660	0.021938
705.9986	0.019913
706.2312	0.022297
706.4638	0.024216
706.6965	0.026325
706.9291	0.027760
707.1618	0.030966
707.3945	0.032505
707.6272	0.032168
707.8599	0.034404
708.0926	0.034615
708.3253	0.033075
708.5580	0.031915
708.7907	0.030438
709.0235	0.030038
709.2562	0.030923
709.4890	0.030797
709.7217	0.029552
709.9545	0.029215
710.1873	0.029384
710.4201	0.030101
710.6529	0.028877
710.8857	0.027738
711.1186	0.027380
711.3514	0.025524
711.5842	0.026663
711.8171	0.024786
712.0500	0.026220
712.2828	0.024659
712.5157	0.022107
712.7486	0.024448
712.9815	0.023963
713.2144	0.025903
713.4474	0.027802
713.6803	0.028371
713.9132	0.027042
714.1462	0.029574
714.3791	0.030481
714.6121	0.029384
714.8451	0.031894
715.0781	0.029067
715.3111	0.029067
715.5441	0.029384
715.7771	0.027042
716.0102	0.026599
716.2432	0.025418
716.4762	0.025882
716.7093	0.024891
716.9424	0.024849
717.1754	0.023942
717.4085	0.023668
717.6416	0.021938
717.8747	0.024828
718.1078	0.024596
718.3410	0.023710
718.5741	0.024680
718.8072	0.023794
719.0404	0.026557
719.2736	0.026642
719.5067	0.026030
719.7399	0.027021
719.9731	0.023836
720.2063	0.023604
720.4395	0.025756
720.6727	0.025903
720.9060	0.025777
721.1392	0.025903
721.3725	0.024933
721.6057	0.023900
721.8390	0.026009
722.0723	0.025186
722.3055	0.025439
722.5388	0.025629
722.7721	0.024279
723.0055	0.023773
723.2388	0.023077
723.4721	0.025250
723.7055	0.024912
723.9388	0.025819
724.1722	0.023014
724.4056	0.020567
724.6389	0.021179
724.8723	0.023098
725.1057	0.025439
725.3391	0.026621
725.5726	0.026705
725.8060	0.027844
726.0394	0.027717
726.2729	0.027865
726.5063	0.030080
726.7398	0.027064
726.9733	0.025840
727.2068	0.028245
727.4403	0.027612
727.6738	0.027802
727.9073	0.030059
728.1408	0.028983
728.3743	0.027865
728.6079	0.026262
728.8414	0.029067
729.0750	0.029025
729.3086	0.028877
729.5421	0.031767
729.7757	0.032020
730.0093	0.033349
730.2429	0.031915
730.4766	0.031577
730.7102	0.033750
730.9438	0.035965
731.1775	0.037462
731.4111	0.035922
731.6448	0.035416
731.8785	0.037399
732.1122	0.035163
732.3458	0.034594
732.5795	0.035353
732.8133	0.036450
733.0470	0.037293
733.2807	0.037314
733.5145	0.035669
733.7482	0.039656
733.9820	0.040162
734.2157	0.045435
734.4495	0.044739
734.6833	0.042672
734.9171	0.040774
735.1509	0.038812
735.3847	0.040352
735.6185	0.041428
735.8524	0.040753
736.0862	0.041934
736.3201	0.041196
736.5539	0.041238
736.7878	0.041006
737.0217	0.041870
737.2556	0.043284
737.4895	0.038896
737.7234	0.037357
737.9573	0.037420
738.1912	0.036808
738.4252	0.033919
738.6591	0.034509
738.8931	0.036154
739.1271	0.037272
739.3610	0.039403
739.5950	0.041681
739.8290	0.038432
740.0630	0.036956
740.2970	0.037779
740.5310	0.034762
740.7651	0.034931
740.9991	0.033497
741.2332	0.030417
741.4672	0.029194
741.7013	0.030923
741.9354	0.027907
742.1695	0.029531
742.4036	0.029995
742.6377	0.029173
742.8718	0.030839
743.1059	0.027928
743.3400	0.028034
743.5742	0.027549
743.8083	0.026178
744.0425	0.026072
744.2767	0.025882
744.5108	0.025376
744.7450	0.025671
744.9792	0.025566
745.2134	0.025861
745.4477	0.023668
745.6819	0.023604
745.9161	0.024195
746.1504	0.025587
746.3846	0.024047
746.6189	0.024174
746.8532	0.024870
747.0874	0.024996
747.3217	0.028245
747.5560	0.029046
747.7903	0.027633
748.0247	0.022803
748.2590	0.024659
748.4933	0.023520
748.7277	0.024912
748.9620	0.025376
749.1964	0.024975
749.4308	0.028477
749.6652	0.030459
749.8995	0.028371
750.1339	0.033961
750.3684	0.033412
750.6028	0.035690
750.8372	0.031852
751.0717	0.033349
751.3061	0.033159
751.5406	0.034762
751.7750	0.034594
752.0095	0.032653
752.2440	0.032316
752.4785	0.033117
752.7130	0.031282
752.9475	0.030417
753.1820	0.030354
753.4166	0.032526
753.6511	0.033433
753.8856	0.035416
754.1202	0.037694
754.3548	0.034298
754.5894	0.035226
754.8239	0.035374
755.0585	0.037104
755.2931	0.035627
755.5278	0.036829
755.7624	0.035838
755.9970	0.037272
756.2317	0.039592
756.4663	0.040204
756.7010	0.043368
756.9356	0.044191
757.1703	0.046764
757.4050	0.045836
757.6397	0.052164
757.8744	0.053640
758.1091	0.051911
758.3438	0.048030
758.5786	0.046131
758.8133	0.046426
759.0481	0.046405
759.2828	0.048262
759.5176	0.050371
759.7524	0.052016
759.9872	0.050603
760.2220	0.052691
760.4568	0.055370
760.6916	0.051784
760.9264	0.053387
761.1613	0.051868
761.3961	0.050371
761.6310	0.046912
761.8658	0.045857
762.1007	0.043410
762.3356	0.040964
762.5705	0.040225
762.8054	0.043136
763.0403	0.043073
763.2752	0.043178
763.5101	0.044254
763.7450	0.041153
763.9800	0.040162
764.2149	0.041280
764.4499	0.044423
764.6849	0.050455
764.9198	0.050835
765.1548	0.050961
765.3898	0.047059
765.6248	0.046026
765.8599	0.045815
766.0949	0.044064
766.3299	0.040014
766.5650	0.037441
766.8000	0.035121
767.0351	0.035374
767.2701	0.035121
767.5052	0.031092
767.7403	0.034319
767.9754	0.034720
768.2105	0.036492
768.4456	0.038749
768.6808	0.039065
768.9159	0.041259
769.1510	0.041111
769.3862	0.039276
769.6214	0.038664
769.8565	0.035395
770.0917	0.037504
770.3269	0.037061
770.5621	0.038369
770.7973	0.040014
771.0325	0.040795
771.2677	0.041069
771.5030	0.039677
771.7382	0.038833
771.9735	0.036682
772.2087	0.034804
772.4440	0.035332
772.6793	0.033771
772.9146	0.037146
773.1499	0.034488
773.3852	0.033054
773.6205	0.032294
773.8558	0.033265
774.0911	0.031409
774.3265	0.030143
774.5618	0.029637
774.7972	0.027928
775.0326	0.027760
775.2679	0.024532
775.5033	0.021959
775.7387	0.025313
775.9741	0.023182
776.2095	0.021727
776.4450	0.023140
776.6804	0.020968
776.9158	0.021326
777.1513	0.021558
777.3868	0.019955
777.6222	0.021179
777.8577	0.020208
778.0932	0.020356
778.3287	0.021875
778.5642	0.022866
778.7997	0.023077
779.0352	0.026473
779.2707	0.026199
779.5063	0.027274
779.7418	0.026789
779.9774	0.025123
780.2130	0.023119
780.4485	0.023119
780.6841	0.023478
780.9197	0.026304
781.1553	0.026599
781.3909	0.032273
781.6265	0.030945
781.8622	0.031092
782.0978	0.028772
782.3335	0.030248
782.5691	0.031282
782.8048	0.030923
783.0405	0.030734
783.2761	0.028814
783.5118	0.029531
783.7475	0.032105
783.9832	0.030691
784.2190	0.028413
784.4547	0.026536
784.6904	0.024764
784.9262	0.024364
785.1619	0.024807
785.3977	0.024638
785.6335	0.024321
785.8692	0.025460
786.1050	0.024764
786.3408	0.025186
786.5766	0.022191
786.8124	0.023225
787.0483	0.023393
787.2841	0.024954
787.5199	0.025882
787.7558	0.025629
787.9917	0.026199
788.2275	0.026895
788.4634	0.025840
788.6993	0.026199
788.9352	0.028139
789.1711	0.027549
789.4070	0.025840
789.6429	0.024575
789.8789	0.023436
790.1148	0.023773
790.3507	0.021664
790.5867	0.022676
790.8227	0.022950
791.0586	0.018626
791.2946	0.021558
791.5306	0.020124
791.7666	0.020208
792.0026	0.020904
792.2387	0.021959
792.4747	0.019091
792.7107	0.019639
792.9468	0.019027
793.1828	0.020040
793.4189	0.019196
793.6550	0.020230
793.8910	0.022486
794.1271	0.025165
794.3632	0.026051
794.5993	0.028962
794.8355	0.027528
795.0716	0.027169
795.3077	0.026494
795.5439	0.027717
795.7800	0.025587
796.0162	0.021347
796.2523	0.021727
796.4885	0.018289
796.7247	0.017994
796.9609	0.018099
797.1971	0.018394
797.4333	0.018437
797.6695	0.019597
797.9058	0.019955
798.1420	0.020694
798.3783	0.019280
798.6145	0.020293
798.8508	0.019702
799.0871	0.019787
799.3233	0.020799
799.5596	0.019597
799.7959	0.018669
800.0322	0.017909
800.2686	0.015758
800.5049	0.017298
800.7412	0.017698
800.9776	0.015231
801.2139	0.015906
801.4503	0.015442
801.6867	0.016581
801.9230	0.015463
802.1594	0.013691
802.3958	0.014977
802.6322	0.014513
802.8686	0.015948
803.1051	0.014830
803.3415	0.013902
803.5779	0.015062
803.8144	0.015969
804.0508	0.014703
804.2873	0.016180
804.5238	0.013121
804.7603	0.014703
804.9968	0.016517
805.2333	0.013269
805.4698	0.015842
805.7063	0.015547
805.9428	0.018268
806.1794	0.018943
806.4159	0.018416
806.6525	0.021495
806.8890	0.020567
807.1256	0.018184
807.3622	0.019470
807.5988	0.019871
807.8354	0.020525
808.0720	0.019744
808.3086	0.019027
808.5452	0.020293
808.7818	0.020630
809.0185	0.020398
809.2551	0.019196
809.4918	0.017867
809.7284	0.017234
809.9651	0.017804
810.2018	0.017762
810.4385	0.016433
810.6752	0.015589
810.9119	0.013986
811.1486	0.016053
811.3853	0.012953
811.6221	0.016306
811.8588	0.014977
812.0956	0.013311
812.3323	0.012003
812.5691	0.013754
812.8059	0.013058
813.0427	0.012383
813.2795	0.012594
813.5163	0.013838
813.7531	0.014619
813.9899	0.015758
814.2267	0.017635
814.4636	0.015631
814.7004	0.014977
814.9373	0.014155
815.1742	0.013332
815.4110	0.014598
815.6479	0.012362
815.8848	0.012003
816.1217	0.009662
816.3586	0.011582
816.5955	0.013923
816.8324	0.011856
817.0694	0.013775
817.3063	0.013501
817.5433	0.014239
817.7802	0.012025
818.0172	0.012320
818.2542	0.012889
818.4912	0.013037
818.7282	0.011181
818.9652	0.011898
819.2022	0.010654
819.4392	0.011223
819.6762	0.009831
819.9133	0.009957
820.1503	0.010464
820.3874	0.012995
820.6244	0.013121
820.8615	0.013691
821.0986	0.012299
821.3357	0.012531
821.5727	0.011771
821.8099	0.013248
822.0470	0.012657
822.2841	0.010654
822.5212	0.009936
822.7584	0.011286
822.9955	0.011708
823.2327	0.011286
823.4698	0.009135
823.7070	0.010021
823.9442	0.009704
824.1814	0.008017
824.4186	0.009789
824.6558	0.009135
824.8930	0.011160
825.1302	0.010991
825.3675	0.010590
825.6047	0.011096
825.8419	0.011666
826.0792	0.009979
826.3165	0.011350
826.5537	0.011265
826.7910	0.009515
827.0283	0.011687
827.2656	0.010316
827.5029	0.013817
827.7402	0.010886
827.9776	0.010548
828.2149	0.009430
828.4522	0.010843
828.6896	0.010864
828.9270	0.012404
829.1643	0.011919
829.4017	0.010443
829.6391	0.010928
829.8765	0.009599
830.1139	0.009219
830.3513	0.009304
830.5887	0.008523
830.8261	0.009072
831.0636	0.007384
831.3010	0.008186
831.5385	0.006688
831.7759	0.006815
832.0134	0.006203
832.2509	0.006794
832.4884	0.008122
832.7259	0.009325
832.9634	0.007469
833.2009	0.009662
833.4384	0.007869
833.6759	0.008059
833.9135	0.007447
834.1510	0.007954
834.3886	0.010274
834.6261	0.011307
834.8637	0.009515
835.1013	0.010105
835.3389	0.010189
835.5765	0.008671
835.8141	0.008418
836.0517	0.008460
836.2893	0.008228
836.5269	0.007679
836.7646	0.007047
837.0022	0.006625
837.2399	0.007574
837.4775	0.006287
837.7152	0.004326
837.9529	0.007194
838.1906	0.004832
838.4283	0.006604
838.6660	0.005423
838.9037	0.005718
839.1414	0.004516
839.3791	0.008165
839.6169	0.005338
839.8546	0.006266
840.0924	0.006941
840.3302	0.007300
840.5679	0.006540
840.8057	0.007447
841.0435	0.004959
841.2813	0.005528
841.5191	0.004937
841.7569	0.006667
841.9947	0.004579
842.2326	0.004916
842.4704	0.004853
842.7082	0.004790
842.9461	0.003651
843.1840	0.004980
843.4218	0.005233
843.6597	0.003967
843.8976	0.004790
844.1355	0.005296
844.3734	0.004473
844.6113	0.005528
844.8492	0.005169
845.0872	0.005212
845.3251	0.003841
845.5631	0.004874
845.8010	0.004663
846.0390	0.003419
846.2770	0.005865
846.5149	0.004009
846.7529	0.004326
846.9909	0.005570
847.2289	0.003841
847.4669	0.005064
847.7050	0.005127
847.9430	0.005844
848.1810	0.005127
848.4191	0.004494
848.6571	0.005212
848.8952	0.005212
849.1333	0.004157
849.3713	0.005043
849.6094	0.005359
849.8475	0.004473
850.0856	0.002195
850.3237	0.006098
850.5619	0.002828
850.8000	0.004241
851.0381	0.004030
851.2763	0.004895
851.5144	0.003693
851.7526	0.005254
851.9908	0.004726
852.2289	0.005908
852.4671	0.006330
852.7053	0.007658
852.9435	0.009093
853.1817	0.009219
853.4200	0.011666
853.6582	0.010843
853.8964	0.013121
854.1347	0.011919
854.3729	0.012699
854.6112	0.011771
854.8495	0.013058
855.0877	0.011687
855.3260	0.012678
855.5643	0.010147
855.8026	0.009515
856.0409	0.011160
856.2792	0.010485
856.5176	0.010316
856.7559	0.010654
856.9942	0.010527
857.2326	0.008924
857.4710	0.008418
857.7093	0.008502
857.9477	0.010021
858.1861	0.009346
858.4245	0.007933
858.6629	0.008586
858.9013	0.008671
859.1397	0.007300
859.3781	0.007384
859.6166	0.007469
859.8550	0.007173
860.0935	0.004832
860.3319	0.008207
860.5704	0.007258
860.8089	0.007279
861.0473	0.007194
861.2858	0.004516
861.5243	0.004389
861.7628	0.006836
862.0013	0.006098
862.2399	0.005043
862.4784	0.004347
862.7169	0.004073
862.9555	0.004895
863.1940	0.006646
863.4326	0.005992
863.6712	0.006815
863.9098	0.007363
864.1483	0.006456
864.3869	0.005233
864.6255	0.005844
864.8642	0.003946
865.1028	0.004558
865.3414	0.003313
865.5800	0.004389
865.8187	0.004284
866.0573	0.004726
866.2960	0.003166
866.5347	0.004347
866.7733	0.003630
867.0120	0.003820
867.2507	0.005254
867.4894	0.006351
867.7281	0.004600
867.9669	0.005064
868.2056	0.003503
868.4443	0.005001
868.6831	0.006140
868.9218	0.005380
869.1606	0.005064
869.3993	0.005001
869.6381	0.002997
869.8769	0.003820
870.1157	0.004073
870.3545	0.004199
870.5933	0.003820
870.8321	0.004811
871.0709	0.003609
871.3097	0.004600
871.5486	0.004410
871.7874	0.003651
872.0263	0.004916
872.2651	0.003946
872.5040	0.004516
872.7429	0.004326
872.9818	0.004516
873.2207	0.004052
873.4596	0.005465
873.6985	0.004916
873.9374	0.004389
874.1763	0.005064
874.4153	0.004009
874.6542	0.002870
874.8932	0.005676
875.1321	0.005444
875.3711	0.005781
875.6101	0.005486
875.8491	0.005739
876.0880	0.004642
876.3270	0.004178
876.5661	0.004980
876.8051	0.004642
877.0441	0.004199
877.2831	0.005106
877.5222	0.005359
877.7612	0.005655
878.0003	0.005739
878.2393	0.006646
878.4784	0.005359
878.7175	0.005043
878.9566	0.003946
879.1957	0.006098
879.4348	0.006287
879.6739	0.006098
879.9130	0.007110
880.1521	0.005929
880.3913	0.005676
880.6304	0.007469
880.8696	0.007321
881.1087	0.007722
881.3479	0.006583
881.5871	0.006540
881.8262	0.006351
882.0654	0.004980
882.3046	0.005148
882.5438	0.004052
882.7831	0.005697
883.0223	0.006962
883.2615	0.006245
883.5007	0.006730
883.7400	0.004959
883.9792	0.005191
884.2185	0.004642
884.4578	0.005380
884.6971	0.004684
884.9363	0.006098
885.1756	0.006245
885.4149	0.005929
885.6542	0.006245
885.8936	0.007384
886.1329	0.005169
886.3722	0.006730
886.6116	0.005169
886.8509	0.004579
887.0903	0.005549
887.3296	0.005296
887.5690	0.004558
887.8084	0.004009
888.0478	0.004305
888.2872	0.004726
888.5266	0.003292
888.7660	0.004199
889.0054	0.003988
889.2448	0.004579
889.4843	0.005275
889.7237	0.003545
889.9632	0.003524
890.2026	0.003820
890.4421	0.003292
890.6816	0.004431
890.9211	0.004431
891.1606	0.004811
891.4001	0.004052
891.6396	0.004410
891.8791	0.004452
892.1186	0.004642
892.3581	0.004052
892.5977	0.004094
892.8372	0.003187
893.0768	0.005233
893.3163	0.005169
893.5559	0.004663
893.7955	0.004389
894.0351	0.005127
894.2747	0.002765
894.5143	0.004431
894.7539	0.002406
894.9935	0.002090
895.2331	0.002934
895.4727	0.004284
895.7124	0.006034
895.9520	0.004663
896.1917	0.004284
896.4314	0.004136
896.6710	0.004326
896.9107	0.005106
897.1504	0.004621
897.3901	0.004030
897.6298	0.003334
897.8695	0.003904
898.1092	0.004410
898.3489	0.003904
898.5887	0.004452
898.8284	0.004073
899.0682	0.004811
899.3079	0.004537
899.5477	0.004030
899.7875	0.004284
900.0272	0.003166
900.2670	0.003398
900.5068	0.003102
900.7466	0.003145
900.9864	0.003988
901.2263	0.004494
901.4661	0.004431
901.7059	0.004959
901.9458	0.005697
902.1856	0.003018
902.4255	0.004262
902.6654	0.004262
902.9052	0.003440
903.1451	0.003398
903.3850	0.002976
903.6249	0.004115
903.8648	0.003862
904.1047	0.003841
904.3446	0.004157
904.5846	0.004347
904.8245	0.003609
905.0644	0.003250
905.3044	0.004115
905.5444	0.006182
905.7843	0.004410
906.0243	0.004600
906.2643	0.003250
906.5043	0.004790
906.7443	0.003440
906.9843	0.002638
907.2243	0.004494
907.4643	0.003313
907.7043	0.003398
907.9444	0.002301
908.1844	0.004009
908.4245	0.005401
908.6645	0.003250
908.9046	0.002069
909.1447	0.003925
909.3847	0.003503
909.6248	0.002744
909.8649	0.003524
910.1050	0.002470
910.3452	0.003714
910.5853	0.001309
910.8254	0.003166
911.0655	0.004199
911.3057	0.003524
911.5458	0.003461
911.7860	0.004516
912.0262	0.003313
912.2663	0.003946
912.5065	0.003292
912.7467	0.003355
912.9869	0.003672
913.2271	0.003271
913.4673	0.003925
913.7075	0.003883
913.9478	0.003166
914.1880	0.004874
914.4283	0.001710
914.6685	0.002934
914.9088	0.002132
915.1490	0.002702
915.3893	0.002997
915.6296	0.002512
915.8699	0.002681
916.1102	0.004326
916.3505	0.002533
916.5908	0.002976
916.8311	0.002153
917.0714	0.004410
917.3118	0.003145
917.5521	0.003735
917.7925	0.002111
918.0328	0.003798
918.2732	0.003820
918.5136	0.005001
918.7539	0.003883
918.9943	0.002364
919.2347	0.002765
919.4751	0.004621
919.7155	0.002786
919.9560	0.002638
920.1964	0.003060
920.4368	0.003060
920.6773	0.002322
920.9177	0.003672
921.1582	0.003166
921.3986	0.004157
921.6391	0.002111
921.8796	0.003166
922.1201	0.003145
922.3606	0.003651
922.6011	0.002955
922.8416	0.001942
923.0821	0.003355
923.3226	0.003904
923.5631	0.003187
923.8037	0.001858
924.0442	0.001879
924.2848	0.003166
924.5254	0.003545
924.7659	0.003355
925.0065	0.003102
925.2471	0.002596
925.4877	0.001499
925.7283	0.003946
925.9689	0.001879
926.2095	0.002364
926.4501	0.002512
926.6908	0.002638
926.9314	0.002554
927.1720	0.002934
927.4127	0.002491
927.6533	0.001394
927.8940	0.001795
928.1347	0.000740
928.3754	0.001921
928.6161	0.002765
928.8568	0.001942
929.0975	0.003777
929.3382	0.001415
929.5789	0.002828
929.8196	0.002533
930.0604	0.001837
930.3011	0.000719
930.5419	0.000656
930.7826	0.001879
931.0234	0.004157
931.2642	0.002744
931.5049	0.000951
931.7457	0.001879
931.9865	0.002976
932.2273	0.001478
932.4681	0.001605
932.7089	0.002238
932.9498	0.002470
933.1906	0.002216
933.4314	0.001921
933.6723	0.002681
933.9131	0.003334
934.1540	0.002997
934.3949	0.001415
934.6358	0.001288
934.8766	0.002533
935.1175	0.001563
935.3584	-0.000019
935.5993	0.000635
935.8403	0.002216
936.0812	0.001120
936.3221	0.001183
936.5630	0.000888
936.8040	0.001352
937.0449	0.002617
937.2859	0.002216
937.5269	0.000656
937.7678	0.000592
938.0088	0.000234
938.2498	0.000761
938.4908	0.001457
938.7318	0.001731
938.9728	0.001774
939.2138	0.001225
939.4549	0.001689
939.6959	0.000107
939.9369	0.001542
940.1780	0.000424
940.4190	0.001099
940.6601	0.001436
940.9012	0.002491
941.1422	0.001963
941.3833	0.001837
941.6244	0.000951
941.8655	0.002238
942.1066	0.001478
942.3477	0.000635
942.5889	0.002195
942.8300	0.001288
943.0711	0.001204
943.3123	0.001120
943.5534	0.001647
943.7946	0.001120
944.0357	0.000487
944.2769	0.001099
944.5181	0.000592
944.7593	0.001647
945.0005	0.001099
945.2417	0.002554
945.4829	0.001584
945.7241	0.002807
945.9653	0.001478
946.2066	0.000930
946.4478	0.000635
946.6891	0.001837
946.9303	0.000192
947.1716	0.003060
947.4128	0.001141
947.6541	0.000445
947.8954	0.000381
948.1367	0.001520
948.3780	0.000803
948.6193	0.001246
948.8606	0.000107
949.1019	0.000656
949.3433	0.001520
949.5846	0.001689
949.8259	0.000297
950.0673	0.000930
950.3086	0.000381
950.5500	0.000824
950.7914	-0.000800
951.0327	0.001921
951.2741	0.000592
951.5155	0.001394
951.7569	0.001246
951.9983	0.002216
952.2398	0.001436
952.4812	0.001563
952.7226	0.001288
952.9640	0.000951
953.2055	0.001963
953.4469	0.001120
953.6884	0.000782
953.9299	0.000297
954.1713	0.001668
954.4128	0.002554
954.6543	0.001605
954.8958	0.001457
955.1373	0.002027
955.3788	0.002322
955.6203	0.000761
955.8618	0.001837
956.1034	-0.000336
956.3449	0.000993
956.5865	0.000613
956.8280	0.001647
957.0696	0.000550
957.3111	0.001394
957.5527	-0.000230
957.7943	-0.000188
958.0359	0.001288
958.2775	0.001183
958.5191	0.001331
958.7607	0.002048
959.0023	0.002343
959.2439	0.002385
959.4856	0.000192
959.7272	0.001689
959.9688	0.001605
960.2105	0.000888
960.4522	0.001162
960.6938	0.000403
960.9355	0.001035
961.1772	0.000339
961.4189	0.000550
961.6606	0.001225
961.9023	0.000107
962.1440	-0.000146
962.3857	0.000360
962.6274	0.001309
962.8692	0.001141
963.1109	0.000698
963.3527	-0.000251
963.5944	-0.000019
963.8362	0.000803
964.0779	0.001668
964.3197	0.000656
964.5615	0.000318
964.8033	0.000761
965.0451	0.001331
965.2869	-0.000315
965.5287	0.002638
965.7705	-0.000336
966.0123	0.001457
966.2542	0.000255
966.4960	0.000677
966.7379	0.000613
966.9797	-0.000758
967.2216	-0.000125
967.4634	0.002533
967.7053	0.000740
967.9472	0.000824
968.1891	0.001478
968.4310	0.000951
968.6729	0.000719
968.9148	0.002048
969.1567	0.000276
969.3987	0.001478
969.6406	0.000951
969.8825	0.001246
970.1245	0.002596
970.3664	0.001774
970.6084	0.000635
970.8504	0.002301
971.0923	-0.000040
971.3343	0.002027
971.5763	0.001394
971.8183	0.001900
972.0603	0.000571
972.3023	0.000318
972.5443	0.001457
972.7864	0.001731
973.0284	0.000234
973.2704	-0.000230
973.5125	0.000845
973.7545	0.001394
973.9966	0.001752
974.2387	0.000740
974.4807	0.000466
974.7228	0.001099
974.9649	0.000170
975.2070	0.000824
975.4491	0.001668
975.6912	0.001099
975.9333	0.001584
976.1755	0.001373
976.4176	-0.000209
976.6597	0.002195
976.9019	0.000719
977.1440	0.000677
977.3862	0.001499
977.6283	0.001520
977.8705	0.000972
978.1127	0.001014
978.3549	0.000782
978.5971	0.001499
978.8393	0.000086
979.0815	0.000297
979.3237	0.001035
979.5659	0.002385
979.8082	0.000276
980.0504	0.001795
980.2926	0.000128
980.5349	0.000023
980.7771	0.001373
981.0194	0.002343
981.2617	0.001035
981.5040	-0.000631
981.7462	0.001056
981.9885	0.000445
982.2308	0.001014
982.4731	0.000993
982.7155	-0.000547
982.9578	0.000529
983.2001	0.000107
983.4424	0.000592
983.6848	0.000381
983.9271	0.000381
984.1695	-0.000062
984.4118	0.001542
984.6542	-0.000040
984.8966	0.002006
985.1390	0.000930
985.3814	0.000740
985.6238	0.000930
985.8662	0.000993
986.1086	-0.000230
986.3510	0.000550
986.5934	0.001373
986.8358	0.001035
987.0783	-0.000947
987.3207	0.000360
987.5632	0.000297
987.8056	0.002638
988.0481	0.001035
988.2906	0.000023
988.5331	-0.001243
988.7756	0.001204
989.0180	0.001120
989.2605	0.001309
989.5031	0.000192
989.7456	0.000909
989.9881	-0.000294
990.2306	0.001605
990.4732	0.001267
990.7157	0.000909
990.9582	0.000339
991.2008	0.000824
991.4434	0.000234
991.6859	0.000951
991.9285	0.000213
992.1711	0.000993
992.4137	-0.000336
992.6563	0.000613
992.8989	0.000845
993.1415	0.001542
993.3841	0.000170
993.6267	0.001120
993.8694	0.001035
994.1120	0.001246
994.3547	0.001499
994.5973	0.001457
994.8400	-0.000062
995.0826	0.000318
995.3253	0.000065
995.5680	0.000656
995.8107	-0.000251
996.0534	0.002006
996.2961	0.000381
996.5388	0.000888
996.7815	0.000381
997.0242	0.001120
997.2670	0.001795
997.5097	0.001056
997.7524	-0.000610
997.9952	0.000170
998.2379	0.001014
998.4807	0.000086
998.7235	-0.000378
998.9662	0.001499
999.2090	-0.000019
999.4518	0.001563
999.6946	0.001099
999.9374	0.000445
1000.1802	0.001647
1000.4230	-0.001749
1000.6659	0.001141
1000.9087	-0.000631
1001.1515	0.000930
1001.3944	0.001984
1001.6372	-0.000357
1001.8801	0.000297
1002.1230	-0.000926
1002.3658	-0.000821
1002.6087	0.000318
1002.8516	0.000002
1003.0945	0.001331
1003.3374	0.000613
1003.5803	0.000170
1003.8232	0.000487
1004.0661	0.000487
1004.3091	0.000023
1004.5520	0.001204
1004.7949	0.000571
1005.0379	0.001879
1005.2808	0.000149
1005.5238	0.000255
1005.7667	0.000782
1006.0097	0.000972
1006.2527	0.001077
1006.4957	-0.000125
1006.7387	-0.000441
1006.9817	0.000550
1007.2247	0.001900
1007.4677	0.000888
1007.7107	0.000529
1007.9538	-0.000272
1008.1968	0.000909
1008.4398	0.000023
1008.6829	-0.000019
1008.9259	0.001605
1009.1690	-0.000272
1009.4121	0.001752
1009.6551	0.000550
1009.8982	0.001099
1010.1413	0.001014
1010.3844	0.000529
1010.6275	0.001120
1010.8706	0.000719
1011.1137	-0.000188
1011.3568	0.000255
1011.6000	-0.000863
1011.8431	0.000656
1012.0863	0.000149
1012.3294	0.000445
1012.5726	-0.000315
1012.8157	0.001204
1013.0589	0.000571
1013.3021	0.000951
1013.5452	0.001752
1013.7884	0.001373
1014.0316	0.000529
1014.2748	0.000845
1014.5180	-0.000462
1014.7613	0.000044
1015.0045	0.001710
1015.2477	-0.000062
1015.4909	0.001436
1015.7342	0.000213
1015.9774	0.000002
1016.2207	0.000592
1016.4640	0.001900
1016.7072	0.000381
1016.9505	0.000213
1017.1938	0.000276
1017.4371	0.000592
1017.6804	0.000192
1017.9237	0.000086
1018.1670	0.000888
1018.4103	0.000149
1018.6536	-0.000294
1018.8969	0.000424
1019.1403	0.001309
1019.3836	-0.000040
1019.6270	0.000529
1019.8703	-0.000357
1020.1137	0.002470
1020.3571	-0.000673
1020.6004	0.000318
1020.8438	-0.000378
1021.0872	0.000909
1021.3306	0.001141
1021.5740	0.000149
1021.8174	-0.000694
1022.0608	0.000740
1022.3042	-0.000568
1022.5477	-0.000146
1022.7911	-0.000441
1023.0345	-0.000589
