# Wavelength (nm)	Intensity (a.u.)
197.7802	0.000809
197.9842	0.000703
198.1882	0.000703
198.3922	0.000408
198.5963	-0.000647
198.8003	-0.000499
199.0044	-0.000394
199.2085	0.000197
199.4126	-0.001238
199.6168	-0.000035
199.8209	0.000070
200.0251	0.000028
200.2292	0.000745
200.4334	0.000070
200.6376	-0.000605
200.8418	0.001210
201.0461	-0.000689
201.2503	0.000872
201.4546	0.000999
201.6589	-0.001153
201.8631	-0.000035
202.0674	0.000155
202.2718	0.001821
202.4761	0.000851
202.6805	-0.000120
202.8848	-0.000035
203.0892	0.000661
203.2936	-0.000141
203.4980	0.000155
203.7024	-0.000478
203.9069	-0.000098
204.1113	-0.001575
204.3158	0.000197
204.5203	-0.000204
204.7248	0.000809
204.9293	-0.000183
205.1338	-0.000331
205.3384	0.000534
205.5430	0.000893
205.7475	-0.000204
205.9521	-0.000267
206.1567	0.000281
206.3614	-0.000141
206.5660	-0.001533
206.7706	0.000724
206.9753	0.000239
207.1800	0.001041
207.3847	0.000070
207.5894	-0.000056
207.7941	0.000260
207.9989	-0.000141
208.2036	0.001167
208.4084	-0.000309
208.6132	-0.001744
208.8180	0.000809
209.0228	-0.000984
209.2276	0.000134
209.4325	-0.001449
209.6373	0.000176
209.8422	0.000113
210.0471	0.000113
210.2520	0.001294
210.4569	-0.001069
210.6618	-0.000478
210.8668	-0.000795
211.0718	0.000534
211.2767	0.000134
211.4817	0.000281
211.6867	0.000218
211.8918	0.000429
212.0968	0.000387
212.3018	0.000640
212.5069	-0.001259
212.7120	-0.000795
212.9171	0.000893
213.1222	-0.000963
213.3273	0.000745
213.5325	-0.000499
213.7376	-0.000098
213.9428	0.000640
214.1480	0.001463
214.3532	0.000471
214.5584	-0.000647
214.7636	-0.000499
214.9689	-0.001027
215.1741	0.000556
215.3794	0.000534
215.5847	0.000766
215.7900	-0.000288
215.9953	0.000872
216.2007	-0.000056
216.4060	0.000745
216.6114	0.000028
216.8168	0.000809
217.0222	-0.000183
217.2276	0.000640
217.4330	0.001231
217.6384	-0.000626
217.8439	0.000302
218.0494	-0.000120
218.2548	-0.000520
218.4603	0.000471
218.6659	0.000197
218.8714	0.000619
219.0769	0.001231
219.2825	-0.000183
219.4881	0.000745
219.6936	-0.000752
219.8992	0.000450
220.1049	-0.000626
220.3105	-0.000752
220.5161	0.000197
220.7218	0.000007
220.9275	-0.000225
221.1332	0.000492
221.3389	0.000935
221.5446	0.000914
221.7503	-0.001006
221.9561	-0.000626
222.1618	0.000176
222.3676	0.000619
222.5734	0.000070
222.7792	0.001146
222.9850	0.000281
223.1909	0.000028
223.3967	-0.000225
223.6026	-0.001132
223.8085	-0.001280
224.0144	0.000914
224.2203	0.000176
224.4262	-0.000309
224.6322	0.000661
224.8381	-0.000056
225.0441	-0.000520
225.2501	0.001589
225.4561	-0.000541
225.6621	0.000197
225.8681	-0.000774
226.0742	-0.001470
226.2802	-0.001153
226.4863	-0.001153
226.6924	0.000197
226.8985	0.000640
227.1046	-0.000457
227.3107	-0.001470
227.5169	0.000049
227.7230	-0.000563
227.9292	-0.000204
228.1354	0.000408
228.3416	0.000028
228.5478	0.000577
228.7541	-0.000331
228.9603	0.000872
229.1666	0.000091
229.3729	0.000956
229.5791	0.000028
229.7855	0.000218
229.9918	0.000956
230.1981	-0.000141
230.4045	-0.001132
230.6108	0.002560
230.8172	0.000935
231.0236	0.002011
231.2300	-0.000499
231.4364	0.000366
231.6429	0.000070
231.8493	0.000661
232.0558	0.000577
232.2623	0.000830
232.4688	0.000387
232.6753	0.000661
232.8818	0.000809
233.0884	0.001589
233.2949	0.000387
233.5015	0.000366
233.7081	-0.000563
233.9147	0.000956
234.1213	-0.000098
234.3279	-0.000056
234.5346	0.000387
234.7413	0.000872
234.9479	0.000872
235.1546	0.001125
235.3613	0.001146
235.5680	0.000471
235.7748	-0.000478
235.9815	-0.000120
236.1883	0.000450
236.3951	0.000851
236.6018	0.000176
236.8087	0.000513
237.0155	-0.000457
237.2223	0.001927
237.4292	0.000366
237.6360	0.000302
237.8429	-0.001111
238.0498	0.000703
238.2567	-0.000098
238.4636	0.000703
238.6706	0.000640
238.8775	0.000872
239.0845	-0.001702
239.2915	0.000387
239.4985	-0.001406
239.7055	0.001484
239.9125	-0.000478
240.1195	0.000745
240.3266	0.000113
240.5337	0.001378
240.7407	-0.000837
240.9478	0.000429
241.1549	-0.000331
241.3621	0.001399
241.5692	-0.000774
241.7764	0.002581
241.9835	0.001273
242.1907	0.000999
242.3979	0.000682
242.6051	-0.000035
242.8124	0.000028
243.0196	0.000408
243.2269	-0.000204
243.4341	0.000239
243.6414	0.000703
243.8487	-0.001385
244.0560	-0.000014
244.2634	0.000302
244.4707	-0.000774
244.6781	0.000661
244.8854	0.000345
245.0928	0.001020
245.3002	-0.001048
245.5076	0.000197
245.7151	0.000492
245.9225	-0.000120
246.1300	-0.000689
246.3375	0.000260
246.5449	-0.000394
246.7524	0.000556
246.9600	-0.000563
247.1675	-0.000056
247.3750	-0.000647
247.5826	0.000661
247.7902	-0.000478
247.9978	0.001568
248.2054	0.000260
248.4130	0.000387
248.6206	-0.001997
248.8283	-0.000331
249.0359	-0.000626
249.2436	-0.000394
249.4513	0.000766
249.6590	0.000408
249.8667	-0.000710
250.0745	0.000239
250.2822	-0.000373
250.4900	-0.000141
250.6978	-0.000014
250.9056	0.000513
251.1134	-0.000963
251.3212	-0.000120
251.5290	-0.000879
251.7369	-0.000541
251.9447	0.000534
252.1526	0.000682
252.3605	-0.000162
252.5684	0.000323
252.7763	-0.000352
252.9843	-0.000837
253.1922	-0.001449
253.4002	0.000893
253.6082	-0.000668
253.8162	-0.000204
254.0242	0.000176
254.2322	0.000260
254.4402	-0.000098
254.6483	-0.000120
254.8564	0.000556
255.0644	0.000471
255.2725	-0.000204
255.4806	0.000872
255.6888	0.001294
255.8969	-0.000689
256.1051	0.000091
256.3132	0.000745
256.5214	0.001758
256.7296	0.000513
256.9378	-0.000014
257.1460	0.001463
257.3543	-0.000183
257.5625	0.000577
257.7708	-0.000816
257.9791	0.001547
258.1874	-0.000520
258.3957	0.000788
258.6040	-0.000605
258.8124	0.000619
259.0207	0.001020
259.2291	-0.000394
259.4375	-0.000204
259.6459	-0.001069
259.8543	-0.000816
260.0627	0.000260
260.2711	-0.001174
260.4796	0.000429
260.6881	0.000091
260.8965	0.001104
261.1050	0.001631
261.3135	-0.000246
261.5221	-0.000246
261.7306	0.001083
261.9392	0.000007
262.1477	-0.000225
262.3563	-0.000352
262.5649	0.000766
262.7735	0.001231
262.9822	0.000893
263.1908	-0.000225
263.3995	0.000155
263.6081	0.000556
263.8168	0.000218
264.0255	-0.000225
264.2342	0.001505
264.4429	-0.000858
264.6517	0.000345
264.8604	0.001210
265.0692	0.001526
265.2780	0.000323
265.4868	-0.000373
265.6956	-0.001660
265.9044	0.001399
266.1133	-0.001470
266.3221	0.000134
266.5310	-0.000921
266.7399	0.001062
266.9488	0.000366
267.1577	0.000830
267.3666	0.000830
267.5755	0.000513
267.7845	-0.000288
267.9935	-0.000563
268.2024	-0.000056
268.4114	0.000176
268.6205	-0.000858
268.8295	0.001231
269.0385	-0.000626
269.2476	0.001758
269.4566	-0.000520
269.6657	-0.000056
269.8748	-0.000373
270.0839	-0.000014
270.2931	0.000513
270.5022	0.000302
270.7114	-0.001575
270.9205	0.000619
271.1297	-0.000795
271.3389	0.000239
271.5481	0.000556
271.7573	0.000281
271.9666	-0.001027
272.1758	0.000745
272.3851	-0.001364
272.5944	-0.000267
272.8037	0.000070
273.0130	0.001716
273.2223	0.000492
273.4316	-0.000352
273.6410	0.000197
273.8504	-0.000373
274.0597	-0.000689
274.2691	0.000534
274.4785	-0.000183
274.6880	0.000239
274.8974	-0.000963
275.1069	-0.000225
275.3163	0.000366
275.5258	0.001863
275.7353	0.000956
275.9448	0.000366
276.1543	-0.000436
276.3639	0.000134
276.5734	0.001526
276.7830	-0.001027
276.9926	0.000640
277.2022	0.000197
277.4118	0.000091
277.6214	0.000661
277.8310	-0.000605
278.0407	0.000007
278.2503	0.000366
278.4600	-0.000098
278.6697	-0.001512
278.8794	-0.000731
279.0891	0.001547
279.2989	-0.000352
279.5086	-0.000499
279.7184	0.000577
279.9281	-0.000204
280.1379	-0.000478
280.3477	0.000619
280.5576	-0.000014
280.7674	0.000872
280.9772	-0.000331
281.1871	0.000387
281.3970	-0.001533
281.6069	-0.000605
281.8168	0.000197
282.0267	-0.000267
282.2366	0.000028
282.4466	-0.000879
282.6565	-0.000098
282.8665	-0.001301
283.0765	0.000408
283.2865	-0.000605
283.4965	0.000113
283.7065	-0.000605
283.9166	0.000534
284.1266	0.001463
284.3367	0.001315
284.5468	-0.000394
284.7569	0.000809
284.9670	-0.000900
285.1771	0.001906
285.3873	0.000914
285.5974	0.000577
285.8076	-0.000288
286.0178	0.000323
286.2280	0.001083
286.4382	-0.000520
286.6484	0.000197
286.8587	0.001631
287.0689	-0.000942
287.2792	0.000028
287.4895	-0.000774
287.6998	0.000155
287.9101	-0.000225
288.1204	-0.000520
288.3308	-0.000267
288.5411	0.000999
288.7515	-0.000309
288.9619	0.001589
289.1723	0.000513
289.3827	-0.001385
289.5931	0.000471
289.8035	-0.000225
290.0140	-0.001132
290.2245	0.000049
290.4349	0.000113
290.6454	0.000513
290.8559	0.000872
291.0665	-0.000584
291.2770	-0.000415
291.4875	-0.000098
291.6981	0.000598
291.9087	-0.000520
292.1193	-0.001364
292.3299	0.000640
292.5405	-0.000309
292.7511	-0.000499
292.9618	-0.000183
293.1724	0.000999
293.3831	0.001146
293.5938	-0.000394
293.8045	-0.001217
294.0152	0.000323
294.2260	-0.000225
294.4367	-0.000415
294.6475	-0.000035
294.8582	-0.000647
295.0690	0.000028
295.2798	0.000661
295.4906	-0.001069
295.7015	0.001041
295.9123	0.000914
296.1232	0.000345
296.3340	0.000049
296.5449	-0.000098
296.7558	0.001020
296.9667	-0.000056
297.1777	0.000070
297.3886	0.000661
297.5995	-0.000436
297.8105	0.000091
298.0215	0.000134
298.2325	0.000302
298.4435	-0.000731
298.6545	-0.000541
298.8656	0.000450
299.0766	-0.001470
299.2877	-0.000204
299.4988	0.000893
299.7099	0.000935
299.9210	0.001020
300.1321	-0.000373
300.3432	-0.000204
300.5544	-0.001217
300.7655	-0.000499
300.9767	-0.000520
301.1879	0.001104
301.3991	-0.000774
301.6103	-0.000647
301.8215	0.000513
302.0328	-0.000541
302.2441	0.000028
302.4553	0.000323
302.6666	0.000302
302.8779	-0.000056
303.0892	-0.000288
303.3006	-0.000689
303.5119	0.000408
303.7233	-0.000309
303.9346	-0.001111
304.1460	-0.000499
304.3574	0.001336
304.5688	0.000260
304.7803	0.000091
304.9917	0.001336
305.2031	-0.000098
305.4146	-0.000668
305.6261	-0.000689
305.8376	-0.000204
306.0491	-0.001849
306.2606	0.000218
306.4722	0.000450
306.6837	0.001020
306.8953	0.001125
307.1069	0.000893
307.3184	-0.000436
307.5301	0.000492
307.7417	0.000429
307.9533	-0.000035
308.1650	0.001505
308.3766	0.000872
308.5883	0.000682
308.8000	0.000471
309.0117	0.000788
309.2234	0.001252
309.4351	0.000091
309.6469	0.000830
309.8586	-0.002503
310.0704	0.000788
310.2822	-0.000183
310.4940	0.000914
310.7058	-0.000478
310.9176	-0.000584
311.1295	-0.000309
311.3413	0.000176
311.5532	-0.000267
311.7651	-0.001807
311.9770	0.000956
312.1889	0.001378
312.4008	0.000366
312.6127	0.001948
312.8247	0.000788
313.0366	0.000239
313.2486	-0.000921
313.4606	0.000745
313.6726	-0.001006
313.8846	0.000366
314.0967	0.000007
314.3087	0.001463
314.5208	-0.000162
314.7328	-0.000563
314.9449	0.000281
315.1570	0.000577
315.3692	-0.001006
315.5813	0.000387
315.7934	0.000302
316.0056	0.000534
316.2177	0.000619
316.4299	-0.000816
316.6421	-0.000541
316.8543	0.000977
317.0666	-0.000752
317.2788	0.000682
317.4911	0.001146
317.7033	0.000429
317.9156	-0.000225
318.1279	0.000366
318.3402	0.001041
318.5525	-0.000120
318.7649	-0.000183
318.9772	-0.000225
319.1896	0.000556
319.4019	0.000049
319.6143	0.000387
319.8267	0.001083
320.0392	-0.001132
320.2516	-0.000541
320.4640	-0.000752
320.6765	0.000260
320.8890	0.000134
321.1014	0.000492
321.3139	0.000387
321.5265	-0.000689
321.7390	-0.001153
321.9515	0.000366
322.1641	0.000260
322.3766	0.000598
322.5892	-0.000288
322.8018	0.000471
323.0144	0.000345
323.2270	-0.000436
323.4397	-0.000225
323.6523	0.001547
323.8650	-0.000056
324.0777	0.000408
324.2904	-0.001217
324.5031	-0.000984
324.7158	0.001589
324.9285	0.000091
325.1412	-0.000309
325.3540	0.000745
325.5668	-0.001090
325.7796	0.000999
325.9924	0.001420
326.2052	0.001125
326.4180	0.000028
326.6308	0.000113
326.8437	-0.000331
327.0566	0.000070
327.2694	-0.000394
327.4823	0.000956
327.6952	0.000534
327.9082	0.000893
328.1211	0.000724
328.3340	0.000028
328.5470	-0.000563
328.7600	0.000830
328.9730	0.000281
329.1860	0.000049
329.3990	0.000534
329.6120	-0.000478
329.8251	0.000197
330.0381	0.000999
330.2512	0.000872
330.4643	0.000176
330.6774	0.000239
330.8905	0.000745
331.1036	-0.000014
331.3167	0.000619
331.5299	0.000091
331.7431	0.000450
331.9562	-0.000731
332.1694	-0.000731
332.3826	-0.000710
332.5959	-0.000288
332.8091	0.000598
333.0223	0.000302
333.2356	0.000091
333.4489	0.000239
333.6622	0.000218
333.8755	0.000577
334.0888	0.000028
334.3021	-0.001027
334.5154	-0.000204
334.7288	0.000492
334.9422	-0.000563
335.1555	-0.000077
335.3689	0.000703
335.5823	0.000450
335.7958	-0.000436
336.0092	-0.000563
336.2227	0.000471
336.4361	0.001041
336.6496	0.000197
336.8631	-0.000541
337.0766	0.000492
337.2901	-0.000331
337.5036	-0.000626
337.7172	-0.000436
337.9307	-0.000288
338.1443	-0.000309
338.3579	-0.000541
338.5715	0.000914
338.7851	-0.001280
338.9987	0.000155
339.2124	-0.000626
339.4260	-0.000098
339.6397	-0.000394
339.8533	-0.000035
340.0670	-0.001259
340.2807	0.001210
340.4945	-0.000373
340.7082	0.000724
340.9219	-0.000752
341.1357	-0.000963
341.3495	0.001104
341.5633	0.000703
341.7771	-0.000900
341.9909	0.000218
342.2047	-0.000373
342.4185	0.001125
342.6324	0.001378
342.8463	0.000049
343.0601	-0.000563
343.2740	0.000577
343.4879	-0.001470
343.7019	0.000956
343.9158	-0.002208
344.1297	-0.000056
344.3437	-0.000014
344.5577	-0.000183
344.7717	-0.000162
344.9857	0.000703
345.1997	-0.000120
345.4137	0.000640
345.6277	-0.000373
345.8418	-0.000309
346.0559	-0.000183
346.2699	0.000956
346.4840	0.000049
346.6981	-0.000309
346.9123	0.000745
347.1264	-0.000267
347.3406	0.000197
347.5547	-0.000204
347.7689	-0.000478
347.9831	0.001695
348.1973	0.000408
348.4115	0.000028
348.6257	-0.000352
348.8400	0.000788
349.0542	-0.000436
349.2685	0.001188
349.4828	0.000577
349.6971	0.001378
349.9114	-0.000647
350.1257	0.000977
350.3400	0.000155
350.5544	-0.000056
350.7687	0.001294
350.9831	0.000745
351.1975	-0.000879
351.4119	0.001231
351.6263	-0.000541
351.8407	0.000323
352.0552	-0.000077
352.2696	0.001948
352.4841	0.000113
352.6986	0.000450
352.9131	0.000703
353.1276	0.000366
353.3421	-0.000816
353.5566	0.001252
353.7712	-0.000120
353.9858	0.000218
354.2003	-0.000056
354.4149	0.000703
354.6295	0.000619
354.8441	-0.000225
355.0588	0.000598
355.2734	0.000788
355.4881	-0.001048
355.7027	0.000408
355.9174	0.000049
356.1321	0.000028
356.3468	-0.000373
356.5615	0.000007
356.7763	0.000450
356.9910	-0.000436
357.2058	0.001041
357.4206	0.000408
357.6353	0.000450
357.8501	-0.000858
358.0650	-0.000373
358.2798	0.000640
358.4946	0.001336
358.7095	0.000534
358.9243	-0.000141
359.1392	0.001779
359.3541	0.000619
359.5690	0.000408
359.7839	-0.000267
359.9989	0.000766
360.2138	0.001146
360.4288	0.000492
360.6438	0.000134
360.8587	0.000492
361.0737	0.000007
361.2888	-0.001660
361.5038	-0.001449
361.7188	0.000977
361.9339	-0.000141
362.1489	0.000682
362.3640	0.000598
362.5791	0.000766
362.7942	-0.000436
363.0093	-0.000457
363.2245	0.000577
363.4396	-0.000056
363.6548	0.000028
363.8699	-0.000837
364.0851	-0.000373
364.3003	0.000977
364.5155	-0.000541
364.7308	-0.000162
364.9460	0.001294
365.1612	0.001315
365.3765	-0.000352
365.5918	-0.000267
365.8071	-0.000056
366.0224	-0.000352
366.2377	-0.000204
366.4530	0.000218
366.6684	-0.000246
366.8837	0.000745
367.0991	0.000492
367.3145	0.001231
367.5299	-0.000309
367.7453	0.001526
367.9607	0.000176
368.1761	-0.000246
368.3916	-0.000183
368.6070	-0.000309
368.8225	0.000577
369.0380	-0.000141
369.2535	0.000218
369.4690	0.000745
369.6845	0.000492
369.9001	0.001863
370.1156	-0.000225
370.3312	0.001188
370.5468	0.000070
370.7624	0.001252
370.9780	0.000176
371.1936	-0.001048
371.4092	0.000429
371.6249	0.001188
371.8405	-0.000288
372.0562	-0.000710
372.2719	0.000766
372.4876	0.001315
372.7033	-0.000563
372.9190	0.000724
373.1348	0.000872
373.3505	0.000492
373.5663	0.001210
373.7820	0.000345
373.9978	-0.000984
374.2136	-0.000816
374.4294	0.000345
374.6453	-0.000183
374.8611	0.000534
375.0770	0.000007
375.2928	0.000661
375.5087	0.000049
375.7246	-0.000858
375.9405	0.000007
376.1564	-0.000035
376.3724	-0.000183
376.5883	0.000387
376.8043	-0.000879
377.0203	-0.000541
377.2362	0.000661
377.4522	0.000049
377.6682	0.001083
377.8843	-0.000520
378.1003	0.001146
378.3164	0.000872
378.5324	0.000429
378.7485	0.000323
378.9646	-0.000246
379.1807	0.000155
379.3968	0.000028
379.6129	0.000556
379.8291	0.000176
380.0452	0.000766
380.2614	0.000260
380.4776	-0.000963
380.6938	0.000239
380.9100	0.000323
381.1262	0.000745
381.3424	0.000197
381.5587	-0.000373
381.7749	-0.000858
381.9912	0.000281
382.2075	-0.001238
382.4238	0.001357
382.6401	0.000049
382.8564	-0.000689
383.0728	0.000091
383.2891	0.001357
383.5055	-0.000710
383.7219	0.000239
383.9382	0.000682
384.1546	0.000197
384.3711	0.000218
384.5875	0.001041
384.8039	0.001294
385.0204	-0.000141
385.2368	0.001505
385.4533	0.000809
385.6698	0.000619
385.8863	-0.000120
386.1028	-0.000267
386.3194	0.000788
386.5359	-0.000120
386.7525	0.000450
386.9690	0.001948
387.1856	0.001252
387.4022	0.000323
387.6188	0.001294
387.8355	0.001800
388.0521	0.002117
388.2687	0.001758
388.4854	0.001800
388.7021	0.000788
388.9188	0.002686
389.1355	0.001674
389.3522	0.001420
389.5689	0.002517
389.7856	0.003446
390.0024	0.001779
390.2192	0.002180
390.4359	0.002876
390.6527	0.002686
390.8695	0.003488
391.0863	0.002855
391.3032	0.003214
391.5200	0.003045
391.7369	0.003150
391.9537	0.004437
392.1706	0.004543
392.3875	0.004479
392.6044	0.005640
392.8213	0.006251
393.0383	0.005007
393.2552	0.005302
393.4722	0.006779
393.6891	0.005935
393.9061	0.005007
394.1231	0.007137
394.3401	0.007517
394.5572	0.006104
394.7742	0.007897
394.9912	0.007665
395.2083	0.007137
395.4254	0.006779
395.6425	0.008867
395.8596	0.008530
396.0767	0.008593
396.2938	0.009648
396.5109	0.009606
396.7281	0.009753
396.9453	0.009542
397.1624	0.010386
397.3796	0.010977
397.5968	0.011399
397.8140	0.011504
398.0313	0.014416
398.2485	0.011863
398.4658	0.013741
398.6830	0.014205
398.9003	0.015639
399.1176	0.012369
399.3349	0.013614
399.5522	0.011568
399.7696	0.013445
399.9869	0.013508
400.2043	0.014078
400.4216	0.014015
400.6390	0.013762
400.8564	0.013361
401.0738	0.015259
401.2912	0.013783
401.5087	0.014985
401.7261	0.014605
401.9436	0.016694
402.1610	0.015829
402.3785	0.016230
402.5960	0.016356
402.8135	0.017981
403.0310	0.016525
403.2486	0.015745
403.4661	0.017306
403.6837	0.018846
403.9013	0.018318
404.1189	0.018213
404.3365	0.016567
404.5541	0.018002
404.7717	0.015829
404.9893	0.017918
405.2070	0.017432
405.4246	0.021989
405.6423	0.019690
405.8600	0.019331
406.0777	0.020112
406.2954	0.020196
406.5131	0.017770
406.7309	0.019922
406.9486	0.019015
407.1664	0.018276
407.3842	0.018719
407.6020	0.017728
407.8198	0.020976
408.0376	0.019289
408.2554	0.019099
408.4733	0.020238
408.6911	0.021251
408.9090	0.019331
409.1269	0.020090
409.3448	0.022010
409.5627	0.020702
409.7806	0.020470
409.9985	0.021609
410.2165	0.021293
410.4344	0.022453
410.6524	0.020090
410.8704	0.020112
411.0884	0.020955
411.3064	0.020027
411.5244	0.021124
411.7424	0.020976
411.9605	0.020322
412.1785	0.023086
412.3966	0.023782
412.6147	0.022833
412.8328	0.023360
413.0509	0.023403
413.2690	0.024394
413.4871	0.025850
413.7053	0.022622
413.9234	0.023192
414.1416	0.022938
414.3598	0.022390
414.5780	0.021124
414.7962	0.023170
415.0144	0.022854
415.2326	0.022791
415.4509	0.023002
415.6692	0.022516
415.8874	0.022031
416.1057	0.022959
416.3240	0.022559
416.5423	0.022981
416.7606	0.023846
416.9790	0.023128
417.1973	0.023107
417.4157	0.023381
417.6341	0.024521
417.8524	0.023445
418.0708	0.023403
418.2893	0.023339
418.5077	0.025069
418.7261	0.024542
418.9446	0.023824
419.1630	0.023613
419.3815	0.024542
419.6000	0.024289
419.8185	0.023972
420.0370	0.024183
420.2555	0.025491
420.4741	0.026883
420.6926	0.026250
420.9112	0.027622
421.1298	0.026293
421.3483	0.028930
421.5669	0.028529
421.7856	0.028339
422.0042	0.029288
422.2228	0.029246
422.4415	0.028571
422.6601	0.028655
422.8788	0.027854
423.0975	0.027769
423.3162	0.027580
423.5349	0.027558
423.7536	0.026461
423.9724	0.027790
424.1911	0.025786
424.4099	0.026504
424.6287	0.027411
424.8475	0.025512
425.0663	0.026672
425.2851	0.027537
425.5039	0.027115
425.7228	0.026356
425.9416	0.026293
426.1605	0.023782
426.3793	0.025259
426.5982	0.023993
426.8171	0.024204
427.0361	0.023213
427.2550	0.024478
427.4739	0.025111
427.6929	0.026883
427.9118	0.026018
428.1308	0.024394
428.3498	0.024900
428.5688	0.024373
428.7878	0.024985
429.0068	0.023698
429.2259	0.024584
429.4449	0.026546
429.6640	0.027833
429.8831	0.028318
430.1022	0.030491
430.3213	0.028529
430.5404	0.027622
430.7595	0.028909
430.9787	0.027938
431.1978	0.027411
431.4170	0.028276
431.6362	0.025554
431.8553	0.024668
432.0745	0.024014
432.2938	0.023888
432.5130	0.021820
432.7322	0.021567
432.9515	0.023297
433.1707	0.022453
433.3900	0.023824
433.6093	0.027390
433.8286	0.029668
434.0479	0.028761
434.2673	0.026377
434.4866	0.027516
434.7059	0.023128
434.9253	0.023613
435.1447	0.023255
435.3641	0.023529
435.5835	0.026546
435.8029	0.025196
436.0223	0.023065
436.2418	0.025428
436.4612	0.024542
436.6807	0.024837
436.9001	0.023613
437.1196	0.026314
437.3391	0.024352
437.5586	0.023445
437.7782	0.023487
437.9977	0.024668
438.2173	0.024605
438.4368	0.024964
438.6564	0.023824
438.8760	0.025111
439.0956	0.024499
439.3152	0.026377
439.5348	0.022706
439.7545	0.024014
439.9741	0.024204
440.1938	0.023255
440.4135	0.023360
440.6331	0.024352
440.8528	0.024753
441.0725	0.026145
441.2923	0.028634
441.5120	0.030259
441.7318	0.029963
441.9515	0.027727
442.1713	0.027558
442.3911	0.029373
442.6109	0.026841
442.8307	0.027790
443.0505	0.026693
443.2703	0.027558
443.4902	0.026968
443.7101	0.026693
443.9299	0.027643
444.1498	0.027748
444.3697	0.026377
444.5896	0.026672
444.8095	0.026356
445.0295	0.024964
445.2494	0.025596
445.4694	0.026525
445.6894	0.024584
445.9093	0.024964
446.1293	0.026440
446.3493	0.023529
446.5694	0.024837
446.7894	0.024436
447.0094	0.024542
447.2295	0.024753
447.4496	0.026208
447.6696	0.023318
447.8897	0.022137
448.1098	0.021504
448.3300	0.023698
448.5501	0.022474
448.7702	0.024921
448.9904	0.022474
449.2106	0.021588
449.4307	0.023149
449.6509	0.022622
449.8711	0.023888
450.0914	0.021799
450.3116	0.023107
450.5318	0.021609
450.7521	0.020850
450.9724	0.021567
451.1926	0.019795
451.4129	0.021483
451.6332	0.018382
451.8535	0.021419
452.0739	0.020196
452.2942	0.019837
452.5146	0.020365
452.7349	0.019985
452.9553	0.020280
453.1757	0.019268
453.3961	0.019500
453.6165	0.018086
453.8369	0.019774
454.0574	0.018339
454.2778	0.017707
454.4983	0.017074
454.7188	0.017137
454.9393	0.016968
455.1597	0.016736
455.3803	0.019057
455.6008	0.018529
455.8213	0.015871
456.0419	0.016736
456.2624	0.015829
456.4830	0.016588
456.7036	0.016082
456.9242	0.014774
457.1448	0.018635
457.3654	0.017158
457.5860	0.017517
457.8067	0.018297
458.0274	0.016230
458.2480	0.017749
458.4687	0.016061
458.6894	0.018129
458.9101	0.017390
459.1308	0.016504
459.3516	0.015871
459.5723	0.017285
459.7931	0.018192
460.0138	0.017453
460.2346	0.016736
460.4554	0.016842
460.6762	0.016314
460.8970	0.014479
461.1178	0.015259
461.3387	0.014373
461.5595	0.016082
461.7804	0.015977
462.0013	0.015048
462.2222	0.015112
462.4431	0.012116
462.6640	0.013825
462.8849	0.013909
463.1059	0.013319
463.3268	0.015217
463.5478	0.013994
463.7687	0.012622
463.9897	0.013087
464.2107	0.014268
464.4317	0.013994
464.6528	0.014416
464.8738	0.014036
465.0948	0.014795
465.3159	0.012496
465.5370	0.015935
465.7581	0.015956
465.9792	0.015407
466.2003	0.013023
466.4214	0.013930
466.6425	0.012137
466.8637	0.012285
467.0848	0.012158
467.3060	0.011019
467.5272	0.011125
467.7484	0.010534
467.9696	0.010661
468.1908	0.011462
468.4120	0.010766
468.6333	0.010028
468.8545	0.010450
469.0758	0.009184
469.2970	0.010956
469.5183	0.010850
469.7396	0.010323
469.9610	0.008382
470.1823	0.007876
470.4036	0.007897
470.6250	0.007391
470.8463	0.009437
471.0677	0.007813
471.2891	0.009922
471.5105	0.007707
471.7319	0.007770
471.9533	0.008066
472.1748	0.009374
472.3962	0.007559
472.6177	0.009479
472.8391	0.008024
473.0606	0.008551
473.2821	0.007454
473.5036	0.008298
473.7251	0.006927
473.9467	0.008572
474.1682	0.007475
474.3898	0.007180
474.6113	0.008340
474.8329	0.007391
475.0545	0.007770
475.2761	0.008256
475.4977	0.007201
475.7193	0.006758
475.9410	0.007074
476.1626	0.008952
476.3843	0.007897
476.6060	0.009057
476.8277	0.008424
477.0494	0.006969
477.2711	0.006526
477.4928	0.007580
477.7145	0.006251
477.9363	0.007538
478.1580	0.007095
478.3798	0.008488
478.6016	0.006336
478.8234	0.008572
479.0452	0.006251
479.2670	0.006800
479.4888	0.006610
479.7107	0.006610
479.9325	0.006694
480.1544	0.007665
480.3763	0.006505
480.5982	0.006378
480.8201	0.005808
481.0420	0.006167
481.2639	0.006673
481.4859	0.006019
481.7078	0.005787
481.9298	0.008656
482.1517	0.005787
482.3737	0.005619
482.5957	0.005176
482.8177	0.004880
483.0398	0.005851
483.2618	0.005471
483.4838	0.005387
483.7059	0.005787
483.9280	0.004859
484.1501	0.004817
484.3721	0.005302
484.5943	0.008319
484.8164	0.006462
485.0385	0.007749
485.2606	0.005745
485.4828	0.007960
485.7050	0.013108
485.9271	0.017137
486.1493	0.019985
486.3715	0.014711
486.5937	0.010914
486.8160	0.009669
487.0382	0.010618
487.2605	0.007876
487.4827	0.006737
487.7050	0.005851
487.9273	0.004943
488.1496	0.004543
488.3719	0.004353
488.5942	0.004711
488.8165	0.004606
489.0389	0.005344
489.2612	0.003741
489.4836	0.004859
489.7060	0.004290
489.9284	0.005112
490.1508	0.005091
490.3732	0.004669
490.5956	0.005112
490.8180	0.003129
491.0405	0.004606
491.2630	0.002623
491.4854	0.003425
491.7079	0.004922
491.9304	0.003087
492.1529	0.004585
492.3755	0.002771
492.5980	0.002222
492.8205	0.002960
493.0431	0.004648
493.2657	0.002771
493.4882	0.004943
493.7108	0.003087
493.9334	0.002623
494.1561	0.001885
494.3787	0.003889
494.6013	0.004036
494.8240	0.004121
495.0466	0.004564
495.2693	0.004247
495.4920	0.003741
495.7147	0.004079
495.9374	0.002306
496.1601	0.004711
496.3829	0.005281
496.6056	0.003045
496.8284	0.002328
497.0511	0.004015
497.2739	0.003340
497.4967	0.004606
497.7195	0.003530
497.9423	0.003403
498.1652	0.001885
498.3880	0.003678
498.6109	0.003150
498.8337	0.003235
499.0566	0.003087
499.2795	0.003741
499.5024	0.005091
499.7253	0.004754
499.9482	0.002306
500.1712	0.002602
500.3941	0.003214
500.6171	0.003699
500.8400	0.002159
501.0630	0.004669
501.2860	0.002707
501.5090	0.001737
501.7320	0.001779
501.9551	0.002897
502.1781	0.002560
502.4012	0.003783
502.6242	0.004627
502.8473	0.002982
503.0704	0.003150
503.2935	0.002623
503.5166	0.002560
503.7397	0.003868
503.9628	0.002623
504.1860	0.002328
504.4092	0.003699
504.6323	0.003636
504.8555	0.002644
505.0787	0.003361
505.3019	0.000956
505.5251	0.003994
505.7483	0.002306
505.9716	0.002306
506.1948	0.001906
506.4181	0.002792
506.6414	0.002686
506.8647	0.003425
507.0880	0.003256
507.3113	0.002960
507.5346	0.003340
507.7579	0.002539
507.9813	0.002771
508.2046	0.002623
508.4280	0.002454
508.6514	0.002581
508.8748	0.001906
509.0982	0.003024
509.3216	0.003235
509.5450	0.003551
509.7685	0.002349
509.9919	0.002560
510.2154	0.001990
510.4388	0.002665
510.6623	0.001758
510.8858	0.001210
511.1093	0.003150
511.3329	0.001990
511.5564	0.002074
511.7799	0.002813
512.0035	0.002391
512.2270	0.003319
512.4506	0.002391
512.6742	0.003741
512.8978	0.001948
513.1214	0.003973
513.3451	0.002391
513.5687	0.002792
513.7923	0.002391
514.0160	0.003150
514.2397	0.002982
514.4634	0.001842
514.6871	0.003446
514.9108	0.003108
515.1345	0.002412
515.3582	0.001800
515.5819	0.003003
515.8057	0.004395
516.0295	0.002644
516.2532	0.002032
516.4770	0.000914
516.7008	0.002792
516.9246	0.002602
517.1485	0.002813
517.3723	0.002243
517.5961	0.003425
517.8200	0.001399
518.0439	0.002222
518.2677	0.003593
518.4916	0.003382
518.7155	0.002222
518.9395	0.001906
519.1634	0.001125
519.3873	0.001969
519.6113	0.002096
519.8352	0.003425
520.0592	0.002096
520.2832	0.002834
520.5072	0.002117
520.7312	0.001716
520.9552	0.001463
521.1792	0.001737
521.4033	0.003024
521.6273	0.002960
521.8514	0.002876
522.0755	0.000977
522.2996	0.002475
522.5237	0.001737
522.7478	0.003193
522.9719	0.002813
523.1960	0.002222
523.4202	0.002433
523.6443	0.003361
523.8685	0.003657
524.0927	0.003509
524.3169	0.004943
524.5411	0.004268
524.7653	0.003636
524.9895	0.002918
525.2138	0.002560
525.4380	0.002138
525.6623	0.002011
525.8865	0.002138
526.1108	0.003382
526.3351	0.003720
526.5594	0.003129
526.7837	0.003825
527.0081	0.003910
527.2324	0.003361
527.4568	0.002855
527.6811	0.002644
527.9055	0.003319
528.1299	0.004395
528.3543	0.002855
528.5787	0.003446
528.8031	0.003319
529.0276	0.003657
529.2520	0.004901
529.4765	0.004859
529.7009	0.004226
529.9254	0.004543
530.1499	0.003277
530.3744	0.003614
530.5989	0.002096
530.8234	0.005534
531.0480	0.004015
531.2725	0.003868
531.4971	0.004669
531.7217	0.004775
531.9462	0.003657
532.1708	0.005281
532.3954	0.004205
532.6200	0.004543
532.8447	0.004880
533.0693	0.006505
533.2940	0.005281
533.5186	0.005471
533.7433	0.006062
533.9680	0.005028
534.1927	0.007960
534.4174	0.006146
534.6421	0.005028
534.8668	0.006315
535.0916	0.005239
535.3163	0.007116
535.5411	0.003847
535.7659	0.007032
535.9907	0.006378
536.2155	0.007011
536.4403	0.005682
536.6651	0.006484
536.8899	0.005851
537.1148	0.007981
537.3396	0.006863
537.5645	0.006146
537.7894	0.006694
538.0143	0.007538
538.2392	0.008129
538.4641	0.007602
538.6890	0.009142
538.9139	0.007834
539.1389	0.008931
539.3638	0.009753
539.5888	0.007918
539.8138	0.008213
540.0388	0.007960
540.2638	0.008888
540.4888	0.009542
540.7138	0.009774
540.9389	0.010893
541.1639	0.010787
541.3890	0.010555
541.6140	0.011610
541.8391	0.011504
542.0642	0.010407
542.2893	0.010407
542.5144	0.011125
542.7396	0.012032
542.9647	0.011336
543.1899	0.010618
543.4150	0.010787
543.6402	0.010935
543.8654	0.010555
544.0906	0.011715
544.3158	0.012348
544.5410	0.012264
544.7662	0.011230
544.9915	0.012601
545.2167	0.013255
545.4420	0.012285
545.6673	0.012580
545.8926	0.011441
546.1179	0.013466
546.3432	0.012622
546.5685	0.012517
546.7938	0.013698
547.0192	0.014838
547.2445	0.014036
547.4699	0.014373
547.6953	0.014901
547.9206	0.016736
548.1460	0.016314
548.3715	0.016842
548.5969	0.016778
548.8223	0.017918
549.0478	0.016441
549.2732	0.016504
549.4987	0.017981
549.7242	0.015386
549.9496	0.015576
550.1751	0.016736
550.4007	0.015829
550.6262	0.017432
550.8517	0.018255
551.0773	0.016588
551.3028	0.014880
551.5284	0.014922
551.7540	0.017475
551.9796	0.017601
552.2052	0.019626
552.4308	0.019078
552.6564	0.018972
552.8820	0.019141
553.1077	0.020090
553.3333	0.020829
553.5590	0.020090
553.7847	0.020470
554.0104	0.019795
554.2361	0.020322
554.4618	0.018951
554.6875	0.021230
554.9132	0.021483
555.1390	0.021673
555.3648	0.021947
555.5905	0.021862
555.8163	0.022010
556.0421	0.021862
556.2679	0.024183
556.4937	0.024014
556.7195	0.022875
556.9454	0.022559
557.1712	0.021230
557.3971	0.022073
557.6230	0.022812
557.8488	0.023192
558.0747	0.023234
558.3006	0.023782
558.5266	0.022116
558.7525	0.022896
558.9784	0.022348
559.2044	0.023782
559.4303	0.023107
559.6563	0.022179
559.8823	0.023170
560.1083	0.024689
560.3343	0.026208
560.5603	0.027073
560.7863	0.028191
561.0124	0.031503
561.2384	0.029584
561.4645	0.030955
561.6905	0.030765
561.9166	0.030934
562.1427	0.031820
562.3688	0.030069
562.5949	0.028993
562.8211	0.028276
563.0472	0.030470
563.2733	0.029921
563.4995	0.028655
563.7257	0.032368
563.9519	0.030934
564.1781	0.035174
564.4043	0.032263
564.6305	0.035427
564.8567	0.033107
565.0829	0.034372
565.3092	0.037832
565.5355	0.035469
565.7617	0.033022
565.9880	0.034963
566.2143	0.032875
566.4406	0.036166
566.6669	0.034731
566.8932	0.037748
567.1196	0.036609
567.3459	0.044393
567.5723	0.048043
567.7987	0.049583
568.0250	0.048739
568.2514	0.049119
568.4778	0.053021
568.7043	0.053274
568.9307	0.058148
569.1571	0.063422
569.3836	0.066881
569.6100	0.073442
569.8365	0.080699
570.0630	0.085910
570.2895	0.087893
570.5160	0.088695
570.7425	0.089074
570.9690	0.097028
571.1956	0.105044
571.4221	0.107133
571.6487	0.109390
571.8752	0.109812
572.1018	0.119790
572.3284	0.117069
572.5550	0.110276
572.7816	0.104538
573.0082	0.102681
573.2349	0.107428
573.4615	0.120086
573.6882	0.128039
573.9149	0.132701
574.1415	0.134578
574.3682	0.142489
574.5949	0.149240
574.8216	0.149008
575.0484	0.150232
575.2751	0.151772
575.5018	0.147996
575.7286	0.143987
575.9554	0.135549
576.1821	0.135464
576.4089	0.138418
576.6357	0.148354
576.8626	0.156750
577.0894	0.156497
577.3162	0.159725
577.5431	0.166855
577.7699	0.187340
577.9968	0.214321
578.2237	0.205461
578.4505	0.193078
578.6774	0.183753
578.9044	0.168311
579.1313	0.164387
579.3582	0.161455
579.5851	0.172615
579.8121	0.174049
580.0391	0.172973
580.2660	0.178416
580.4930	0.173564
580.7200	0.174513
580.9470	0.173923
581.1741	0.204849
581.4011	0.252843
581.6281	0.277272
581.8552	0.273327
582.0822	0.272884
582.3093	0.260290
582.5364	0.241788
582.7635	0.221979
582.9906	0.205609
583.2177	0.189723
583.4449	0.171771
583.6720	0.162151
583.8991	0.158396
584.1263	0.162024
584.3535	0.163965
584.5807	0.163986
584.8079	0.178479
585.0351	0.192213
585.2623	0.197445
585.4895	0.199174
585.7167	0.197381
585.9440	0.198753
586.1713	0.184618
586.3985	0.172530
586.6258	0.166286
586.8531	0.171117
587.0804	0.181285
587.3077	0.186854
587.5350	0.193036
587.7624	0.192192
587.9897	0.184618
588.2171	0.176686
588.4445	0.171771
588.6718	0.165716
588.8992	0.161307
589.1266	0.148966
589.3540	0.139810
589.5815	0.137426
589.8089	0.140148
590.0363	0.135000
590.2638	0.132722
590.4913	0.127575
590.7187	0.122322
590.9462	0.117723
591.1737	0.112196
591.4012	0.107470
591.6288	0.110445
591.8563	0.110888
592.0838	0.108715
592.3114	0.115318
592.5389	0.131435
592.7665	0.156096
592.9941	0.171096
593.2217	0.174492
593.4493	0.170948
593.6769	0.171328
593.9046	0.165147
594.1322	0.156624
594.3598	0.145274
594.5875	0.143882
594.8152	0.152405
595.0429	0.164957
595.2705	0.166012
595.4983	0.164725
595.7260	0.158206
595.9537	0.148059
596.1814	0.137827
596.4092	0.130127
596.6369	0.124326
596.8647	0.119875
597.0925	0.121794
597.3203	0.123060
597.5481	0.130401
597.7759	0.128123
598.0037	0.118841
598.2315	0.115550
598.4594	0.116394
598.6872	0.133017
598.9151	0.151730
599.1430	0.158522
599.3709	0.158586
599.5988	0.146160
599.8267	0.152848
600.0546	0.156603
600.2825	0.156476
600.5105	0.153776
600.7384	0.152742
600.9664	0.155696
601.1944	0.163375
601.4223	0.156350
601.6503	0.147763
601.8783	0.143650
602.1064	0.140063
602.3344	0.140063
602.5624	0.139789
602.7905	0.145316
603.0185	0.146856
603.2466	0.153523
603.4747	0.160273
603.7028	0.160674
603.9309	0.155590
604.1590	0.148671
604.3871	0.140295
604.6152	0.137005
604.8434	0.133840
605.0715	0.128629
605.2997	0.132237
605.5279	0.138819
605.7561	0.143333
605.9843	0.144451
606.2125	0.142468
606.4407	0.140127
606.6689	0.130233
606.8972	0.127469
607.1254	0.130169
607.3537	0.132342
607.5819	0.135654
607.8102	0.135043
608.0385	0.130001
608.2668	0.122596
608.4951	0.122554
608.7235	0.125866
608.9518	0.119410
609.1801	0.116267
609.4085	0.111162
609.6369	0.108609
609.8653	0.118145
610.0936	0.127406
610.3220	0.130127
610.5505	0.122723
610.7789	0.122448
611.0073	0.118018
611.2357	0.116436
611.4642	0.113841
611.6927	0.116267
611.9211	0.118335
612.1496	0.114390
612.3781	0.108799
612.6066	0.106436
612.8351	0.107280
613.0637	0.109748
613.2922	0.107407
613.5208	0.103989
613.7493	0.110424
613.9779	0.105550
614.2065	0.108483
614.4351	0.108145
614.6637	0.106901
614.8923	0.106711
615.1209	0.107470
615.3495	0.107913
615.5782	0.109727
615.8068	0.111774
616.0355	0.106036
616.2642	0.101964
616.4929	0.094728
616.7216	0.095952
616.9503	0.095256
617.1790	0.092429
617.4077	0.092175
617.6365	0.090762
617.8652	0.090762
618.0940	0.093399
618.3227	0.090340
618.5515	0.087724
618.7803	0.080931
619.0091	0.076248
619.2379	0.074856
619.4667	0.076143
619.6956	0.077092
619.9244	0.079223
620.1533	0.080298
620.3821	0.082113
620.6110	0.081290
620.8399	0.074033
621.0688	0.065637
621.2977	0.062599
621.5266	0.062177
621.7556	0.064139
621.9845	0.066966
622.2135	0.071459
622.4424	0.071501
622.6714	0.071733
622.9004	0.071944
623.1294	0.074012
623.3584	0.074792
623.5874	0.077767
623.8164	0.073801
624.0454	0.073147
624.2745	0.073252
624.5035	0.074518
624.7326	0.078780
624.9617	0.077450
625.1908	0.074223
625.4199	0.071248
625.6490	0.067156
625.8781	0.066818
626.1072	0.065215
626.3364	0.064730
626.5655	0.061396
626.7947	0.058548
627.0238	0.058274
627.2530	0.060468
627.4822	0.061924
627.7114	0.058633
627.9406	0.058295
628.1698	0.056987
628.3991	0.052431
628.6283	0.049435
628.8576	0.048992
629.0868	0.052452
629.3161	0.053127
629.5454	0.054540
629.7747	0.054160
630.0040	0.053106
630.2333	0.050110
630.4626	0.050448
630.6920	0.047536
630.9213	0.048380
631.1507	0.046861
631.3801	0.042980
631.6094	0.045870
631.8388	0.046292
632.0682	0.045047
632.2976	0.045047
632.5271	0.042537
632.7565	0.039119
632.9859	0.037642
633.2154	0.035638
633.4448	0.037853
633.6743	0.038064
633.9038	0.036461
634.1333	0.038149
634.3628	0.035891
634.5923	0.034858
634.8218	0.034837
635.0514	0.032558
635.2809	0.032136
635.5105	0.034415
635.7400	0.034119
635.9696	0.035596
636.1992	0.034879
636.4288	0.038507
636.6584	0.040005
636.8880	0.035786
637.1177	0.037284
637.3473	0.036377
637.5770	0.032959
637.8066	0.035575
638.0363	0.035934
638.2660	0.036419
638.4957	0.035976
638.7254	0.036524
638.9551	0.034626
639.1848	0.035343
639.4145	0.033275
639.6443	0.033960
639.8740	0.032641
640.1038	0.031492
640.3336	0.032026
640.5633	0.031459
640.7931	0.033670
641.0229	0.030007
641.2528	0.029123
641.4826	0.027755
641.7124	0.027506
641.9423	0.028459
642.1721	0.027062
642.4020	0.024865
642.6319	0.026222
642.8617	0.025232
643.0916	0.023104
643.3216	0.024002
643.5515	0.024527
643.7814	0.024449
644.0113	0.024523
644.2413	0.022016
644.4712	0.024419
644.7012	0.020372
644.9312	0.023278
645.1612	0.024642
645.3912	0.022344
645.6212	0.022732
645.8512	0.022778
646.0812	0.021456
646.3113	0.022061
646.5413	0.020375
646.7714	0.019307
647.0015	0.020651
647.2316	0.020540
647.4616	0.020525
647.6918	0.022541
647.9219	0.021569
648.1520	0.024563
648.3821	0.027346
648.6123	0.026325
648.8424	0.029868
649.0726	0.028606
649.3028	0.028111
649.5329	0.028709
649.7631	0.028074
649.9933	0.027674
650.2236	0.026734
650.4538	0.025450
650.6840	0.024934
650.9143	0.024597
651.1445	0.022782
651.3748	0.022711
651.6051	0.023949
651.8354	0.024945
652.0657	0.023570
652.2960	0.027873
652.5263	0.025663
652.7566	0.027546
652.9870	0.026544
653.2173	0.028123
653.4477	0.028440
653.6780	0.028271
653.9084	0.026972
654.1388	0.028867
654.3692	0.028811
654.5996	0.030652
654.8300	0.034309
655.0605	0.048212
655.2909	0.131909
655.5213	0.402132
655.7518	0.802785
655.9823	1.000000
656.2128	1.000000
656.4433	1.000000
656.6738	1.000000
656.9043	0.920665
657.1348	0.735932
657.3653	0.598405
657.5959	0.509017
657.8264	0.442375
658.0570	0.403940
658.2875	0.372080
658.5181	0.330671
658.7487	0.316812
658.9793	0.293141
659.2099	0.240054
659.4406	0.166984
659.6712	0.105379
659.9018	0.058704
660.1325	0.038497
660.3632	0.028728
660.5938	0.023247
660.8245	0.021542
661.0552	0.021289
661.2859	0.019754
661.5166	0.020507
661.7474	0.016648
661.9781	0.018478
662.2088	0.018132
662.4396	0.019086
662.6704	0.019019
662.9011	0.018920
663.1319	0.017952
663.3627	0.017607
663.5935	0.020239
663.8243	0.017306
664.0552	0.018885
664.2860	0.018723
664.5168	0.017082
664.7477	0.017944
664.9786	0.019392
665.2094	0.021024
665.4403	0.022390
665.6712	0.020439
665.9021	0.020640
666.1330	0.020636
666.3640	0.020579
666.5949	0.018105
666.8259	0.018355
667.0568	0.016861
667.2878	0.017475
667.5188	0.019713
667.7497	0.019501
667.9807	0.017349
668.2117	0.018150
668.4428	0.020322
668.6738	0.018361
668.9048	0.017496
669.1359	0.017643
669.3669	0.019774
669.5980	0.016610
669.8291	0.018993
670.0602	0.018572
670.2913	0.018192
670.5224	0.019204
670.7535	0.017791
670.9846	0.018129
671.2157	0.020301
671.4469	0.020829
671.6781	0.023824
671.9092	0.026377
672.1404	0.026841
672.3716	0.031018
672.6028	0.029436
672.8340	0.028677
673.0652	0.029183
673.2964	0.027115
673.5277	0.025702
673.7589	0.024626
673.9902	0.023930
674.2214	0.023761
674.4527	0.024183
674.6840	0.022158
674.9153	0.022791
675.1466	0.022875
675.3779	0.022559
675.6093	0.021335
675.8406	0.022875
676.0719	0.023023
676.3033	0.021377
676.5347	0.020913
676.7661	0.021757
676.9974	0.021715
677.2288	0.021335
677.4602	0.022390
677.6917	0.022538
677.9231	0.022938
678.1545	0.025554
678.3860	0.024921
678.6174	0.026609
678.8489	0.024837
679.0804	0.025976
679.3119	0.028276
679.5434	0.027959
679.7749	0.029014
680.0064	0.028318
680.2379	0.029499
680.4694	0.030744
680.7010	0.028212
680.9325	0.028423
681.1641	0.029816
681.3957	0.030111
681.6273	0.028887
681.8589	0.027474
682.0905	0.028086
682.3221	0.028550
682.5537	0.027453
682.7854	0.025892
683.0170	0.025913
683.2487	0.026588
683.4803	0.025829
683.7120	0.026693
683.9437	0.025575
684.1754	0.028677
684.4071	0.029752
684.6388	0.032917
684.8705	0.032432
685.1023	0.035280
685.3340	0.037368
685.5658	0.040406
685.7975	0.037136
686.0293	0.037537
686.2611	0.037326
686.4929	0.035870
686.7247	0.037917
686.9565	0.034815
687.1883	0.038781
687.4202	0.035997
687.6520	0.037178
687.8838	0.034056
688.1157	0.033043
688.3476	0.033592
688.5795	0.033676
688.8114	0.031820
689.0433	0.030006
689.2752	0.030723
689.5071	0.029816
689.7390	0.029752
689.9710	0.028930
690.2029	0.028023
690.4349	0.031103
690.6669	0.028276
690.8988	0.030638
691.1308	0.030301
691.3628	0.031946
691.5948	0.031820
691.8269	0.031018
692.0589	0.031546
692.2909	0.031039
692.5230	0.032558
692.7550	0.030786
692.9871	0.033845
693.2192	0.033107
693.4513	0.031314
693.6834	0.033507
693.9155	0.031609
694.1476	0.028571
694.3797	0.026229
694.6119	0.028212
694.8440	0.027790
695.0762	0.030723
695.3083	0.029309
695.5405	0.028508
695.7727	0.024795
696.0049	0.025913
696.2371	0.024943
696.4693	0.025386
696.7016	0.030364
696.9338	0.033993
697.1660	0.035807
697.3983	0.033697
697.6306	0.032368
697.8628	0.033529
698.0951	0.032980
698.3274	0.033887
698.5597	0.033107
698.7920	0.031292
699.0243	0.033297
699.2567	0.028402
699.4890	0.028423
699.7214	0.030238
699.9537	0.028550
700.1861	0.025934
700.4185	0.025407
700.6509	0.026989
700.8833	0.024478
701.1157	0.024710
701.3481	0.022095
701.5806	0.025575
701.8130	0.025196
702.0454	0.024647
702.2779	0.024774
702.5104	0.027158
702.7429	0.026736
702.9753	0.026377
703.2078	0.023993
703.4403	0.023149
703.6729	0.025618
703.9054	0.023635
704.1379	0.023951
704.3705	0.024415
704.6030	0.023403
704.8356	0.021124
705.0682	0.020660
705.3008	0.019711
705.5334	0.020069
705.7660	0.020597
705.9986	0.020133
706.2312	0.022453
706.4638	0.023635
706.6965	0.027980
706.9291	0.030132
707.1618	0.031588
707.3945	0.031482
707.6272	0.033993
707.8599	0.032790
708.0926	0.031187
708.3253	0.031778
708.5580	0.031946
708.7907	0.031145
709.0235	0.029921
709.2562	0.027938
709.4890	0.028423
709.7217	0.029162
709.9545	0.030892
710.1873	0.028972
710.4201	0.029689
710.6529	0.028887
710.8857	0.028233
711.1186	0.027031
711.3514	0.025554
711.5842	0.026377
711.8171	0.025428
712.0500	0.024246
712.2828	0.024014
712.5157	0.024289
712.7486	0.024795
712.9815	0.026208
713.2144	0.024689
713.4474	0.027643
713.6803	0.027790
713.9132	0.028466
714.1462	0.029647
714.3791	0.029605
714.6121	0.028761
714.8451	0.028972
715.0781	0.030385
715.3111	0.028381
715.5441	0.030217
715.7771	0.029267
716.0102	0.028402
716.2432	0.026440
716.4762	0.024415
716.7093	0.025217
716.9424	0.024352
717.1754	0.023677
717.4085	0.021609
717.6416	0.022685
717.8747	0.021736
718.1078	0.024246
718.3410	0.024246
718.5741	0.023002
718.8072	0.022263
719.0404	0.024162
719.2736	0.026546
719.5067	0.025702
719.7399	0.024753
719.9731	0.023571
720.2063	0.024246
720.4395	0.023888
720.6727	0.024521
720.9060	0.023445
721.1392	0.024415
721.3725	0.025639
721.6057	0.023803
721.8390	0.022875
722.0723	0.025702
722.3055	0.026440
722.5388	0.023635
722.7721	0.023149
723.0055	0.023149
723.2388	0.021251
723.4721	0.023529
723.7055	0.024626
723.9388	0.022896
724.1722	0.024014
724.4056	0.023065
724.6389	0.021778
724.8723	0.023318
725.1057	0.025364
725.3391	0.027200
725.5726	0.027727
725.8060	0.029267
726.0394	0.026904
726.2729	0.028761
726.5063	0.026736
726.7398	0.028803
726.9733	0.026461
727.2068	0.027854
727.4403	0.026609
727.6738	0.028170
727.9073	0.028023
728.1408	0.028318
728.3743	0.029605
728.6079	0.028677
728.8414	0.029056
729.0750	0.029816
729.3086	0.029014
729.5421	0.030596
729.7757	0.031124
730.0093	0.031630
730.2429	0.030195
730.4766	0.031398
730.7102	0.033064
730.9438	0.036250
731.1775	0.038676
731.4111	0.036545
731.6448	0.035069
731.8785	0.037305
732.1122	0.033128
732.3458	0.034963
732.5795	0.034415
732.8133	0.036630
733.0470	0.036566
733.2807	0.036355
733.5145	0.035512
733.7482	0.037178
733.9820	0.039794
734.2157	0.040554
734.4495	0.043043
734.6833	0.041461
734.9171	0.043612
735.1509	0.041376
735.3847	0.040933
735.6185	0.038887
735.8524	0.040701
736.0862	0.042094
736.3201	0.040322
736.5539	0.036988
736.7878	0.040765
737.0217	0.043908
737.2556	0.042537
737.4895	0.041334
737.7234	0.039351
737.9573	0.035912
738.1912	0.035680
738.4252	0.034077
738.6591	0.034077
738.8931	0.033972
739.1271	0.037895
739.3610	0.039309
739.5950	0.037748
739.8290	0.039625
740.0630	0.036820
740.2970	0.035955
740.5310	0.034752
740.7651	0.033550
740.9991	0.031757
741.2332	0.030955
741.4672	0.028381
741.7013	0.030259
741.9354	0.028487
742.1695	0.029668
742.4036	0.028381
742.6377	0.030870
742.8718	0.028677
743.1059	0.025491
743.3400	0.027242
743.5742	0.027242
743.8083	0.026124
744.0425	0.025955
744.2767	0.024204
744.5108	0.026567
744.7450	0.025639
744.9792	0.025955
745.2134	0.024921
745.4477	0.023318
745.6819	0.024921
745.9161	0.022348
746.1504	0.023086
746.3846	0.024668
746.6189	0.023930
746.8532	0.025364
747.0874	0.025322
747.3217	0.027136
747.5560	0.027221
747.7903	0.026419
748.0247	0.025786
748.2590	0.027917
748.4933	0.024563
748.7277	0.022938
748.9620	0.025259
749.1964	0.027263
749.4308	0.026926
749.6652	0.027727
749.8995	0.030723
750.1339	0.032474
750.3684	0.033655
750.6028	0.033318
750.8372	0.035554
751.0717	0.033655
751.3061	0.031778
751.5406	0.035195
751.7750	0.033951
752.0095	0.033360
752.2440	0.033951
752.4785	0.033571
752.7130	0.030660
752.9475	0.031482
753.1820	0.030449
753.4166	0.032643
753.6511	0.035934
753.8856	0.036756
754.1202	0.034140
754.3548	0.034288
754.5894	0.032832
754.8239	0.033740
755.0585	0.032178
755.2931	0.034562
755.5278	0.036735
755.7624	0.036334
755.9970	0.037452
756.2317	0.038507
756.4663	0.040659
756.7010	0.043402
756.9356	0.042220
757.1703	0.046271
757.4050	0.047093
757.6397	0.050363
757.8744	0.052220
758.1091	0.050321
758.3438	0.048233
758.5786	0.046439
758.8133	0.045026
759.0481	0.046355
759.2828	0.048422
759.5176	0.051123
759.7524	0.051059
759.9872	0.050237
760.2220	0.050131
760.4568	0.053928
760.6916	0.053612
760.9264	0.053380
761.1613	0.051945
761.3961	0.052262
761.6310	0.048211
761.8658	0.043275
762.1007	0.040554
762.3356	0.045068
762.5705	0.043212
762.8054	0.039815
763.0403	0.040743
763.2752	0.042347
763.5101	0.041355
763.7450	0.040933
763.9800	0.042874
764.2149	0.045342
764.4499	0.046418
764.6849	0.048422
764.9198	0.050237
765.1548	0.050469
765.3898	0.047536
765.6248	0.046882
765.8599	0.044266
766.0949	0.042072
766.3299	0.038170
766.5650	0.040364
766.8000	0.032917
767.0351	0.033339
767.2701	0.033972
767.5052	0.034119
767.7403	0.034225
767.9754	0.034520
768.2105	0.035849
768.4456	0.039077
768.6808	0.039520
768.9159	0.039014
769.1510	0.042537
769.3862	0.040997
769.6214	0.037959
769.8565	0.036672
770.0917	0.038338
770.3269	0.037009
770.5621	0.037685
770.7973	0.041039
771.0325	0.040448
771.2677	0.038908
771.5030	0.039752
771.7382	0.039773
771.9735	0.037452
772.2087	0.035406
772.4440	0.034499
772.6793	0.033360
772.9146	0.035195
773.1499	0.033761
773.3852	0.032558
773.6205	0.032389
773.8558	0.030533
774.0911	0.030976
774.3265	0.030174
774.5618	0.027580
774.7972	0.028782
775.0326	0.026483
775.2679	0.025027
775.5033	0.024056
775.7387	0.024732
775.9741	0.023297
776.2095	0.023824
776.4450	0.022601
776.6804	0.020829
776.9158	0.019901
777.1513	0.021441
777.3868	0.019626
777.6222	0.021272
777.8577	0.018846
778.0932	0.021377
778.3287	0.023086
778.5642	0.023951
778.7997	0.024964
779.0352	0.023170
779.2707	0.028001
779.5063	0.025596
779.7418	0.025723
779.9774	0.025533
780.2130	0.021103
780.4485	0.024267
780.6841	0.023740
780.9197	0.024985
781.1553	0.028508
781.3909	0.030470
781.6265	0.030174
781.8622	0.031651
782.0978	0.029520
782.3335	0.030681
782.5691	0.030449
782.8048	0.027432
783.0405	0.029077
783.2761	0.028023
783.5118	0.029098
783.7475	0.030596
783.9832	0.028993
784.2190	0.028909
784.4547	0.027706
784.6904	0.025976
784.9262	0.024837
785.1619	0.025153
785.3977	0.025807
785.6335	0.025512
785.8692	0.024183
786.1050	0.024099
786.3408	0.024436
786.5766	0.021926
786.8124	0.022959
787.0483	0.024499
787.2841	0.024014
787.5199	0.024605
787.7558	0.025153
787.9917	0.025681
788.2275	0.025829
788.4634	0.023107
788.6993	0.025955
788.9352	0.027706
789.1711	0.026630
789.4070	0.025301
789.6429	0.025301
789.8789	0.023867
790.1148	0.022432
790.3507	0.022474
790.5867	0.020892
790.8227	0.021630
791.0586	0.021377
791.2946	0.020618
791.5306	0.019690
791.7666	0.019500
792.0026	0.018614
792.2387	0.018719
792.4747	0.018614
792.7107	0.017306
792.9468	0.018129
793.1828	0.020006
793.4189	0.017411
793.6550	0.020280
793.8910	0.021630
794.1271	0.024204
794.3632	0.027347
794.5993	0.026440
794.8355	0.027643
795.0716	0.027685
795.3077	0.028360
795.5439	0.027495
795.7800	0.025470
796.0162	0.023213
796.2523	0.022116
796.4885	0.020512
796.7247	0.018213
796.9609	0.017896
797.1971	0.019120
797.4333	0.018972
797.6695	0.019563
797.9058	0.019922
798.1420	0.019120
798.3783	0.019879
798.6145	0.018129
798.8508	0.019057
799.0871	0.019521
799.3233	0.018614
799.5596	0.019879
799.7959	0.017707
800.0322	0.018002
800.2686	0.017601
800.5049	0.014901
800.7412	0.015386
800.9776	0.015449
801.2139	0.016188
801.4503	0.016124
801.6867	0.015618
801.9230	0.014816
802.1594	0.013530
802.3958	0.015513
802.6322	0.012306
802.8686	0.015259
803.1051	0.014184
803.3415	0.015133
803.5779	0.015428
803.8144	0.013551
804.0508	0.014838
804.2873	0.015344
804.5238	0.014373
804.7603	0.015892
804.9968	0.013487
805.2333	0.015006
805.4698	0.013846
805.7063	0.014373
805.9428	0.015681
806.1794	0.017960
806.4159	0.021356
806.6525	0.021019
806.8890	0.020787
807.1256	0.018529
807.3622	0.019057
807.5988	0.018698
807.8354	0.018993
808.0720	0.020555
808.3086	0.018297
808.5452	0.017517
808.7818	0.020069
809.0185	0.020639
809.2551	0.019310
809.4918	0.018466
809.7284	0.016968
809.9651	0.018234
810.2018	0.014416
810.4385	0.016884
810.6752	0.016399
810.9119	0.017306
811.1486	0.016188
811.3853	0.014838
811.6221	0.015048
811.8588	0.016251
812.0956	0.014247
812.3323	0.012559
812.5691	0.013171
812.8059	0.012179
813.0427	0.013719
813.2795	0.012285
813.5163	0.012475
813.7531	0.014395
813.9899	0.018572
814.2267	0.016230
814.4636	0.016462
814.7004	0.014268
814.9373	0.013867
815.1742	0.014542
815.4110	0.014226
815.6479	0.012707
815.8848	0.011378
816.1217	0.010175
816.3586	0.011568
816.5955	0.014458
816.8324	0.013108
817.0694	0.012601
817.3063	0.012179
817.5433	0.010661
817.7802	0.012074
818.0172	0.011694
818.2542	0.011589
818.4912	0.011610
818.7282	0.010112
818.9652	0.010154
819.2022	0.010513
819.4392	0.010745
819.6762	0.010217
819.9133	0.009521
820.1503	0.011272
820.3874	0.012686
820.6244	0.012918
820.8615	0.013867
821.0986	0.013614
821.3357	0.013825
821.5727	0.012580
821.8099	0.012601
822.0470	0.010618
822.2841	0.011061
822.5212	0.011504
822.7584	0.011357
822.9955	0.010175
823.2327	0.011082
823.4698	0.009606
823.7070	0.010133
823.9442	0.008445
824.1814	0.009353
824.4186	0.008825
824.6558	0.007960
824.8930	0.010007
825.1302	0.010196
825.3675	0.008973
825.6047	0.010787
825.8419	0.010534
826.0792	0.010007
826.3165	0.010871
826.5537	0.009142
826.7910	0.011314
827.0283	0.011631
827.2656	0.010977
827.5029	0.012496
827.7402	0.011968
827.9776	0.009648
828.2149	0.010998
828.4522	0.013466
828.6896	0.009078
828.9270	0.011631
829.1643	0.011821
829.4017	0.009606
829.6391	0.009353
829.8765	0.010239
830.1139	0.011715
830.3513	0.008994
830.5887	0.008087
830.8261	0.007602
831.0636	0.008213
831.3010	0.007032
831.5385	0.006969
831.7759	0.007686
832.0134	0.005154
832.2509	0.008087
832.4884	0.006948
832.7259	0.006821
832.9634	0.007665
833.2009	0.008298
833.4384	0.008129
833.6759	0.007623
833.9135	0.008382
834.1510	0.009564
834.3886	0.008424
834.6261	0.009268
834.8637	0.008361
835.1013	0.010344
835.3389	0.009310
835.5765	0.008171
835.8141	0.006948
836.0517	0.009015
836.2893	0.009205
836.5269	0.006378
836.7646	0.007728
837.0022	0.006230
837.2399	0.005260
837.4775	0.004332
837.7152	0.006062
837.9529	0.007855
838.1906	0.006673
838.4283	0.005935
838.6660	0.006526
838.9037	0.005640
839.1414	0.005260
839.3791	0.006990
839.6169	0.005766
839.8546	0.006568
840.0924	0.005049
840.3302	0.004796
840.5679	0.006526
840.8057	0.006336
841.0435	0.005450
841.2813	0.004205
841.5191	0.005619
841.7569	0.006399
841.9947	0.005176
842.2326	0.004669
842.4704	0.005049
842.7082	0.005197
842.9461	0.004796
843.1840	0.004079
843.4218	0.002032
843.6597	0.005260
843.8976	0.004163
844.1355	0.005429
844.3734	0.003931
844.6113	0.006083
844.8492	0.004965
845.0872	0.004943
845.3251	0.004437
845.5631	0.005218
845.8010	0.004585
846.0390	0.004901
846.2770	0.005197
846.5149	0.004205
846.7529	0.003340
846.9909	0.003783
847.2289	0.003636
847.4669	0.005154
847.7050	0.004374
847.9430	0.006526
848.1810	0.004859
848.4191	0.004121
848.6571	0.003847
848.8952	0.003825
849.1333	0.004922
849.3713	0.004543
849.6094	0.003108
849.8475	0.003825
850.0856	0.003150
850.3237	0.004458
850.5619	0.002897
850.8000	0.003804
851.0381	0.004205
851.2763	0.004859
851.5144	0.003889
851.7526	0.004184
851.9908	0.004627
852.2289	0.005176
852.4671	0.006019
852.7053	0.007116
852.9435	0.008361
853.1817	0.010829
853.4200	0.009985
853.6582	0.013951
853.8964	0.012137
854.1347	0.011779
854.3729	0.012622
854.6112	0.013593
854.8495	0.011019
855.0877	0.011990
855.3260	0.012095
855.5643	0.010618
855.8026	0.011040
856.0409	0.010175
856.2792	0.009500
856.5176	0.010534
856.7559	0.009753
856.9942	0.010281
857.2326	0.008213
857.4710	0.009099
857.7093	0.008361
857.9477	0.008720
858.1861	0.008213
858.4245	0.009564
858.6629	0.009437
858.9013	0.007517
859.1397	0.007370
859.3781	0.008635
859.6166	0.007538
859.8550	0.007454
860.0935	0.005745
860.3319	0.006484
860.5704	0.005872
860.8089	0.007074
861.0473	0.005049
861.2858	0.005766
861.5243	0.004163
861.7628	0.004522
862.0013	0.006040
862.2399	0.004627
862.4784	0.003741
862.7169	0.005998
862.9555	0.003509
863.1940	0.005007
863.4326	0.004922
863.6712	0.006484
863.9098	0.004943
864.1483	0.005365
864.3869	0.005977
864.6255	0.004627
864.8642	0.004627
865.1028	0.004163
865.3414	0.003931
865.5800	0.005176
865.8187	0.005281
866.0573	0.003066
866.2960	0.003699
866.5347	0.003551
866.7733	0.004332
867.0120	0.003425
867.2507	0.006062
867.4894	0.004690
867.7281	0.004205
867.9669	0.005808
868.2056	0.003572
868.4443	0.005239
868.6831	0.004079
868.9218	0.004184
869.1606	0.005682
869.3993	0.003024
869.6381	0.004247
869.8769	0.003593
870.1157	0.003910
870.3545	0.004142
870.5933	0.004057
870.8321	0.005007
871.0709	0.005007
871.3097	0.004606
871.5486	0.005766
871.7874	0.005619
872.0263	0.005239
872.2651	0.004901
872.5040	0.003657
872.7429	0.004880
872.9818	0.003403
873.2207	0.003593
873.4596	0.003868
873.6985	0.004606
873.9374	0.003762
874.1763	0.002792
874.4153	0.003425
874.6542	0.005133
874.8932	0.004184
875.1321	0.005344
875.3711	0.004100
875.6101	0.005492
875.8491	0.004395
876.0880	0.005661
876.3270	0.004290
876.5661	0.003467
876.8051	0.003614
877.0441	0.004100
877.2831	0.004437
877.5222	0.003741
877.7612	0.005176
878.0003	0.004121
878.2393	0.006230
878.4784	0.005112
878.7175	0.004838
878.9566	0.005408
879.1957	0.006251
879.4348	0.006462
879.6739	0.005640
879.9130	0.005998
880.1521	0.006905
880.3913	0.005914
880.6304	0.006273
880.8696	0.006631
881.1087	0.006040
881.3479	0.007791
881.5871	0.007285
881.8262	0.005218
882.0654	0.004374
882.3046	0.004500
882.5438	0.004733
882.7831	0.004395
883.0223	0.005555
883.2615	0.005450
883.5007	0.005661
883.7400	0.003488
883.9792	0.005682
884.2185	0.004564
884.4578	0.005640
884.6971	0.004669
884.9363	0.006167
885.1756	0.005682
885.4149	0.005471
885.6542	0.006040
885.8936	0.005830
886.1329	0.004669
886.3722	0.005387
886.6116	0.006146
886.8509	0.005830
887.0903	0.005049
887.3296	0.005471
887.5690	0.004838
887.8084	0.006230
888.0478	0.003614
888.2872	0.003910
888.5266	0.004437
888.7660	0.004606
889.0054	0.003319
889.2448	0.005302
889.4843	0.004500
889.7237	0.004711
889.9632	0.004036
890.2026	0.004205
890.4421	0.004754
890.6816	0.004247
890.9211	0.003657
891.1606	0.004880
891.4001	0.003678
891.6396	0.005302
891.8791	0.005091
892.1186	0.004880
892.3581	0.003657
892.5977	0.005260
892.8372	0.004690
893.0768	0.002834
893.3163	0.002771
893.5559	0.005914
893.7955	0.004311
894.0351	0.002750
894.2747	0.002328
894.5143	0.005787
894.7539	0.004121
894.9935	0.003530
895.2331	0.002982
895.4727	0.004754
895.7124	0.003910
895.9520	0.003256
896.1917	0.003129
896.4314	0.003825
896.6710	0.004353
896.9107	0.004353
897.1504	0.003868
897.3901	0.004627
897.6298	0.003003
897.8695	0.003593
898.1092	0.004669
898.3489	0.003340
898.5887	0.003678
898.8284	0.001589
899.0682	0.003868
899.3079	0.002496
899.5477	0.004121
899.7875	0.004036
900.0272	0.003087
900.2670	0.003319
900.5068	0.004311
900.7466	0.004922
900.9864	0.003087
901.2263	0.005176
901.4661	0.002771
901.7059	0.004332
901.9458	0.001990
902.1856	0.003762
902.4255	0.002686
902.6654	0.003530
902.9052	0.002412
903.1451	0.004205
903.3850	0.001631
903.6249	0.003340
903.8648	0.002475
904.1047	0.003446
904.3446	0.004437
904.5846	0.005977
904.8245	0.003024
905.0644	0.004184
905.3044	0.002581
905.5444	0.005808
905.7843	0.002665
906.0243	0.003551
906.2643	0.005197
906.5043	0.003298
906.7443	0.004079
906.9843	0.002117
907.2243	0.002475
907.4643	0.004163
907.7043	0.003003
907.9444	0.003847
908.1844	0.004057
908.4245	0.003636
908.6645	0.003657
908.9046	0.002306
909.1447	0.003340
909.3847	0.003403
909.6248	0.002306
909.8649	0.001885
910.1050	0.002412
910.3452	0.003910
910.5853	0.002433
910.8254	0.004247
911.0655	0.003530
911.3057	0.003741
911.5458	0.003256
911.7860	0.003150
912.0262	0.003150
912.2663	0.003847
912.5065	0.002475
912.7467	0.004163
912.9869	0.003256
913.2271	0.003488
913.4673	0.002855
913.7075	0.002581
913.9478	0.002011
914.1880	0.002032
914.4283	0.003235
914.6685	0.001927
914.9088	0.002306
915.1490	0.004142
915.3893	0.003235
915.6296	0.003825
915.8699	0.002391
916.1102	0.004500
916.3505	0.001800
916.5908	0.004121
916.8311	0.002011
917.0714	0.003277
917.3118	0.002328
917.5521	0.003256
917.7925	0.002306
918.0328	0.003868
918.2732	0.003403
918.5136	0.003171
918.7539	0.003699
918.9943	0.004332
919.2347	0.003403
919.4751	0.002897
919.7155	0.003425
919.9560	0.002897
920.1964	0.003593
920.4368	0.002433
920.6773	0.002728
920.9177	0.002623
921.1582	0.002982
921.3986	0.002285
921.6391	0.002011
921.8796	0.002623
922.1201	0.002138
922.3606	0.004543
922.6011	0.002096
922.8416	0.003509
923.0821	0.002032
923.3226	0.002876
923.5631	0.002222
923.8037	0.002897
924.0442	0.001378
924.2848	0.002180
924.5254	0.001146
924.7659	0.002960
925.0065	0.003382
925.2471	0.001948
925.4877	0.001547
925.7283	0.002602
925.9689	0.002728
926.2095	0.001589
926.4501	0.001378
926.6908	0.003129
926.9314	0.000640
927.1720	0.002328
927.4127	0.001885
927.6533	0.000999
927.8940	0.001568
928.1347	0.001800
928.3754	0.001653
928.6161	0.003024
928.8568	0.001716
929.0975	0.000323
929.3382	0.001927
929.5789	0.002412
929.8196	0.000281
930.0604	0.003024
930.3011	0.000577
930.5419	0.002918
930.7826	0.001906
931.0234	0.001863
931.2642	0.002180
931.5049	0.002475
931.7457	0.001716
931.9865	0.001526
932.2273	0.002728
932.4681	0.002897
932.7089	0.001484
932.9498	0.001526
933.1906	0.001695
933.4314	0.002918
933.6723	0.001020
933.9131	0.002644
934.1540	-0.000014
934.3949	0.002876
934.6358	0.001631
934.8766	0.002412
935.1175	0.001948
935.3584	0.001610
935.5993	0.002285
935.8403	0.002117
936.0812	0.002707
936.3221	0.001948
936.5630	0.002074
936.8040	0.000155
937.0449	0.001653
937.2859	0.000556
937.5269	0.000640
937.7678	0.001695
938.0088	0.002306
938.2498	0.000788
938.4908	0.000788
938.7318	0.000260
938.9728	0.000935
939.2138	0.000492
939.4549	0.001210
939.6959	0.000830
939.9369	0.000534
940.1780	0.001062
940.4190	0.000703
940.6601	0.000028
940.9012	0.001041
941.1422	0.001631
941.3833	-0.000246
941.6244	0.001231
941.8655	0.000577
942.1066	0.000070
942.3477	0.000788
942.5889	0.001758
942.8300	0.001083
943.0711	0.002159
943.3123	0.001547
943.5534	0.000281
943.7946	0.000239
944.0357	0.001821
944.2769	0.002053
944.5181	0.000745
944.7593	0.000197
945.0005	0.000619
945.2417	0.000682
945.4829	-0.000478
945.7241	0.001188
945.9653	-0.000309
946.2066	-0.000267
946.4478	0.000872
946.6891	0.000999
946.9303	0.000619
947.1716	0.000556
947.4128	0.001589
947.6541	0.000302
947.8954	-0.001069
948.1367	0.000977
948.3780	0.000260
948.6193	0.001378
948.8606	0.000091
949.1019	0.001062
949.3433	0.000028
949.5846	-0.000499
949.8259	0.001842
950.0673	0.001210
950.3086	0.000977
950.5500	0.001906
950.7914	-0.000499
951.0327	0.001336
951.2741	0.000556
951.5155	0.000830
951.7569	0.002243
951.9983	0.001231
952.2398	0.001758
952.4812	0.001758
952.7226	0.000492
952.9640	0.000809
953.2055	0.000788
953.4469	0.002517
953.6884	-0.000120
953.9299	0.000323
954.1713	0.000766
954.4128	0.001315
954.6543	0.001990
954.8958	0.000450
955.1373	0.000534
955.3788	0.000302
955.6203	0.001631
955.8618	0.001231
956.1034	0.000513
956.3449	0.001210
956.5865	-0.001301
956.8280	0.000556
957.0696	-0.000689
957.3111	0.000640
957.5527	0.000851
957.7943	0.000387
958.0359	-0.000689
958.2775	0.000239
958.5191	0.000260
958.7607	0.000703
959.0023	0.001442
959.2439	0.001399
959.4856	0.000893
959.7272	0.000070
959.9688	0.000598
960.2105	0.000556
960.4522	-0.001934
960.6938	0.001631
960.9355	0.000302
961.1772	0.000302
961.4189	0.000872
961.6606	0.000197
961.9023	-0.001111
962.1440	0.001020
962.3857	-0.000056
962.6274	0.000724
962.8692	0.000682
963.1109	-0.001048
963.3527	0.000366
963.5944	0.000640
963.8362	0.000260
964.0779	0.000556
964.3197	0.000049
964.5615	0.002222
964.8033	0.000429
965.0451	-0.000035
965.2869	0.000366
965.5287	-0.000246
965.7705	0.000935
966.0123	0.001062
966.2542	-0.000225
966.4960	0.001357
966.7379	0.001547
966.9797	0.000239
967.2216	0.000197
967.4634	-0.000141
967.7053	0.000809
967.9472	0.000450
968.1891	0.000703
968.4310	0.001505
968.6729	0.000977
968.9148	0.000113
969.1567	0.000640
969.3987	0.000218
969.6406	0.001631
969.8825	0.001547
970.1245	0.000619
970.3664	0.000640
970.6084	0.000577
970.8504	0.000766
971.0923	-0.000541
971.3343	-0.000225
971.5763	0.000239
971.8183	-0.000415
972.0603	0.000387
972.3023	0.002159
972.5443	0.001188
972.7864	-0.000056
973.0284	0.000935
973.2704	0.000176
973.5125	-0.000225
973.7545	0.002117
973.9966	0.000534
974.2387	0.000935
974.4807	0.000323
974.7228	0.001294
974.9649	-0.000077
975.2070	0.000830
975.4491	-0.000689
975.6912	0.001420
975.9333	0.000155
976.1755	0.000028
976.4176	0.000302
976.6597	0.000598
976.9019	-0.000436
977.1440	-0.000267
977.3862	0.001125
977.6283	0.000070
977.8705	0.001294
978.1127	0.001716
978.3549	0.000977
978.5971	0.001653
978.8393	0.000197
979.0815	0.001146
979.3237	-0.000267
979.5659	-0.000457
979.8082	-0.000056
980.0504	0.002117
980.2926	-0.000120
980.5349	0.001948
980.7771	0.000682
981.0194	0.000809
981.2617	0.000619
981.5040	0.001547
981.7462	-0.000900
981.9885	0.001167
982.2308	0.000830
982.4731	0.001399
982.7155	-0.000837
982.9578	0.000598
983.2001	-0.000541
983.4424	-0.000457
983.6848	0.001167
983.9271	-0.000457
984.1695	-0.000731
984.4118	0.000745
984.6542	0.000429
984.8966	-0.000900
985.1390	0.000661
985.3814	0.000977
985.6238	0.000366
985.8662	-0.000014
986.1086	-0.000077
986.3510	0.000513
986.5934	0.000134
986.8358	0.000323
987.0783	-0.000267
987.3207	0.000091
987.5632	0.000429
987.8056	-0.001301
988.0481	0.001378
988.2906	0.000956
988.5331	0.000028
988.7756	0.001631
989.0180	0.000218
989.2605	0.001210
989.5031	0.001779
989.7456	0.001568
989.9881	0.001167
990.2306	0.002053
990.4732	0.000577
990.7157	0.000366
990.9582	-0.000984
991.2008	-0.000056
991.4434	-0.001934
991.6859	-0.000415
991.9285	0.001273
992.1711	0.001210
992.4137	-0.000520
992.6563	0.001167
992.8989	0.000788
993.1415	0.000323
993.3841	-0.000288
993.6267	0.000724
993.8694	0.000197
994.1120	-0.000921
994.3547	-0.000183
994.5973	0.001505
994.8400	-0.001238
995.0826	0.000408
995.3253	-0.000056
995.5680	-0.000035
995.8107	0.000724
996.0534	-0.000035
996.2961	-0.000035
996.5388	0.000640
996.7815	-0.000415
997.0242	0.000703
997.2670	-0.000457
997.5097	0.000028
997.7524	-0.000795
997.9952	-0.000056
998.2379	0.001927
998.4807	0.000070
998.7235	0.000260
998.9662	0.000260
999.2090	-0.000162
999.4518	0.000640
999.6946	-0.000457
999.9374	0.000914
1000.1802	0.000619
1000.4230	-0.001048
1000.6659	0.001167
1000.9087	0.000914
1001.1515	0.001336
1001.3944	-0.000415
1001.6372	0.000239
1001.8801	0.000893
1002.1230	0.000134
1002.3658	0.000281
1002.6087	0.000408
1002.8516	-0.000774
1003.0945	0.000429
1003.3374	0.000091
1003.5803	0.000176
1003.8232	-0.000309
1004.0661	0.000492
1004.3091	-0.000879
1004.5520	0.000450
1004.7949	0.000197
1005.0379	0.000809
1005.2808	-0.000605
1005.5238	0.000471
1005.7667	0.000049
1006.0097	0.000619
1006.2527	0.000281
1006.4957	0.000091
1006.7387	0.000914
1006.9817	0.000197
1007.2247	0.000471
1007.4677	-0.000014
1007.7107	0.000239
1007.9538	-0.000331
1008.1968	-0.000056
1008.4398	0.001041
1008.6829	-0.000963
1008.9259	0.000408
1009.1690	-0.001449
1009.4121	0.000893
1009.6551	0.000534
1009.8982	0.001210
1010.1413	-0.000056
1010.3844	0.000429
1010.6275	-0.000183
1010.8706	0.000366
1011.1137	-0.000267
1011.3568	0.000935
1011.6000	-0.000457
1011.8431	0.000197
1012.0863	-0.000436
1012.3294	0.000155
1012.5726	-0.000056
1012.8157	-0.000331
1013.0589	0.000598
1013.3021	0.000851
1013.5452	0.000534
1013.7884	0.000471
1014.0316	-0.000141
1014.2748	0.001758
1014.5180	0.000302
1014.7613	0.001399
1015.0045	-0.000014
1015.2477	-0.000035
1015.4909	0.000956
1015.7342	0.000302
1015.9774	-0.000162
1016.2207	0.001399
1016.4640	-0.000204
1016.7072	0.001020
1016.9505	-0.000731
1017.1938	-0.000014
1017.4371	0.000007
1017.6804	0.001104
1017.9237	-0.000457
1018.1670	0.000281
1018.4103	-0.000352
1018.6536	0.000830
1018.8969	-0.000141
1019.1403	-0.000331
1019.3836	-0.001301
1019.6270	0.000893
1019.8703	-0.001069
1020.1137	-0.000035
1020.3571	-0.000520
1020.6004	0.000703
1020.8438	-0.000795
1021.0872	0.000661
1021.3306	-0.000394
1021.5740	-0.000035
1021.8174	-0.000077
1022.0608	-0.000035
1022.3042	-0.001512
1022.5477	-0.000520
1022.7911	-0.001554
1023.0345	0.000387
