# Wavelength (nm)	Intensity (a.u.)
197.7802	-0.001354
197.9842	0.000672
198.1882	0.000756
198.3922	0.000250
198.5963	-0.000805
198.8003	-0.000257
199.0044	0.001030
199.2085	0.000904
199.4126	0.000503
199.6168	0.000334
199.8209	0.000144
200.0251	-0.000784
200.2292	-0.000215
200.4334	-0.001396
200.6376	0.001938
200.8418	-0.000109
201.0461	0.000545
201.2503	0.001009
201.4546	-0.000236
201.6589	0.000418
201.8631	0.000587
202.0674	-0.000679
202.2718	-0.000362
202.4761	0.001030
202.6805	0.001073
202.8848	-0.000341
203.0892	-0.001755
203.2936	-0.000215
203.4980	0.001431
203.7024	-0.000763
203.9069	0.000693
204.1113	0.000250
204.3158	-0.000425
204.5203	0.000461
204.7248	-0.000130
204.9293	0.000123
205.1338	0.001136
205.3384	0.000039
205.5430	0.000376
205.7475	-0.001185
205.9521	0.001283
206.1567	0.000229
206.3614	0.001051
206.5660	0.000102
206.7706	0.000798
206.9753	0.000756
207.1800	-0.000025
207.3847	0.001600
207.5894	-0.000932
207.7941	0.000524
207.9989	0.000735
208.2036	-0.001607
208.4084	-0.000004
208.6132	-0.000404
208.8180	0.001009
209.0228	-0.000067
209.2276	-0.000025
209.4325	-0.000130
209.6373	0.000039
209.8422	-0.001037
210.0471	-0.000193
210.2520	-0.000172
210.4569	0.001537
210.6618	-0.000763
210.8668	0.000545
211.0718	-0.000615
211.2767	0.000207
211.4817	-0.000763
211.6867	-0.000109
211.8918	0.000587
212.0968	0.001916
212.3018	-0.000447
212.5069	-0.000658
212.7120	0.001389
212.9171	0.001938
213.1222	-0.000383
213.3273	0.000165
213.5325	0.000482
213.7376	-0.000215
213.9428	-0.001101
214.1480	0.001558
214.3532	-0.000278
214.5584	0.000376
214.7636	0.000672
214.9689	0.000313
215.1741	0.000714
215.3794	0.000672
215.5847	0.000334
215.7900	-0.000447
215.9953	-0.001291
216.2007	0.000039
216.4060	-0.000826
216.6114	0.001073
216.8168	0.001051
217.0222	0.000250
217.2276	-0.000742
217.4330	0.000355
217.6384	0.000862
217.8439	0.000756
218.0494	0.000566
218.2548	0.000482
218.4603	-0.001080
218.6659	0.001262
218.8714	0.000165
219.0769	-0.000257
219.2825	-0.001312
219.4881	-0.000257
219.6936	-0.000046
219.8992	-0.000953
220.1049	-0.000257
220.3105	0.000756
220.5161	0.000165
220.7218	0.000229
220.9275	-0.001291
221.1332	0.000229
221.3389	0.000018
221.5446	0.000946
221.7503	0.000102
221.9561	0.000207
222.1618	0.001916
222.3676	0.000651
222.5734	0.000292
222.7792	0.001136
222.9850	0.000060
223.1909	0.000207
223.3967	0.000123
223.6026	0.000883
223.8085	-0.000721
224.0144	0.001494
224.2203	-0.000679
224.4262	-0.000573
224.6322	-0.000151
224.8381	0.000397
225.0441	0.000777
225.2501	0.001389
225.4561	-0.000088
225.6621	-0.000847
225.8681	0.000376
226.0742	0.001199
226.2802	-0.000953
226.4863	0.000672
226.6924	0.001199
226.8985	0.000629
227.1046	0.000355
227.3107	-0.000658
227.5169	0.000102
227.7230	0.000566
227.9292	-0.000805
228.1354	0.001220
228.3416	-0.000615
228.5478	0.000250
228.7541	0.001115
228.9603	-0.000404
229.1666	0.000144
229.3729	-0.000067
229.5791	-0.000932
229.7855	0.000313
229.9918	-0.000004
230.1981	0.000735
230.4045	0.001790
230.6108	0.000397
230.8172	0.000862
231.0236	0.000798
231.2300	-0.000025
231.4364	0.000819
231.6429	-0.000193
231.8493	0.000207
232.0558	0.000587
232.2623	0.000144
232.4688	0.000862
232.6753	0.000060
232.8818	0.000566
233.0884	0.000524
233.2949	0.000018
233.5015	0.000313
233.7081	0.000250
233.9147	-0.000447
234.1213	-0.000215
234.3279	0.000883
234.5346	-0.000468
234.7413	0.000840
234.9479	0.000418
235.1546	0.000714
235.3613	-0.000025
235.5680	0.001410
235.7748	0.000123
235.9815	-0.000257
236.1883	0.000967
236.3951	-0.000257
236.6018	0.000060
236.8087	0.001769
237.0155	-0.000552
237.2223	0.001241
237.4292	-0.000151
237.6360	0.001452
237.8429	0.000334
238.0498	0.000376
238.2567	-0.000067
238.4636	0.000355
238.6706	-0.000172
238.8775	0.000165
239.0845	0.000334
239.2915	0.002338
239.4985	0.000186
239.7055	0.001473
239.9125	0.000207
240.1195	0.000165
240.3266	0.000250
240.5337	0.000735
240.7407	0.000798
240.9478	0.001790
241.1549	0.001283
241.3621	-0.000721
241.5692	-0.000109
241.7764	0.000946
241.9835	0.000271
242.1907	0.000840
242.3979	-0.000594
242.6051	0.000693
242.8124	-0.000025
243.0196	-0.000151
243.2269	-0.000721
243.4341	-0.000341
243.6414	-0.001354
243.8487	0.000798
244.0560	0.000440
244.2634	0.000081
244.4707	-0.001459
244.6781	0.000102
244.8854	-0.000763
245.0928	0.001853
245.3002	0.000039
245.5076	0.000524
245.7151	0.000440
245.9225	-0.000067
246.1300	-0.000763
246.3375	0.000651
246.5449	0.000693
246.7524	-0.000510
246.9600	-0.000151
247.1675	0.000207
247.3750	0.000651
247.5826	-0.000172
247.7902	-0.001016
247.9978	0.000862
248.2054	0.000165
248.4130	0.000102
248.6206	0.002064
248.8283	0.000524
249.0359	-0.000721
249.2436	0.000967
249.4513	-0.000679
249.6590	0.000355
249.8667	0.000925
250.0745	0.000503
250.2822	-0.000341
250.4900	0.000376
250.6978	0.000440
250.9056	-0.000763
251.1134	-0.000151
251.3212	-0.000067
251.5290	0.001115
251.7369	0.000925
251.9447	0.000144
252.1526	0.000123
252.3605	-0.000067
252.5684	0.000440
252.7763	-0.000911
252.9843	0.001136
253.1922	-0.000594
253.4002	0.000123
253.6082	0.001094
253.8162	-0.000088
254.0242	-0.000046
254.2322	0.000397
254.4402	-0.000278
254.6483	-0.000552
254.8564	-0.001333
255.0644	0.000545
255.2725	0.000229
255.4806	0.000946
255.6888	0.000925
255.8969	0.000355
256.1051	0.000207
256.3132	0.001073
256.5214	-0.000320
256.7296	0.000756
256.9378	-0.000088
257.1460	0.000165
257.3543	0.000039
257.5625	0.002465
257.7708	0.000566
257.9791	0.000039
258.1874	0.000334
258.3957	0.000271
258.6040	-0.000172
258.8124	0.000123
259.0207	0.000207
259.2291	0.001241
259.4375	0.000018
259.6459	0.000207
259.8543	0.000102
260.0627	0.001853
260.2711	0.000819
260.4796	0.001220
260.6881	0.000545
260.8965	0.001136
261.1050	0.000207
261.3135	0.000545
261.5221	0.001009
261.7306	-0.000341
261.9392	0.000039
262.1477	0.001199
262.3563	0.001030
262.5649	0.000545
262.7735	0.000545
262.9822	0.001410
263.1908	-0.000004
263.3995	0.000271
263.6081	-0.000615
263.8168	0.000798
264.0255	-0.000088
264.2342	0.000334
264.4429	0.000862
264.6517	-0.000552
264.8604	-0.000890
265.0692	0.001811
265.2780	0.000672
265.4868	0.000714
265.6956	-0.001354
265.9044	0.000418
266.1133	0.000081
266.3221	0.000503
266.5310	-0.000489
266.7399	0.000165
266.9488	0.000376
267.1577	0.001136
267.3666	-0.000236
267.5755	-0.000468
267.7845	0.000461
267.9935	0.000672
268.2024	-0.001227
268.4114	0.001790
268.6205	-0.000847
268.8295	0.000334
269.0385	-0.000531
269.2476	0.000545
269.4566	-0.001923
269.6657	0.001389
269.8748	-0.000658
270.0839	0.000735
270.2931	-0.000805
270.5022	-0.000215
270.7114	0.000123
270.9205	0.001473
271.1297	0.001980
271.3389	0.000418
271.5481	-0.000573
271.7573	0.000081
271.9666	-0.000404
272.1758	0.001642
272.3851	-0.000320
272.5944	0.000629
272.8037	0.000039
273.0130	0.000292
273.2223	-0.000341
273.4316	-0.000151
273.6410	-0.000911
273.8504	-0.000193
274.0597	-0.000594
274.2691	-0.000109
274.4785	0.000397
274.6880	-0.000025
274.8974	-0.000257
275.1069	-0.000679
275.3163	0.000355
275.5258	0.000988
275.7353	-0.000383
275.9448	0.001305
276.1543	0.001368
276.3639	-0.000847
276.5734	-0.000257
276.7830	0.001347
276.9926	-0.000995
277.2022	0.000672
277.4118	-0.000995
277.6214	0.000925
277.8310	-0.000636
278.0407	-0.000004
278.2503	-0.000974
278.4600	0.001030
278.6697	0.000018
278.8794	0.000376
279.0891	0.000461
279.2989	-0.000299
279.5086	0.000186
279.7184	0.000292
279.9281	-0.000636
280.1379	0.000946
280.3477	0.000123
280.5576	-0.000088
280.7674	0.000250
280.9772	-0.001037
281.1871	0.000883
281.3970	0.000440
281.6069	0.001769
281.8168	-0.000130
282.0267	-0.000763
282.2366	0.000102
282.4466	0.000925
282.6565	-0.000362
282.8665	0.001790
283.0765	0.001157
283.2865	-0.000447
283.4965	0.000018
283.7065	0.000693
283.9166	0.000440
284.1266	0.000608
284.3367	-0.000425
284.5468	0.002106
284.7569	0.000798
284.9670	0.000039
285.1771	0.000018
285.3873	-0.000151
285.5974	0.001811
285.8076	0.000271
286.0178	0.000144
286.2280	0.000440
286.4382	0.000988
286.6484	-0.000320
286.8587	-0.000573
287.0689	-0.002092
287.2792	0.000608
287.4895	0.000039
287.6998	0.000798
287.9101	0.000693
288.1204	0.000461
288.3308	0.000524
288.5411	0.002106
288.7515	-0.000046
288.9619	-0.000257
289.1723	-0.000046
289.3827	0.000461
289.5931	0.000440
289.8035	0.000292
290.0140	0.000714
290.2245	0.001073
290.4349	-0.000362
290.6454	0.000229
290.8559	0.000165
291.0665	0.000376
291.2770	0.001262
291.4875	-0.000004
291.6981	0.000376
291.9087	0.001558
292.1193	-0.000658
292.3299	-0.000236
292.5405	0.000566
292.7511	-0.001649
292.9618	0.000672
293.1724	-0.000278
293.3831	0.000672
293.5938	0.000672
293.8045	0.000250
294.0152	-0.000531
294.2260	-0.000067
294.4367	0.001030
294.6475	0.000039
294.8582	0.000756
295.0690	-0.000320
295.2798	0.001642
295.4906	0.000735
295.7015	-0.001291
295.9123	0.000693
296.1232	0.000207
296.3340	0.000313
296.5449	-0.000425
296.7558	-0.000468
296.9667	0.000672
297.1777	-0.000320
297.3886	-0.000130
297.5995	0.000207
297.8105	0.001600
298.0215	0.001094
298.2325	-0.000067
298.4435	0.000102
298.6545	0.000756
298.8656	-0.001860
299.0766	0.000292
299.2877	0.000207
299.4988	0.001283
299.7099	0.001326
299.9210	-0.000658
300.1321	-0.000257
300.3432	-0.000004
300.5544	-0.000763
300.7655	0.001916
300.9767	0.001811
301.1879	0.002001
301.3991	0.000165
301.6103	-0.000151
301.8215	0.000144
302.0328	0.000334
302.2441	0.000039
302.4553	0.001431
302.6666	-0.000257
302.8779	0.000777
303.0892	0.001178
303.3006	0.000629
303.5119	0.000840
303.7233	0.000608
303.9346	-0.001354
304.1460	-0.000025
304.3574	0.001009
304.5688	0.000819
304.7803	-0.000869
304.9917	-0.000594
305.2031	0.000524
305.4146	0.000735
305.6261	0.000292
305.8376	-0.000215
306.0491	-0.000594
306.2606	-0.000468
306.4722	0.000777
306.6837	-0.000974
306.8953	-0.000742
307.1069	-0.000594
307.3184	-0.000552
307.5301	0.000397
307.7417	0.000186
307.9533	0.000651
308.1650	-0.000383
308.3766	0.000060
308.5883	0.000207
308.8000	-0.001101
309.0117	-0.000658
309.2234	0.000672
309.4351	0.001241
309.6469	0.000418
309.8586	0.000819
310.0704	-0.000193
310.2822	0.000313
310.4940	0.001283
310.7058	-0.000067
310.9176	-0.000679
311.1295	0.000883
311.3413	0.002064
311.5532	-0.000594
311.7651	0.000102
311.9770	0.000123
312.1889	0.000587
312.4008	0.000144
312.6127	-0.000025
312.8247	-0.000383
313.0366	0.001157
313.2486	-0.001037
313.4606	0.000081
313.6726	-0.000826
313.8846	0.001621
314.0967	-0.000404
314.3087	0.001030
314.5208	-0.001122
314.7328	0.000440
314.9449	-0.000763
315.1570	0.000672
315.3692	-0.000004
315.5813	0.001558
315.7934	0.001115
316.0056	0.000376
316.2177	0.000060
316.4299	-0.000088
316.6421	0.001621
316.8543	0.000123
317.0666	0.001368
317.2788	0.000376
317.4911	-0.001122
317.7033	-0.001649
317.9156	-0.000278
318.1279	0.000250
318.3402	-0.000067
318.5525	0.000229
318.7649	0.000735
318.9772	0.001705
319.1896	0.000334
319.4019	-0.001291
319.6143	0.000229
319.8267	0.001895
320.0392	0.000524
320.2516	0.000587
320.4640	0.000292
320.6765	0.001030
320.8890	-0.000109
321.1014	0.000883
321.3139	0.002149
321.5265	-0.000447
321.7390	-0.000847
321.9515	0.001220
322.1641	-0.001164
322.3766	0.000862
322.5892	0.001326
322.8018	0.000144
323.0144	0.000397
323.2270	0.001283
323.4397	0.000102
323.6523	-0.000404
323.8650	-0.000573
324.0777	0.000482
324.2904	0.000376
324.5031	0.000819
324.7158	0.000461
324.9285	0.000925
325.1412	0.000271
325.3540	0.000904
325.5668	0.000144
325.7796	0.001178
325.9924	0.001051
326.2052	-0.000594
326.4180	0.000102
326.6308	-0.000573
326.8437	0.000292
327.0566	-0.000193
327.2694	-0.001058
327.4823	0.000186
327.6952	0.000081
327.9082	-0.000151
328.1211	-0.000489
328.3340	0.001326
328.5470	0.000608
328.7600	0.001220
328.9730	-0.000025
329.1860	0.000629
329.3990	-0.001185
329.6120	-0.000151
329.8251	-0.000700
330.0381	0.001094
330.2512	0.000334
330.4643	0.001305
330.6774	0.000102
330.8905	-0.000067
331.1036	0.000503
331.3167	-0.000700
331.5299	-0.000362
331.7431	-0.000362
331.9562	-0.000025
332.1694	0.000524
332.3826	-0.000383
332.5959	0.000545
332.8091	0.000123
333.0223	0.000482
333.2356	0.000018
333.4489	0.000756
333.6622	-0.000004
333.8755	0.000967
334.0888	0.001705
334.3021	0.000651
334.5154	0.001178
334.7288	0.000798
334.9422	-0.000193
335.1555	0.000693
335.3689	0.000039
335.5823	0.001051
335.7958	-0.001312
336.0092	-0.000953
336.2227	-0.000742
336.4361	0.001115
336.6496	-0.001269
336.8631	-0.000130
337.0766	0.001516
337.2901	0.001494
337.5036	0.000482
337.7172	0.000018
337.9307	0.000693
338.1443	0.001094
338.3579	-0.001712
338.5715	-0.000172
338.7851	0.000482
338.9987	-0.000383
339.2124	0.000418
339.4260	0.001157
339.6397	0.000524
339.8533	0.000988
340.0670	-0.000615
340.2807	0.000503
340.4945	-0.000573
340.7082	0.001769
340.9219	-0.000025
341.1357	0.001368
341.3495	0.000629
341.5633	0.000250
341.7771	0.001009
341.9909	0.000840
342.2047	0.000545
342.4185	0.000756
342.6324	0.000503
342.8463	0.001136
343.0601	0.000503
343.2740	-0.000172
343.4879	0.000376
343.7019	0.001853
343.9158	0.000819
344.1297	0.000313
344.3437	-0.000320
344.5577	0.000524
344.7717	0.000440
344.9857	0.000566
345.1997	0.000186
345.4137	0.002570
345.6277	0.001073
345.8418	-0.000594
346.0559	-0.000004
346.2699	0.000798
346.4840	0.001094
346.6981	0.000207
346.9123	0.000418
347.1264	0.000207
347.3406	0.000292
347.5547	0.001473
347.7689	-0.000869
347.9831	0.000397
348.1973	-0.000425
348.4115	0.001178
348.6257	-0.000278
348.8400	0.000144
349.0542	0.000608
349.2685	-0.000236
349.4828	-0.000447
349.6971	0.000144
349.9114	-0.000932
350.1257	-0.000172
350.3400	0.000292
350.5544	0.000840
350.7687	0.001621
350.9831	0.001115
351.1975	-0.000974
351.4119	-0.000510
351.6263	-0.000890
351.8407	0.000862
352.0552	-0.001480
352.2696	0.001136
352.4841	-0.000172
352.6986	-0.000067
352.9131	0.000967
353.1276	-0.000151
353.3421	0.001537
353.5566	-0.000721
353.7712	0.000756
353.9858	0.000587
354.2003	-0.000594
354.4149	0.000207
354.6295	0.000313
354.8441	0.000081
355.0588	-0.000953
355.2734	-0.000594
355.4881	-0.000383
355.7027	-0.000215
355.9174	-0.000088
356.1321	0.002149
356.3468	-0.000552
356.5615	-0.000299
356.7763	0.001051
356.9910	0.001073
357.2058	0.000777
357.4206	0.000946
357.6353	-0.000004
357.8501	-0.000805
358.0650	0.000165
358.2798	0.000186
358.4946	-0.001860
358.7095	-0.000404
358.9243	-0.000594
359.1392	0.000440
359.3541	-0.000826
359.5690	0.001115
359.7839	-0.000109
359.9989	0.001558
360.2138	0.000060
360.4288	-0.000004
360.6438	0.000207
360.8587	0.000988
361.0737	-0.000109
361.2888	0.000629
361.5038	0.000376
361.7188	0.000482
361.9339	-0.000679
362.1489	0.000503
362.3640	-0.000425
362.5791	-0.000172
362.7942	0.000313
363.0093	-0.000046
363.2245	-0.000067
363.4396	-0.000404
363.6548	-0.000172
363.8699	-0.000510
364.0851	0.001558
364.3003	-0.000869
364.5155	0.000123
364.7308	0.000418
364.9460	-0.001438
365.1612	0.001051
365.3765	-0.000362
365.5918	-0.000742
365.8071	0.000376
366.0224	0.000461
366.2377	0.001305
366.4530	0.001073
366.6684	-0.000088
366.8837	0.001262
367.0991	0.000756
367.3145	0.000039
367.5299	0.000946
367.7453	-0.000088
367.9607	0.001073
368.1761	0.001220
368.3916	-0.000004
368.6070	-0.000067
368.8225	-0.000594
369.0380	0.000144
369.2535	0.000798
369.4690	-0.001058
369.6845	-0.001080
369.9001	0.000819
370.1156	-0.000257
370.3312	0.000693
370.5468	0.000629
370.7624	0.001115
370.9780	0.001621
371.1936	0.000756
371.4092	-0.000869
371.6249	0.001368
371.8405	0.000735
372.0562	0.000819
372.2719	-0.000362
372.4876	0.001347
372.7033	0.000250
372.9190	0.000714
373.1348	-0.000742
373.3505	0.000672
373.5663	-0.000573
373.7820	-0.000404
373.9978	0.000102
374.2136	0.001136
374.4294	-0.000046
374.6453	0.001516
374.8611	-0.000215
375.0770	0.000376
375.2928	0.001241
375.5087	0.000334
375.7246	-0.000468
375.9405	0.000123
376.1564	-0.000658
376.3724	-0.001438
376.5883	0.001600
376.8043	0.001368
377.0203	-0.000025
377.2362	0.001009
377.4522	0.000904
377.6682	0.001452
377.8843	-0.000826
378.1003	-0.000004
378.3164	0.000862
378.5324	0.002191
378.7485	-0.000847
378.9646	0.000039
379.1807	0.000798
379.3968	0.001136
379.6129	-0.000215
379.8291	-0.000341
380.0452	-0.000573
380.2614	-0.000193
380.4776	0.000545
380.6938	-0.001143
380.9100	0.001769
381.1262	-0.000088
381.3424	-0.000700
381.5587	0.000440
381.7749	-0.000004
381.9912	-0.001080
382.2075	0.002127
382.4238	0.000629
382.6401	-0.000721
382.8564	0.000967
383.0728	-0.000404
383.2891	0.000018
383.5055	0.000904
383.7219	-0.000088
383.9382	0.000862
384.1546	0.001094
384.3711	0.000988
384.5875	0.000292
384.8039	-0.000109
385.0204	0.002001
385.2368	0.000587
385.4533	0.000334
385.6698	0.000693
385.8863	-0.000151
386.1028	0.001220
386.3194	0.000207
386.5359	-0.000383
386.7525	0.001790
386.9690	0.000503
387.1856	0.000714
387.4022	0.000440
387.6188	0.001262
387.8355	-0.000510
388.0521	0.002149
388.2687	0.000482
388.4854	0.001473
388.7021	0.000756
388.9188	0.001241
389.1355	0.000672
389.3522	0.001283
389.5689	0.000207
389.7856	0.000334
390.0024	0.000524
390.2192	0.001642
390.4359	-0.000299
390.6527	0.001347
390.8695	0.000672
391.0863	0.001389
391.3032	0.000925
391.5200	0.001368
391.7369	0.002760
391.9537	0.000629
392.1706	-0.000404
392.3875	0.001579
392.6044	0.001874
392.8213	0.001579
393.0383	0.003035
393.2552	0.001895
393.4722	0.001938
393.6891	0.002444
393.9061	0.002149
394.1231	0.000355
394.3401	0.001916
394.5572	0.002655
394.7742	0.000925
394.9912	0.002317
395.2083	0.003161
395.4254	0.003393
395.6425	0.002022
395.8596	0.003203
396.0767	0.002845
396.2938	0.003309
396.5109	0.002549
396.7281	0.001073
396.9453	0.003182
397.1624	0.003309
397.3796	0.002170
397.5968	0.003077
397.8140	0.002317
398.0313	0.004469
398.2485	0.003689
398.4658	0.005482
398.6830	0.002634
398.9003	0.004364
399.1176	0.005925
399.3349	0.003984
399.5522	0.003203
399.7696	0.005334
399.9869	0.004934
400.2043	0.004322
400.4216	0.005145
400.6390	0.004723
400.8564	0.004237
401.0738	0.005102
401.2912	0.006495
401.5087	0.006199
401.7261	0.003668
401.9436	0.006727
402.1610	0.003393
402.3785	0.006664
402.5960	0.004955
402.8135	0.005060
403.0310	0.005609
403.2486	0.006664
403.4661	0.005820
403.6837	0.006685
403.9013	0.007107
404.1189	0.005904
404.3365	0.007360
404.5541	0.006642
404.7717	0.006537
404.9893	0.006832
405.2070	0.004997
405.4246	0.007149
405.6423	0.008162
405.8600	0.007423
406.0777	0.007486
406.2954	0.008014
406.5131	0.007086
406.7309	0.006853
406.9486	0.007423
407.1664	0.006832
407.3842	0.008499
407.6020	0.008183
407.8198	0.005967
408.0376	0.008140
408.2554	0.009217
408.4733	0.009132
408.6911	0.007634
408.9090	0.007128
409.1269	0.010039
409.3448	0.009217
409.5627	0.007719
409.7806	0.008647
409.9985	0.008478
410.2165	0.009048
410.4344	0.008478
410.6524	0.009427
410.8704	0.010947
411.0884	0.008077
411.3064	0.009533
411.5244	0.008879
411.7424	0.008647
411.9605	0.009997
412.1785	0.010504
412.3966	0.009913
412.6147	0.010398
412.8328	0.010862
413.0509	0.010229
413.2690	0.011073
413.4871	0.010461
413.7053	0.010314
413.9234	0.011432
414.1416	0.011833
414.3598	0.011052
414.5780	0.011369
414.7962	0.010904
415.0144	0.011115
415.2326	0.013584
415.4509	0.010124
415.6692	0.011073
415.8874	0.010145
416.1057	0.012677
416.3240	0.011347
416.5423	0.013373
416.7606	0.011664
416.9790	0.011980
417.1973	0.011326
417.4157	0.012571
417.6341	0.011179
417.8524	0.009871
418.0708	0.011284
418.2893	0.013795
418.5077	0.012782
418.7261	0.012128
418.9446	0.012550
419.1630	0.011242
419.3815	0.013879
419.6000	0.013141
419.8185	0.013267
420.0370	0.011854
420.2555	0.014491
420.4741	0.015989
420.6926	0.014090
420.9112	0.013647
421.1298	0.012592
421.3483	0.014597
421.5669	0.016158
421.7856	0.016854
422.0042	0.017023
422.2228	0.017529
422.4415	0.016728
422.6601	0.015694
422.8788	0.014132
423.0975	0.016200
423.3162	0.014428
423.5349	0.016643
423.7536	0.015398
423.9724	0.016474
424.1911	0.013837
424.4099	0.016031
424.6287	0.015272
424.8475	0.016095
425.0663	0.015103
425.2851	0.015757
425.5039	0.015483
425.7228	0.015630
425.9416	0.013689
426.1605	0.013921
426.3793	0.015166
426.5982	0.015251
426.8171	0.012212
427.0361	0.014154
427.2550	0.015230
427.4739	0.017297
427.6929	0.016791
427.9118	0.016284
428.1308	0.016284
428.3498	0.016284
428.5688	0.015968
428.7878	0.017867
429.0068	0.015377
429.2259	0.017635
429.4449	0.017740
429.6640	0.019449
429.8831	0.020546
430.1022	0.021053
430.3213	0.021222
430.5404	0.020209
430.7595	0.019935
430.9787	0.019850
431.1978	0.019091
431.4170	0.017107
431.6362	0.018268
431.8553	0.017635
432.0745	0.016306
432.2938	0.018183
432.5130	0.015187
432.7322	0.016875
432.9515	0.016939
433.1707	0.014787
433.3900	0.016517
433.6093	0.018542
433.8286	0.020124
434.0479	0.019787
434.2673	0.019069
434.4866	0.018226
434.7059	0.018437
434.9253	0.016896
435.1447	0.016770
435.3641	0.016791
435.5835	0.018985
435.8029	0.016770
436.0223	0.016728
436.2418	0.017867
436.4612	0.017782
436.6807	0.019407
436.9001	0.018268
437.1196	0.017424
437.3391	0.017487
437.5586	0.017614
437.7782	0.015546
437.9977	0.018247
438.2173	0.018141
438.4368	0.017761
438.6564	0.018479
438.8760	0.018816
439.0956	0.019217
439.3152	0.020800
439.5348	0.017951
439.7545	0.017593
439.9741	0.018268
440.1938	0.018099
440.4135	0.020124
440.6331	0.019196
440.8528	0.016833
441.0725	0.020378
441.2923	0.022867
441.5120	0.022361
441.7318	0.023964
441.9515	0.021622
442.1713	0.020335
442.3911	0.021538
442.6109	0.021454
442.8307	0.018964
443.0505	0.018985
443.2703	0.019175
443.4902	0.021601
443.7101	0.022065
443.9299	0.020652
444.1498	0.019787
444.3697	0.020103
444.5896	0.021918
444.8095	0.020356
445.0295	0.021243
445.2494	0.019766
445.4694	0.022044
445.6894	0.021665
445.9093	0.019302
446.1293	0.020082
446.3493	0.020884
446.5694	0.020926
446.7894	0.019175
447.0094	0.019386
447.2295	0.019618
447.4496	0.019850
447.6696	0.019238
447.8897	0.020884
448.1098	0.018732
448.3300	0.017825
448.5501	0.019154
448.7702	0.017107
448.9904	0.018626
449.2106	0.016875
449.4307	0.019745
449.6509	0.017698
449.8711	0.019829
450.0914	0.017318
450.3116	0.016749
450.5318	0.018352
450.7521	0.018373
450.9724	0.017023
451.1926	0.017614
451.4129	0.016095
451.6332	0.017339
451.8535	0.013943
452.0739	0.016432
452.2942	0.016327
452.5146	0.016981
452.7349	0.017002
452.9553	0.016939
453.1757	0.013985
453.3961	0.016263
453.6165	0.016221
453.8369	0.016116
454.0574	0.015905
454.2778	0.013689
454.4983	0.014259
454.7188	0.013753
454.9393	0.013584
455.1597	0.014554
455.3803	0.013964
455.6008	0.017002
455.8213	0.016010
456.0419	0.016453
456.2624	0.014702
456.4830	0.014512
456.7036	0.015019
456.9242	0.013647
457.1448	0.014322
457.3654	0.014154
457.5860	0.012803
457.8067	0.015673
458.0274	0.014449
458.2480	0.014069
458.4687	0.016179
458.6894	0.014955
458.9101	0.014913
459.1308	0.015736
459.3516	0.014681
459.5723	0.014702
459.7931	0.014196
460.0138	0.012909
460.2346	0.013626
460.4554	0.014934
460.6762	0.014111
460.8970	0.013668
461.1178	0.013563
461.3387	0.013246
461.5595	0.013331
461.7804	0.013605
462.0013	0.011917
462.2222	0.009617
462.4431	0.011200
462.6640	0.010651
462.8849	0.009470
463.1059	0.010862
463.3268	0.013267
463.5478	0.012698
463.7687	0.012571
463.9897	0.013689
464.2107	0.012656
464.4317	0.014006
464.6528	0.013099
464.8738	0.012508
465.0948	0.013014
465.3159	0.012824
465.5370	0.012571
465.7581	0.013204
465.9792	0.013078
466.2003	0.012065
466.4214	0.011179
466.6425	0.011158
466.8637	0.010588
467.0848	0.009280
467.3060	0.010187
467.5272	0.010335
467.7484	0.009470
467.9696	0.009027
468.1908	0.010356
468.4120	0.008520
468.6333	0.009849
468.8545	0.009153
469.0758	0.007993
469.2970	0.008204
469.5183	0.008309
469.7396	0.006347
469.9610	0.008246
470.1823	0.006790
470.4036	0.008900
470.6250	0.006853
470.8463	0.007191
471.0677	0.007592
471.2891	0.006896
471.5105	0.006010
471.7319	0.006896
471.9533	0.006453
472.1748	0.007381
472.3962	0.007444
472.6177	0.007697
472.8391	0.005714
473.0606	0.008605
473.2821	0.006010
473.5036	0.007465
473.7251	0.005588
473.9467	0.005862
474.1682	0.008225
474.3898	0.005799
474.6113	0.007043
474.8329	0.006389
475.0545	0.006115
475.2761	0.006579
475.4977	0.008035
475.7193	0.007613
475.9410	0.006073
476.1626	0.005145
476.3843	0.006579
476.6060	0.007339
476.8277	0.006980
477.0494	0.006790
477.2711	0.005735
477.4928	0.006326
477.7145	0.005060
477.9363	0.006199
478.1580	0.006790
478.3798	0.006368
478.6016	0.005461
478.8234	0.007866
479.0452	0.006600
479.2670	0.007170
479.4888	0.004490
479.7107	0.005208
479.9325	0.004997
480.1544	0.006052
480.3763	0.004976
480.5982	0.006832
480.8201	0.005292
481.0420	0.006600
481.2639	0.006495
481.4859	0.005735
481.7078	0.004301
481.9298	0.005018
482.1517	0.005081
482.3737	0.005735
482.5957	0.005461
482.8177	0.005250
483.0398	0.005946
483.2618	0.004891
483.4838	0.004701
483.7059	0.003562
483.9280	0.004216
484.1501	0.005018
484.3721	0.004765
484.5943	0.004934
484.8164	0.005524
485.0385	0.005250
485.2606	0.005166
485.4828	0.007360
485.7050	0.011094
485.9271	0.016242
486.1493	0.013985
486.3715	0.012930
486.5937	0.009111
486.8160	0.008626
487.0382	0.007086
487.2605	0.008858
487.4827	0.005334
487.7050	0.003647
487.9273	0.004005
488.1496	0.004111
488.3719	0.003815
488.5942	0.004237
488.8165	0.004216
489.0389	0.003710
489.2612	0.003710
489.4836	0.002950
489.7060	0.004427
489.9284	0.004301
490.1508	0.002149
490.3732	0.004047
490.5956	0.003436
490.8180	0.004343
491.0405	0.002423
491.2630	0.002402
491.4854	0.003858
491.7079	0.004723
491.9304	0.002929
492.1529	0.003562
492.3755	0.004301
492.5980	0.003858
492.8205	0.002971
493.0431	0.004068
493.2657	0.003731
493.4882	0.003900
493.7108	0.004153
493.9334	0.003752
494.1561	0.002317
494.3787	0.003246
494.6013	0.002803
494.8240	0.003246
495.0466	0.002570
495.2693	0.001494
495.4920	0.002992
495.7147	0.002929
495.9374	0.000925
496.1601	0.003309
496.3829	0.002360
496.6056	0.003836
496.8284	0.002001
497.0511	0.002191
497.2739	0.002296
497.4967	0.003288
497.7195	0.002887
497.9423	0.001705
498.1652	0.001600
498.3880	0.002971
498.6109	0.002760
498.8337	0.003815
499.0566	0.002486
499.2795	0.002676
499.5024	0.002549
499.7253	0.002444
499.9482	0.003351
500.1712	0.004195
500.3941	0.002676
500.6171	0.002001
500.8400	0.002191
501.0630	0.003309
501.2860	0.001853
501.5090	0.003625
501.7320	0.001537
501.9551	0.002950
502.1781	0.003035
502.4012	0.001811
502.6242	0.002781
502.8473	0.003499
503.0704	0.002549
503.2935	0.002212
503.5166	0.002444
503.7397	0.003900
503.9628	0.002887
504.1860	0.003119
504.4092	0.002127
504.6323	0.003710
504.8555	0.002887
505.0787	0.003309
505.3019	0.002275
505.5251	0.002338
505.7483	0.001537
505.9716	0.001938
506.1948	0.003794
506.4181	0.003246
506.6414	0.002739
506.8647	0.002739
507.0880	0.003098
507.3113	0.001262
507.5346	0.002655
507.7579	0.002233
507.9813	0.002360
508.2046	0.001431
508.4280	0.002444
508.6514	0.002908
508.8748	0.002739
509.0982	0.002803
509.3216	0.002866
509.5450	0.002971
509.7685	0.002423
509.9919	0.002022
510.2154	0.002697
510.4388	0.002570
510.6623	0.002908
510.8858	0.002866
511.1093	0.002423
511.3329	0.003815
511.5564	0.002971
511.7799	0.001959
512.0035	0.002570
512.2270	0.000967
512.4506	0.001178
512.6742	0.002908
512.8978	0.001705
513.1214	0.002402
513.3451	0.000313
513.5687	0.003731
513.7923	0.001853
514.0160	0.003794
514.2397	0.001579
514.4634	0.002127
514.6871	0.002402
514.9108	0.002570
515.1345	0.002549
515.3582	0.002360
515.5819	0.000651
515.8057	0.002001
516.0295	0.002781
516.2532	0.002064
516.4770	0.002106
516.7008	0.002655
516.9246	0.002275
517.1485	0.003457
517.3723	0.001452
517.5961	0.002381
517.8200	0.001938
518.0439	0.001305
518.2677	0.001642
518.4916	0.000777
518.7155	0.001600
518.9395	0.002001
519.1634	0.001769
519.3873	0.001642
519.6113	0.002803
519.8352	0.002803
520.0592	0.003140
520.2832	0.002781
520.5072	0.003478
520.7312	0.002549
520.9552	0.003161
521.1792	0.003288
521.4033	0.002423
521.6273	0.003372
521.8514	0.001642
522.0755	0.002296
522.2996	0.001684
522.5237	0.001073
522.7478	0.002317
522.9719	0.001642
523.1960	0.003267
523.4202	0.001642
523.6443	0.004005
523.8685	0.002275
524.0927	0.003583
524.3169	0.003203
524.5411	0.001347
524.7653	0.003077
524.9895	0.004174
525.2138	0.001705
525.4380	0.003752
525.6623	0.003119
525.8865	0.002866
526.1108	0.002360
526.3351	0.003668
526.5594	0.001642
526.7837	0.002697
527.0081	0.003668
527.2324	0.003161
527.4568	0.004638
527.6811	0.003921
527.9055	0.003773
528.1299	0.004174
528.3543	0.002085
528.5787	0.002402
528.8031	0.003752
529.0276	0.004997
529.2520	0.003794
529.4765	0.004216
529.7009	0.003815
529.9254	0.004448
530.1499	0.003836
530.3744	0.003478
530.5989	0.004385
530.8234	0.003499
531.0480	0.005461
531.2725	0.004891
531.4971	0.003267
531.7217	0.004216
531.9462	0.003562
532.1708	0.003921
532.3954	0.003858
532.6200	0.004828
532.8447	0.004617
533.0693	0.003773
533.2940	0.003942
533.5186	0.005988
533.7433	0.005419
533.9680	0.005735
534.1927	0.005461
534.4174	0.006495
534.6421	0.006199
534.8668	0.005630
535.0916	0.005292
535.3163	0.005735
535.5411	0.005862
535.7659	0.006938
535.9907	0.007423
536.2155	0.006537
536.4403	0.006896
536.6651	0.006600
536.8899	0.007297
537.1148	0.005925
537.3396	0.004322
537.5645	0.006389
537.7894	0.008140
538.0143	0.005102
538.2392	0.007001
538.4641	0.007887
538.6890	0.006832
538.9139	0.007064
539.1389	0.007740
539.3638	0.008267
539.5888	0.007529
539.8138	0.007444
540.0388	0.007719
540.2638	0.008520
540.4888	0.008668
540.7138	0.009934
540.9389	0.008731
541.1639	0.009660
541.3890	0.008056
541.6140	0.008035
541.8391	0.009807
542.0642	0.009174
542.2893	0.010968
542.5144	0.010377
542.7396	0.008647
542.9647	0.010989
543.1899	0.008879
543.4150	0.009744
543.6402	0.008773
543.8654	0.010124
544.0906	0.011727
544.3158	0.011791
544.5410	0.010989
544.7662	0.012634
544.9915	0.011495
545.2167	0.011453
545.4420	0.010314
545.6673	0.013289
545.8926	0.012297
546.1179	0.011580
546.3432	0.011284
546.5685	0.010904
546.7938	0.011495
547.0192	0.011136
547.2445	0.013415
547.4699	0.014407
547.6953	0.014196
547.9206	0.014470
548.1460	0.016622
548.3715	0.016052
548.5969	0.015820
548.8223	0.016474
549.0478	0.014576
549.2732	0.015863
549.4987	0.015293
549.7242	0.014386
549.9496	0.013183
550.1751	0.013521
550.4007	0.012972
550.6262	0.014217
550.8517	0.013331
551.0773	0.012255
551.3028	0.013352
551.5284	0.013078
551.7540	0.015588
551.9796	0.015778
552.2052	0.016221
552.4308	0.018880
552.6564	0.016580
552.8820	0.018099
553.1077	0.017255
553.3333	0.016728
553.5590	0.019365
553.7847	0.018331
554.0104	0.018415
554.2361	0.019133
554.4618	0.017466
554.6875	0.016749
554.9132	0.017508
555.1390	0.017424
555.3648	0.018162
555.5905	0.021116
555.8163	0.019449
556.0421	0.020546
556.2679	0.020821
556.4937	0.021517
556.7195	0.020567
556.9454	0.019935
557.1712	0.020947
557.3971	0.020652
557.6230	0.019428
557.8488	0.021433
558.0747	0.021369
558.3006	0.020167
558.5266	0.019534
558.7525	0.019977
558.9784	0.018943
559.2044	0.019956
559.4303	0.019702
559.6563	0.021285
559.8823	0.022466
560.1083	0.024977
560.3343	0.024724
560.5603	0.024555
560.7863	0.025926
561.0124	0.028205
561.2384	0.027846
561.4645	0.028500
561.6905	0.027277
561.9166	0.025294
562.1427	0.026960
562.3688	0.025230
562.5949	0.026391
562.8211	0.025462
563.0472	0.027003
563.2733	0.028353
563.4995	0.026412
563.7257	0.029387
563.9519	0.029070
564.1781	0.027825
564.4043	0.031475
564.6305	0.029577
564.8567	0.031961
565.0829	0.032172
565.3092	0.031370
565.5355	0.031433
565.7617	0.032826
565.9880	0.031475
566.2143	0.030821
566.4406	0.033691
566.6669	0.032362
566.8932	0.034303
567.1196	0.036370
567.3459	0.040168
567.5723	0.044092
567.7987	0.044303
568.0250	0.044261
568.2514	0.045274
568.4778	0.046772
568.7043	0.051603
568.9307	0.053840
569.1571	0.057595
569.3836	0.062996
569.6100	0.067891
569.8365	0.072934
570.0630	0.078989
570.2895	0.081880
570.5160	0.079200
570.7425	0.084496
570.9690	0.087154
571.1956	0.094834
571.4221	0.098885
571.6487	0.101100
571.8752	0.104582
572.1018	0.106797
572.3284	0.109413
572.5550	0.102535
572.7816	0.095425
573.0082	0.092977
573.2349	0.096944
573.4615	0.108084
573.6882	0.118021
573.9149	0.125490
574.1415	0.123655
574.3682	0.127663
574.5949	0.134056
574.8216	0.133191
575.0484	0.137284
575.2751	0.142348
575.5018	0.136820
575.7286	0.132579
575.9554	0.122114
576.1821	0.124266
576.4089	0.127178
576.6357	0.134858
576.8626	0.141061
577.0894	0.145787
577.3162	0.146757
577.5431	0.154944
577.7699	0.167371
577.9968	0.199271
578.2237	0.192457
578.4505	0.178194
578.6774	0.167160
578.9044	0.159016
579.1313	0.150956
579.3582	0.151083
579.5851	0.158657
579.8121	0.163615
580.0391	0.165514
580.2660	0.161653
580.4930	0.159416
580.7200	0.157897
580.9470	0.161041
581.1741	0.194545
581.4011	0.231151
581.6281	0.253030
581.8552	0.262018
582.0822	0.255393
582.3093	0.243979
582.5364	0.226657
582.7635	0.203069
582.9906	0.189756
583.2177	0.177962
583.4449	0.167455
583.6720	0.151167
583.8991	0.149310
584.1263	0.150745
584.3535	0.153382
584.5807	0.157222
584.8079	0.166527
585.0351	0.178574
585.2623	0.188596
585.4895	0.191359
585.7167	0.187520
585.9440	0.182308
586.1713	0.171421
586.3985	0.164353
586.6258	0.158340
586.8531	0.162307
587.0804	0.172160
587.3077	0.177709
587.5350	0.181401
587.7624	0.178447
587.9897	0.169607
588.2171	0.160936
588.4445	0.158994
588.6718	0.157602
588.8992	0.151188
589.1266	0.140639
589.3540	0.133318
589.5815	0.127262
589.8089	0.128127
590.0363	0.124984
590.2638	0.123929
590.4913	0.115574
590.7187	0.116186
590.9462	0.111375
591.1737	0.105700
591.4012	0.102366
591.6288	0.104075
591.8563	0.102366
592.0838	0.102556
592.3114	0.106670
592.5389	0.122705
592.7665	0.143276
592.9941	0.162075
593.2217	0.161336
593.4493	0.163931
593.6769	0.160471
593.9046	0.155197
594.1322	0.145238
594.3598	0.138255
594.5875	0.136356
594.8152	0.144922
595.0429	0.156631
595.2705	0.156526
595.4983	0.148487
595.7260	0.144647
595.9537	0.137263
596.1814	0.127642
596.4092	0.121545
596.6369	0.114667
596.8647	0.112789
597.0925	0.117283
597.3203	0.117220
597.5481	0.118359
597.7759	0.116987
598.0037	0.115321
598.2315	0.111206
598.4594	0.112282
598.6872	0.125828
598.9151	0.140154
599.1430	0.147285
599.3709	0.146335
599.5988	0.141124
599.8267	0.137326
600.0546	0.146778
600.2825	0.147770
600.5105	0.147369
600.7384	0.145302
600.9664	0.148361
601.1944	0.150344
601.4223	0.145871
601.6503	0.140090
601.8783	0.136968
602.1064	0.135153
602.3344	0.131524
602.5624	0.136039
602.7905	0.132642
603.0185	0.143086
603.2466	0.142643
603.4747	0.154036
603.7028	0.156484
603.9309	0.149458
604.1590	0.140175
604.3871	0.132031
604.6152	0.129035
604.8434	0.127326
605.0715	0.123380
605.2997	0.126545
605.5279	0.132052
605.7561	0.134225
605.9843	0.141567
606.2125	0.135449
606.4407	0.131883
606.6689	0.127895
606.8972	0.122916
607.1254	0.123697
607.3537	0.126735
607.5819	0.129857
607.8102	0.128127
608.0385	0.125596
608.2668	0.119815
608.4951	0.117093
608.7235	0.114013
608.9518	0.112493
609.1801	0.109265
609.4085	0.107978
609.6369	0.108021
609.8653	0.110658
610.0936	0.117494
610.3220	0.121038
610.5505	0.119013
610.7789	0.113759
611.0073	0.111249
611.2357	0.111502
611.4642	0.106396
611.6927	0.110130
611.9211	0.109054
612.1496	0.107092
612.3781	0.105531
612.6066	0.102830
612.8351	0.102598
613.0637	0.104961
613.2922	0.105932
613.5208	0.102830
613.7493	0.102788
613.9779	0.099518
614.2065	0.103062
614.4351	0.104286
614.6637	0.104666
614.8923	0.099560
615.1209	0.102830
615.3495	0.104877
615.5782	0.102830
615.8068	0.103653
616.0355	0.102577
616.2642	0.097450
616.4929	0.091627
616.7216	0.091543
616.9503	0.088146
617.1790	0.084411
617.4077	0.091796
617.6365	0.088441
617.8652	0.087703
618.0940	0.088336
618.3227	0.085255
618.5515	0.081289
618.7803	0.078145
619.0091	0.073609
619.2379	0.073525
619.4667	0.071183
619.6956	0.073757
619.9244	0.074073
620.1533	0.077597
620.3821	0.079052
620.6110	0.078799
620.8399	0.074263
621.0688	0.064115
621.2977	0.060296
621.5266	0.059178
621.7556	0.063735
621.9845	0.065064
622.2135	0.066330
622.4424	0.066773
622.6714	0.069537
622.9004	0.069516
623.1294	0.070908
623.3584	0.074094
623.5874	0.072849
623.8164	0.071056
624.0454	0.069579
624.2745	0.069875
624.5035	0.071436
624.7326	0.074643
624.9617	0.071584
625.1908	0.072575
625.4199	0.069368
625.6490	0.066161
625.8781	0.067575
626.1072	0.063186
626.3364	0.059642
626.5655	0.057806
626.7947	0.058819
627.0238	0.056139
627.2530	0.055781
627.4822	0.056899
627.7114	0.056688
627.9406	0.054388
628.1698	0.051941
628.3991	0.049937
628.6283	0.046624
628.8576	0.046434
629.0868	0.050190
629.3161	0.049704
629.5454	0.052911
629.7747	0.051814
630.0040	0.049726
630.2333	0.049093
630.4626	0.049451
630.6920	0.045527
630.9213	0.048924
631.1507	0.041560
631.3801	0.043966
631.6094	0.042974
631.8388	0.044303
632.0682	0.043375
632.2976	0.043480
632.5271	0.041392
632.7565	0.037172
632.9859	0.038311
633.2154	0.036602
633.4448	0.035041
633.6743	0.035526
633.9038	0.035421
634.1333	0.037235
634.3628	0.035547
634.5923	0.036412
634.8218	0.033248
635.0514	0.031433
635.2809	0.032425
635.5105	0.033269
635.7400	0.034366
635.9696	0.034324
636.1992	0.034387
636.4288	0.037066
636.6584	0.039092
636.8880	0.036560
637.1177	0.037404
637.3473	0.034598
637.5770	0.033269
637.8066	0.034281
638.0363	0.034113
638.2660	0.034387
638.4957	0.036328
638.7254	0.033712
638.9551	0.035611
639.1848	0.034598
639.4145	0.034028
639.6443	0.029338
639.8740	0.032485
640.1038	0.032098
640.3336	0.031161
640.5633	0.029623
640.7931	0.030809
641.0229	0.028867
641.2528	0.028820
641.4826	0.026645
641.7124	0.027647
641.9423	0.027986
642.1721	0.025863
642.4020	0.025940
642.6319	0.026467
642.8617	0.024107
643.0916	0.024128
643.3216	0.024038
643.5515	0.025407
643.7814	0.023024
644.0113	0.021421
644.2413	0.021871
644.4712	0.021827
644.7012	0.024178
644.9312	0.020886
645.1612	0.024163
645.3912	0.023142
645.6212	0.022168
645.8512	0.023848
646.0812	0.019911
646.3113	0.021206
646.5413	0.022315
646.7714	0.018720
647.0015	0.019309
647.2316	0.020930
647.4616	0.019673
647.6918	0.020310
647.9219	0.023085
648.1520	0.026025
648.3821	0.025061
648.6123	0.028580
648.8424	0.028314
649.0726	0.026830
649.3028	0.028190
649.5329	0.027739
649.7631	0.027598
649.9933	0.027221
650.2236	0.026411
650.4538	0.025380
650.6840	0.025159
650.9143	0.022295
651.1445	0.023753
651.3748	0.023427
651.6051	0.022820
651.8354	0.025595
652.0657	0.025771
652.2960	0.026154
652.5263	0.025634
652.7566	0.027517
652.9870	0.024768
653.2173	0.027674
653.4477	0.026371
653.6780	0.027192
653.9084	0.027707
654.1388	0.028582
654.3692	0.027852
654.5996	0.029343
654.8300	0.032979
655.0605	0.048697
655.2909	0.132749
655.5213	0.395849
655.7518	0.793234
655.9823	1.000000
656.2128	1.000000
656.4433	1.000000
656.6738	1.000000
656.9043	0.886110
657.1348	0.706006
657.3653	0.577960
657.5959	0.487978
657.8264	0.430457
658.0570	0.386175
658.2875	0.352349
658.5181	0.320578
658.7487	0.308573
658.9793	0.282078
659.2099	0.233255
659.4406	0.163358
659.6712	0.103325
659.9018	0.058150
660.1325	0.040337
660.3632	0.028846
660.5938	0.021890
660.8245	0.021894
661.0552	0.020268
661.2859	0.020338
661.5166	0.018626
661.7474	0.019325
661.9781	0.018174
662.2088	0.019097
662.4396	0.016468
662.6704	0.016486
662.9011	0.017493
663.1319	0.017754
663.3627	0.017936
663.5935	0.016757
663.8243	0.018177
664.0552	0.017609
664.2860	0.020249
664.5168	0.018169
664.7477	0.019782
664.9786	0.019784
665.2094	0.019357
665.4403	0.020382
665.6712	0.018735
665.9021	0.020133
666.1330	0.020061
666.3640	0.017437
666.5949	0.016219
666.8259	0.017610
667.0568	0.015793
667.2878	0.017215
667.5188	0.018651
667.7497	0.017258
667.9807	0.015888
668.2117	0.017472
668.4428	0.017825
668.6738	0.017128
668.9048	0.017128
669.1359	0.016685
669.3669	0.018732
669.5980	0.017656
669.8291	0.017382
670.0602	0.017867
670.2913	0.018711
670.5224	0.017804
670.7535	0.019597
670.9846	0.018162
671.2157	0.019555
671.4469	0.020652
671.6781	0.024028
671.9092	0.025652
672.1404	0.027319
672.3716	0.028163
672.6028	0.029176
672.8340	0.029830
673.0652	0.026960
673.2964	0.024492
673.5277	0.026264
673.7589	0.023078
673.9902	0.023711
674.2214	0.023542
674.4527	0.023352
674.6840	0.022614
674.9153	0.021200
675.1466	0.020757
675.3779	0.022424
675.6093	0.022382
675.8406	0.020926
676.0719	0.021643
676.3033	0.020905
676.5347	0.020842
676.7661	0.018542
676.9974	0.019091
677.2288	0.018985
677.4602	0.020610
677.6917	0.023479
677.9231	0.022825
678.1545	0.024618
678.3860	0.024724
678.6174	0.026370
678.8489	0.026011
679.0804	0.025505
679.3119	0.026222
679.5434	0.027551
679.7749	0.030484
680.0064	0.029302
680.2379	0.028944
680.4694	0.030104
680.7010	0.029302
680.9325	0.028036
681.1641	0.025526
681.3957	0.028880
681.6273	0.030758
681.8589	0.027467
682.0905	0.025821
682.3221	0.026412
682.5537	0.027382
682.7854	0.025673
683.0170	0.023711
683.2487	0.027572
683.4803	0.025230
683.7120	0.026770
683.9437	0.025758
684.1754	0.027889
684.4071	0.028079
684.6388	0.030083
684.8705	0.031496
685.1023	0.034598
685.3340	0.035526
685.5658	0.037383
685.7975	0.040927
686.0293	0.035421
686.2611	0.036370
686.4929	0.037214
686.7247	0.034134
686.9565	0.036455
687.1883	0.035590
687.4202	0.037299
687.6520	0.035737
687.8838	0.035210
688.1157	0.032910
688.3476	0.031623
688.5795	0.032340
688.8114	0.033184
689.0433	0.028859
689.2752	0.032277
689.5071	0.030062
689.7390	0.029703
689.9710	0.029239
690.2029	0.027213
690.4349	0.027973
690.6669	0.029809
690.8988	0.028669
691.1308	0.030231
691.3628	0.032066
691.5948	0.031665
691.8269	0.033248
692.0589	0.029935
692.2909	0.030146
692.5230	0.029239
692.7550	0.031623
692.9871	0.030315
693.2192	0.031243
693.4513	0.032572
693.6834	0.030315
693.9155	0.031412
694.1476	0.030821
694.3797	0.029302
694.6119	0.026834
694.8440	0.025926
695.0762	0.028901
695.3083	0.028416
695.5405	0.029893
695.7727	0.025083
696.0049	0.025061
696.2371	0.023711
696.4693	0.024661
696.7016	0.027509
696.9338	0.032551
697.1660	0.033923
697.3983	0.034218
697.6306	0.033184
697.8628	0.034007
698.0951	0.029935
698.3274	0.031897
698.5597	0.030969
698.7920	0.030737
699.0243	0.030020
699.2567	0.029133
699.4890	0.028859
699.7214	0.029809
699.9537	0.026243
700.1861	0.027635
700.4185	0.027087
700.6509	0.026095
700.8833	0.027171
701.1157	0.024112
701.3481	0.023036
701.5806	0.023732
701.8130	0.025505
702.0454	0.024281
702.2779	0.025800
702.5104	0.024239
702.7429	0.024028
702.9753	0.024555
703.2078	0.024407
703.4403	0.022952
703.6729	0.023859
703.9054	0.024893
704.1379	0.023922
704.3705	0.022044
704.6030	0.021369
704.8356	0.021032
705.0682	0.019829
705.3008	0.019513
705.5334	0.018753
705.7660	0.019913
705.9986	0.020082
706.2312	0.023585
706.4638	0.024555
706.6965	0.027298
706.9291	0.030062
707.1618	0.032551
707.3945	0.032952
707.6272	0.031897
707.8599	0.031454
708.0926	0.031982
708.3253	0.030716
708.5580	0.030969
708.7907	0.030653
709.0235	0.027488
709.2562	0.027762
709.4890	0.027846
709.7217	0.028564
709.9545	0.027889
710.1873	0.029007
710.4201	0.027678
710.6529	0.027762
710.8857	0.026475
711.1186	0.028648
711.3514	0.027003
711.5842	0.025272
711.8171	0.025230
712.0500	0.023796
712.2828	0.022846
712.5157	0.023985
712.7486	0.024872
712.9815	0.022382
713.2144	0.024196
713.4474	0.026095
713.6803	0.027171
713.9132	0.030378
714.1462	0.027889
714.3791	0.028374
714.6121	0.029344
714.8451	0.027952
715.0781	0.027783
715.3111	0.028479
715.5441	0.029133
715.7771	0.025209
716.0102	0.024977
716.2432	0.025167
716.4762	0.026159
716.7093	0.024787
716.9424	0.024745
717.1754	0.024049
717.4085	0.021137
717.6416	0.023015
717.8747	0.022509
718.1078	0.023669
718.3410	0.024914
718.5741	0.025779
718.8072	0.022931
719.0404	0.024492
719.2736	0.023985
719.5067	0.025505
719.7399	0.024829
719.9731	0.023880
720.2063	0.022551
720.4395	0.023458
720.6727	0.023078
720.9060	0.024175
721.1392	0.025378
721.3725	0.024850
721.6057	0.024386
721.8390	0.022509
722.0723	0.023374
722.3055	0.024682
722.5388	0.023226
722.7721	0.024070
723.0055	0.023036
723.2388	0.023437
723.4721	0.024639
723.7055	0.022129
723.9388	0.023015
724.1722	0.022192
724.4056	0.021601
724.6389	0.021179
724.8723	0.023627
725.1057	0.024998
725.3391	0.026137
725.5726	0.026897
725.8060	0.028754
726.0394	0.027256
726.2729	0.029788
726.5063	0.026538
726.7398	0.025758
726.9733	0.027994
727.2068	0.026074
727.4403	0.026454
727.6738	0.028268
727.9073	0.026074
728.1408	0.028733
728.3743	0.030041
728.6079	0.029366
728.8414	0.027129
729.0750	0.027889
729.3086	0.029176
729.5421	0.030990
729.7757	0.031307
730.0093	0.031475
730.2429	0.029450
730.4766	0.030842
730.7102	0.032868
730.9438	0.035990
731.1775	0.035125
731.4111	0.034324
731.6448	0.037974
731.8785	0.034872
732.1122	0.034535
732.3458	0.034028
732.5795	0.034028
732.8133	0.034809
733.0470	0.035695
733.2807	0.033016
733.5145	0.036708
733.7482	0.035294
733.9820	0.040126
734.2157	0.042911
734.4495	0.045232
734.6833	0.043417
734.9171	0.039493
735.1509	0.040084
735.3847	0.038733
735.6185	0.039155
735.8524	0.039324
736.0862	0.039008
736.3201	0.039408
736.5539	0.038902
736.7878	0.040759
737.0217	0.040906
737.2556	0.041771
737.4895	0.039577
737.7234	0.038185
737.9573	0.034682
738.1912	0.032509
738.4252	0.034661
738.6591	0.033248
738.8931	0.035083
739.1271	0.037003
739.3610	0.037889
739.5950	0.037763
739.8290	0.037003
740.0630	0.036412
740.2970	0.035273
740.5310	0.033058
740.7651	0.031961
740.9991	0.032235
741.2332	0.030357
741.4672	0.028543
741.7013	0.029956
741.9354	0.030442
742.1695	0.027720
742.4036	0.029703
742.6377	0.028606
742.8718	0.029366
743.1059	0.026686
743.3400	0.025863
743.5742	0.024218
743.8083	0.024407
744.0425	0.023395
744.2767	0.023479
744.5108	0.022403
744.7450	0.024344
744.9792	0.024260
745.2134	0.025526
745.4477	0.023057
745.6819	0.023922
745.9161	0.024133
746.1504	0.023711
746.3846	0.024239
746.6189	0.024049
746.8532	0.023416
747.0874	0.023943
747.3217	0.025610
747.5560	0.027129
747.7903	0.027783
748.0247	0.022108
748.2590	0.025188
748.4933	0.022530
748.7277	0.026011
748.9620	0.024703
749.1964	0.025188
749.4308	0.027825
749.6652	0.027213
749.8995	0.028965
750.1339	0.031053
750.3684	0.032594
750.6028	0.033184
750.8372	0.033923
751.0717	0.032298
751.3061	0.031096
751.5406	0.033269
751.7750	0.032509
752.0095	0.034155
752.2440	0.032910
752.4785	0.030631
752.7130	0.030969
752.9475	0.030252
753.1820	0.030653
753.4166	0.031475
753.6511	0.033733
753.8856	0.033037
754.1202	0.033501
754.3548	0.031518
754.5894	0.031159
754.8239	0.034661
755.0585	0.032193
755.2931	0.033944
755.5278	0.032214
755.7624	0.034746
755.9970	0.036096
756.2317	0.036391
756.4663	0.040084
756.7010	0.041560
756.9356	0.042088
757.1703	0.042700
757.4050	0.048185
757.6397	0.049937
757.8744	0.049515
758.1091	0.047911
758.3438	0.048628
758.5786	0.044999
758.8133	0.043712
759.0481	0.045210
759.2828	0.046497
759.5176	0.050443
759.7524	0.049093
759.9872	0.049831
760.2220	0.051308
760.4568	0.049915
760.6916	0.052553
760.9264	0.051962
761.1613	0.049937
761.3961	0.047827
761.6310	0.046371
761.8658	0.041265
762.1007	0.041624
762.3356	0.042025
762.5705	0.040337
762.8054	0.039957
763.0403	0.039008
763.2752	0.041940
763.5101	0.040885
763.7450	0.038459
763.9800	0.038923
764.2149	0.041835
764.4499	0.045421
764.6849	0.045485
764.9198	0.047700
765.1548	0.048143
765.3898	0.048460
765.6248	0.044999
765.8599	0.043565
766.0949	0.042341
766.3299	0.037953
766.5650	0.035716
766.8000	0.034134
767.0351	0.033058
767.2701	0.032024
767.5052	0.031897
767.7403	0.031602
767.9754	0.035716
768.2105	0.035125
768.4456	0.035695
768.6808	0.039429
768.9159	0.039746
769.1510	0.039366
769.3862	0.041117
769.6214	0.038607
769.8565	0.035864
770.0917	0.036834
770.3269	0.036223
770.5621	0.037130
770.7973	0.038459
771.0325	0.039050
771.2677	0.039219
771.5030	0.037594
771.7382	0.038480
771.9735	0.035695
772.2087	0.033817
772.4440	0.032024
772.6793	0.035379
772.9146	0.032826
773.1499	0.032467
773.3852	0.030526
773.6205	0.029724
773.8558	0.032087
774.0911	0.026855
774.3265	0.029239
774.5618	0.029766
774.7972	0.026159
775.0326	0.026285
775.2679	0.024724
775.5033	0.023205
775.7387	0.022994
775.9741	0.021749
776.2095	0.022340
776.4450	0.022298
776.6804	0.022973
776.9158	0.022044
777.1513	0.022023
777.3868	0.019597
777.6222	0.019808
777.8577	0.021411
778.0932	0.021433
778.3287	0.019998
778.5642	0.023120
778.7997	0.022931
779.0352	0.024450
779.2707	0.024513
779.5063	0.025990
779.7418	0.024555
779.9774	0.023817
780.2130	0.023606
780.4485	0.023627
780.6841	0.022487
780.9197	0.026137
781.1553	0.026939
781.3909	0.029028
781.6265	0.026180
781.8622	0.027994
782.0978	0.028057
782.3335	0.028100
782.5691	0.029408
782.8048	0.029302
783.0405	0.028163
783.2761	0.027825
783.5118	0.027678
783.7475	0.027551
783.9832	0.028669
784.2190	0.026370
784.4547	0.026918
784.6904	0.024386
784.9262	0.024492
785.1619	0.023563
785.3977	0.024576
785.6335	0.025125
785.8692	0.023922
786.1050	0.026475
786.3408	0.024239
786.5766	0.024196
786.8124	0.022804
787.0483	0.021812
787.2841	0.023985
787.5199	0.025272
787.7558	0.023395
787.9917	0.024070
788.2275	0.022656
788.4634	0.026412
788.6993	0.027213
788.9352	0.026285
789.1711	0.027150
789.4070	0.023943
789.6429	0.023500
789.8789	0.023458
790.1148	0.022698
790.3507	0.022656
790.5867	0.021158
790.8227	0.020040
791.0586	0.020673
791.2946	0.020884
791.5306	0.019618
791.7666	0.021390
792.0026	0.018985
792.2387	0.020082
792.4747	0.016833
792.7107	0.018605
792.9468	0.016854
793.1828	0.019091
793.4189	0.017804
793.6550	0.020525
793.8910	0.022002
794.1271	0.025990
794.3632	0.026201
794.5993	0.027024
794.8355	0.026306
795.0716	0.028374
795.3077	0.027382
795.5439	0.025441
795.7800	0.024471
796.0162	0.024112
796.2523	0.020504
796.4885	0.017150
796.7247	0.020694
796.9609	0.018837
797.1971	0.017297
797.4333	0.020378
797.6695	0.017888
797.9058	0.019323
798.1420	0.019302
798.3783	0.018669
798.6145	0.017550
798.8508	0.020525
799.0871	0.018880
799.3233	0.018690
799.5596	0.018183
799.7959	0.018479
800.0322	0.017150
800.2686	0.017023
800.5049	0.014660
800.7412	0.015504
800.9776	0.015166
801.2139	0.014175
801.4503	0.015419
801.6867	0.015673
801.9230	0.014343
802.1594	0.013626
802.3958	0.013943
802.6322	0.014386
802.8686	0.014533
803.1051	0.014955
803.3415	0.015757
803.5779	0.014934
803.8144	0.014386
804.0508	0.014132
804.2873	0.015335
804.5238	0.014407
804.7603	0.015166
804.9968	0.014660
805.2333	0.015905
805.4698	0.013774
805.7063	0.015398
805.9428	0.017023
806.1794	0.017107
806.4159	0.018774
806.6525	0.020462
806.8890	0.020230
807.1256	0.019977
807.3622	0.021074
807.5988	0.018331
807.8354	0.020420
808.0720	0.017761
808.3086	0.017804
808.5452	0.017951
808.7818	0.018331
809.0185	0.019787
809.2551	0.018204
809.4918	0.018015
809.7284	0.017888
809.9651	0.018268
810.2018	0.016538
810.4385	0.016306
810.6752	0.014365
810.9119	0.015546
811.1486	0.014892
811.3853	0.015166
811.6221	0.016706
811.8588	0.014006
812.0956	0.011896
812.3323	0.011854
812.5691	0.013584
812.8059	0.011833
813.0427	0.010293
813.2795	0.012867
813.5163	0.013162
813.7531	0.015314
813.9899	0.017571
814.2267	0.015293
814.4636	0.015652
814.7004	0.015841
814.9373	0.013204
815.1742	0.013035
815.4110	0.012888
815.6479	0.011769
815.8848	0.011263
816.1217	0.011010
816.3586	0.011411
816.5955	0.011727
816.8324	0.012128
817.0694	0.011833
817.3063	0.012255
817.5433	0.012550
817.7802	0.011980
818.0172	0.012677
818.2542	0.012276
818.4912	0.012234
818.7282	0.010166
818.9652	0.011031
819.2022	0.008773
819.4392	0.010187
819.6762	0.010293
819.9133	0.010398
820.1503	0.011115
820.3874	0.010630
820.6244	0.012845
820.8615	0.011580
821.0986	0.012276
821.3357	0.013668
821.5727	0.012402
821.8099	0.011495
822.0470	0.011411
822.2841	0.009596
822.5212	0.010989
822.7584	0.009575
822.9955	0.010672
823.2327	0.009723
823.4698	0.008858
823.7070	0.008837
823.9442	0.009723
824.1814	0.010904
824.4186	0.006621
824.6558	0.009617
824.8930	0.007887
825.1302	0.009976
825.3675	0.011242
825.6047	0.011200
825.8419	0.009702
826.0792	0.010841
826.3165	0.008098
826.5537	0.010525
826.7910	0.010651
827.0283	0.011390
827.2656	0.011474
827.5029	0.011791
827.7402	0.011495
827.9776	0.011812
828.2149	0.008457
828.4522	0.011073
828.6896	0.010778
828.9270	0.010208
829.1643	0.010398
829.4017	0.009955
829.6391	0.009301
829.8765	0.010145
830.1139	0.009048
830.3513	0.009617
830.5887	0.008330
830.8261	0.008499
831.0636	0.006157
831.3010	0.008119
831.5385	0.006938
831.7759	0.007043
832.0134	0.007381
832.2509	0.008225
832.4884	0.007297
832.7259	0.008520
832.9634	0.007930
833.2009	0.007233
833.4384	0.006495
833.6759	0.006389
833.9135	0.006664
834.1510	0.008605
834.3886	0.009892
834.6261	0.009174
834.8637	0.008457
835.1013	0.007845
835.3389	0.007972
835.5765	0.008689
835.8141	0.007613
836.0517	0.009617
836.2893	0.007761
836.5269	0.007086
836.7646	0.005693
837.0022	0.006052
837.2399	0.005904
837.4775	0.006600
837.7152	0.004870
837.9529	0.005018
838.1906	0.005820
838.4283	0.005482
838.6660	0.004090
838.9037	0.004512
839.1414	0.004870
839.3791	0.007170
839.6169	0.007740
839.8546	0.005651
840.0924	0.005166
840.3302	0.003773
840.5679	0.004554
840.8057	0.005018
841.0435	0.006389
841.2813	0.004047
841.5191	0.006664
841.7569	0.005461
841.9947	0.004301
842.2326	0.004807
842.4704	0.004385
842.7082	0.004575
842.9461	0.004132
843.1840	0.004828
843.4218	0.003689
843.6597	0.004891
843.8976	0.003900
844.1355	0.004765
844.3734	0.004828
844.6113	0.004891
844.8492	0.003858
845.0872	0.004132
845.3251	0.004090
845.5631	0.004195
845.8010	0.004364
846.0390	0.005081
846.2770	0.005102
846.5149	0.003562
846.7529	0.004870
846.9909	0.003963
847.2289	0.004575
847.4669	0.004216
847.7050	0.005377
847.9430	0.004301
848.1810	0.003478
848.4191	0.004934
848.6571	0.003436
848.8952	0.005292
849.1333	0.003604
849.3713	0.005292
849.6094	0.005081
849.8475	0.004891
850.0856	0.003900
850.3237	0.004068
850.5619	0.003309
850.8000	0.003246
851.0381	0.004469
851.2763	0.003689
851.5144	0.006178
851.7526	0.003604
851.9908	0.005102
852.2289	0.005102
852.4671	0.005820
852.7053	0.007170
852.9435	0.007845
853.1817	0.009786
853.4200	0.010904
853.6582	0.012402
853.8964	0.012761
854.1347	0.011516
854.3729	0.011706
854.6112	0.011643
854.8495	0.012276
855.0877	0.011242
855.3260	0.009385
855.5643	0.011242
855.8026	0.010103
856.0409	0.011031
856.2792	0.010145
856.5176	0.011284
856.7559	0.011242
856.9942	0.009512
857.2326	0.009259
857.4710	0.009027
857.7093	0.008710
857.9477	0.008520
858.1861	0.008330
858.4245	0.007993
858.6629	0.007486
858.9013	0.008478
859.1397	0.006199
859.3781	0.008457
859.6166	0.006537
859.8550	0.008605
860.0935	0.007761
860.3319	0.005904
860.5704	0.006769
860.8089	0.005820
861.0473	0.005714
861.2858	0.004448
861.5243	0.005693
861.7628	0.005883
862.0013	0.003984
862.2399	0.004575
862.4784	0.005271
862.7169	0.004891
862.9555	0.004237
863.1940	0.006263
863.4326	0.006178
863.6712	0.006010
863.9098	0.006959
864.1483	0.006010
864.3869	0.005693
864.6255	0.004005
864.8642	0.005123
865.1028	0.004617
865.3414	0.004976
865.5800	0.004427
865.8187	0.002739
866.0573	0.004955
866.2960	0.003668
866.5347	0.003457
866.7733	0.004723
867.0120	0.005925
867.2507	0.005229
867.4894	0.003963
867.7281	0.004216
867.9669	0.004258
868.2056	0.005419
868.4443	0.006157
868.6831	0.004279
868.9218	0.004891
869.1606	0.002149
869.3993	0.005166
869.6381	0.003014
869.8769	0.002507
870.1157	0.004427
870.3545	0.004005
870.5933	0.005060
870.8321	0.003794
871.0709	0.004448
871.3097	0.006010
871.5486	0.005166
871.7874	0.005545
872.0263	0.004427
872.2651	0.003668
872.5040	0.002676
872.7429	0.004849
872.9818	0.003309
873.2207	0.004153
873.4596	0.003246
873.6985	0.004026
873.9374	0.004976
874.1763	0.004448
874.4153	0.003457
874.6542	0.004322
874.8932	0.004216
875.1321	0.006010
875.3711	0.004026
875.6101	0.005440
875.8491	0.004490
876.0880	0.003900
876.3270	0.005482
876.5661	0.005081
876.8051	0.004617
877.0441	0.004301
877.2831	0.004533
877.5222	0.004364
877.7612	0.004448
878.0003	0.004469
878.2393	0.005145
878.4784	0.005820
878.7175	0.005208
878.9566	0.004912
879.1957	0.004891
879.4348	0.004174
879.6739	0.006263
879.9130	0.007275
880.1521	0.007339
880.3913	0.006621
880.6304	0.007571
880.8696	0.006432
881.1087	0.006284
881.3479	0.007170
881.5871	0.005461
881.8262	0.006136
882.0654	0.005166
882.3046	0.005482
882.5438	0.006368
882.7831	0.005482
883.0223	0.006917
883.2615	0.004976
883.5007	0.004765
883.7400	0.004891
883.9792	0.004258
884.2185	0.004554
884.4578	0.005166
884.6971	0.004680
884.9363	0.005398
885.1756	0.004026
885.4149	0.006558
885.6542	0.004427
885.8936	0.005503
886.1329	0.004934
886.3722	0.004723
886.6116	0.005145
886.8509	0.004279
887.0903	0.004828
887.3296	0.004132
887.5690	0.006558
887.8084	0.005419
888.0478	0.004533
888.2872	0.005735
888.5266	0.003457
888.7660	0.004659
889.0054	0.004744
889.2448	0.004849
889.4843	0.004385
889.7237	0.004427
889.9632	0.003225
890.2026	0.004237
890.4421	0.003625
890.6816	0.004153
890.9211	0.001895
891.1606	0.003773
891.4001	0.002064
891.6396	0.004258
891.8791	0.003625
892.1186	0.004111
892.3581	0.005313
892.5977	0.005166
892.8372	0.004026
893.0768	0.005503
893.3163	0.003647
893.5559	0.004026
893.7955	0.003562
894.0351	0.004005
894.2747	0.003414
894.5143	0.004955
894.7539	0.002971
894.9935	0.003710
895.2331	0.003288
895.4727	0.004132
895.7124	0.004195
895.9520	0.003351
896.1917	0.002971
896.4314	0.003267
896.6710	0.005229
896.9107	0.005250
897.1504	0.004617
897.3901	0.003161
897.6298	0.003541
897.8695	0.004533
898.1092	0.003246
898.3489	0.004490
898.5887	0.006199
898.8284	0.003267
899.0682	0.003625
899.3079	0.003161
899.5477	0.002549
899.7875	0.003161
900.0272	0.002528
900.2670	0.002233
900.5068	0.004237
900.7466	0.004364
900.9864	0.003731
901.2263	0.003267
901.4661	0.003267
901.7059	0.003689
901.9458	0.004364
902.1856	0.004469
902.4255	0.002929
902.6654	0.002592
902.9052	0.002887
903.1451	0.002908
903.3850	0.002444
903.6249	0.003203
903.8648	0.003203
904.1047	0.004301
904.3446	0.003773
904.5846	0.004343
904.8245	0.003731
905.0644	0.002191
905.3044	0.004047
905.5444	0.004596
905.7843	0.004005
906.0243	0.002465
906.2643	0.003457
906.5043	0.005609
906.7443	0.003393
906.9843	0.003330
907.2243	0.003921
907.4643	0.004533
907.7043	0.003604
907.9444	0.005166
908.1844	0.004111
908.4245	0.004153
908.6645	0.004258
908.9046	0.004849
909.1447	0.002613
909.3847	0.002634
909.6248	0.002127
909.8649	0.003836
910.1050	0.002845
910.3452	0.002338
910.5853	0.003035
910.8254	0.002360
911.0655	0.002001
911.3057	0.002950
911.5458	0.002507
911.7860	0.003351
912.0262	0.003035
912.2663	0.003119
912.5065	0.003457
912.7467	0.002866
912.9869	0.004090
913.2271	0.002634
913.4673	0.002360
913.7075	0.002444
913.9478	0.002866
914.1880	0.002127
914.4283	0.002043
914.6685	0.003499
914.9088	0.002043
915.1490	0.002486
915.3893	0.001389
915.6296	0.002950
915.8699	0.003710
916.1102	0.001347
916.3505	0.004891
916.5908	0.002507
916.8311	0.003288
917.0714	0.003541
917.3118	0.002570
917.5521	0.004005
917.7925	0.004068
918.0328	0.004343
918.2732	0.003056
918.5136	0.004490
918.7539	0.002760
918.9943	0.003161
919.2347	0.003014
919.4751	0.002106
919.7155	0.002781
919.9560	0.003879
920.1964	0.002866
920.4368	0.002929
920.6773	0.003499
920.9177	0.004195
921.1582	0.002760
921.3986	0.003203
921.6391	0.002507
921.8796	0.002465
922.1201	0.002592
922.3606	0.004132
922.6011	0.003330
922.8416	0.002929
923.0821	0.003140
923.3226	0.002001
923.5631	0.000967
923.8037	0.003309
924.0442	0.002338
924.2848	0.001642
924.5254	0.003309
924.7659	0.003351
925.0065	0.003077
925.2471	0.001811
925.4877	0.002739
925.7283	0.002676
925.9689	0.002381
926.2095	0.001642
926.4501	0.002338
926.6908	0.001347
926.9314	0.002718
927.1720	0.002739
927.4127	0.002697
927.6533	0.002718
927.8940	0.001452
928.1347	0.000777
928.3754	0.003077
928.6161	0.001874
928.8568	0.001853
929.0975	0.001790
929.3382	0.002085
929.5789	0.002022
929.8196	0.001938
930.0604	0.000862
930.3011	0.000355
930.5419	0.002444
930.7826	0.000714
931.0234	0.003035
931.2642	0.002781
931.5049	0.001874
931.7457	0.001663
931.9865	0.002191
932.2273	0.001347
932.4681	0.003077
932.7089	0.001642
932.9498	0.002887
933.1906	0.002402
933.4314	0.003056
933.6723	-0.000257
933.9131	0.001811
934.1540	0.002149
934.3949	0.001811
934.6358	0.002845
934.8766	0.002803
935.1175	0.001494
935.3584	0.000102
935.5993	0.002549
935.8403	0.001769
936.0812	0.001094
936.3221	0.001157
936.5630	0.001452
936.8040	0.001853
937.0449	0.000524
937.2859	0.000081
937.5269	0.001853
937.7678	0.000840
938.0088	0.001642
938.2498	0.000862
938.4908	0.000376
938.7318	0.001283
938.9728	0.001452
939.2138	0.000798
939.4549	0.001115
939.6959	0.001347
939.9369	0.000714
940.1780	0.001938
940.4190	-0.000404
940.6601	0.000946
940.9012	0.001516
941.1422	0.001157
941.3833	0.000524
941.6244	0.000524
941.8655	0.002170
942.1066	0.000397
942.3477	0.001473
942.5889	0.001579
942.8300	0.001811
943.0711	0.000292
943.3123	0.001642
943.5534	0.000313
943.7946	-0.000721
944.0357	0.000292
944.2769	0.002739
944.5181	0.000883
944.7593	0.002233
945.0005	0.000376
945.2417	0.000672
945.4829	0.000524
945.7241	0.001705
945.9653	0.000608
946.2066	0.001178
946.4478	0.001030
946.6891	0.001326
946.9303	0.000566
947.1716	0.000735
947.4128	-0.000151
947.6541	0.001073
947.8954	0.000735
948.1367	-0.000109
948.3780	0.000376
948.6193	0.001727
948.8606	0.001136
949.1019	0.002001
949.3433	0.001136
949.5846	0.000693
949.8259	0.000418
950.0673	0.001199
950.3086	0.001642
950.5500	0.000946
950.7914	-0.000425
951.0327	0.001516
951.2741	0.001558
951.5155	0.001368
951.7569	0.001030
951.9983	-0.000932
952.2398	0.002149
952.4812	0.000397
952.7226	0.001178
952.9640	0.000735
953.2055	0.001094
953.4469	0.000756
953.6884	0.000334
953.9299	0.001727
954.1713	0.000334
954.4128	0.000756
954.6543	-0.000130
954.8958	0.001621
955.1373	0.001094
955.3788	-0.000236
955.6203	0.000904
955.8618	0.001009
956.1034	0.000397
956.3449	0.000862
956.5865	-0.000236
956.8280	0.000461
957.0696	0.000756
957.3111	0.000102
957.5527	0.000545
957.7943	0.000292
958.0359	0.000735
958.2775	0.000840
958.5191	0.000672
958.7607	0.001705
959.0023	0.001115
959.2439	0.000102
959.4856	0.000250
959.7272	0.000862
959.9688	0.000081
960.2105	0.000693
960.4522	-0.000721
960.6938	0.000271
960.9355	0.001684
961.1772	0.000714
961.4189	-0.000425
961.6606	0.000524
961.9023	0.000524
962.1440	0.002254
962.3857	-0.000932
962.6274	0.001094
962.8692	0.000207
963.1109	-0.000362
963.3527	0.001009
963.5944	-0.000299
963.8362	0.000102
964.0779	-0.000004
964.3197	0.000229
964.5615	0.000883
964.8033	0.000292
965.0451	0.000461
965.2869	0.001009
965.5287	0.000798
965.7705	-0.000046
966.0123	0.001452
966.2542	0.000925
966.4960	0.001115
966.7379	0.000250
966.9797	0.000608
967.2216	0.000397
967.4634	-0.000088
967.7053	-0.001565
967.9472	0.000566
968.1891	-0.000109
968.4310	-0.000088
968.6729	0.000608
968.9148	0.001115
969.1567	-0.000573
969.3987	0.000292
969.6406	0.001642
969.8825	0.001516
970.1245	0.001811
970.3664	0.001283
970.6084	0.001558
970.8504	-0.000257
971.0923	0.001473
971.3343	0.000840
971.5763	-0.000383
971.8183	0.000334
972.0603	0.000271
972.3023	0.000461
972.5443	-0.000404
972.7864	0.000672
973.0284	-0.000109
973.2704	-0.000552
973.5125	-0.000172
973.7545	0.001157
973.9966	0.001157
974.2387	0.000186
974.4807	0.000672
974.7228	-0.000468
974.9649	0.000482
975.2070	0.000397
975.4491	-0.000004
975.6912	0.000904
975.9333	0.000376
976.1755	0.000355
976.4176	0.000144
976.6597	0.001262
976.9019	0.000102
977.1440	-0.000046
977.3862	-0.000067
977.6283	0.000545
977.8705	0.000229
978.1127	0.001537
978.3549	0.001115
978.5971	0.000039
978.8393	0.000060
979.0815	-0.000004
979.3237	-0.000025
979.5659	-0.000172
979.8082	0.000376
980.0504	0.000587
980.2926	0.000545
980.5349	0.000756
980.7771	-0.000489
981.0194	0.001115
981.2617	-0.000510
981.5040	-0.000193
981.7462	0.001220
981.9885	0.000165
982.2308	0.001347
982.4731	-0.000025
982.7155	0.000840
982.9578	0.001452
983.2001	0.000461
983.4424	-0.000088
983.6848	-0.000805
983.9271	0.000081
984.1695	-0.000257
984.4118	0.000988
984.6542	-0.000278
984.8966	0.001389
985.1390	0.001094
985.3814	0.000735
985.6238	0.000440
985.8662	0.001579
986.1086	0.002022
986.3510	-0.000341
986.5934	-0.000046
986.8358	-0.000004
987.0783	0.000819
987.3207	0.000587
987.5632	0.000102
987.8056	-0.000341
988.0481	0.000102
988.2906	0.000967
988.5331	-0.001143
988.7756	-0.000510
989.0180	-0.000299
989.2605	-0.000404
989.5031	-0.001080
989.7456	-0.000489
989.9881	0.000313
990.2306	0.000587
990.4732	-0.000109
990.7157	0.001051
990.9582	0.001241
991.2008	0.000397
991.4434	-0.000299
991.6859	-0.000911
991.9285	0.001051
992.1711	0.001009
992.4137	0.000461
992.6563	0.000524
992.8989	0.000461
993.1415	0.000883
993.3841	-0.000489
993.6267	0.001009
993.8694	-0.000341
994.1120	0.001073
994.3547	-0.000869
994.5973	0.000862
994.8400	0.000629
995.0826	0.000988
995.3253	-0.000004
995.5680	-0.000341
995.8107	0.000060
996.0534	0.002381
996.2961	0.000946
996.5388	0.000355
996.7815	0.000461
997.0242	-0.000742
997.2670	0.000334
997.5097	0.001832
997.7524	-0.000383
997.9952	-0.000636
998.2379	0.000798
998.4807	-0.000172
998.7235	-0.000552
998.9662	0.000503
999.2090	0.001051
999.4518	-0.000257
999.6946	-0.000004
999.9374	0.001368
1000.1802	0.000018
1000.4230	-0.000679
1000.6659	0.001073
1000.9087	-0.000172
1001.1515	0.000714
1001.3944	0.000313
1001.6372	-0.000236
1001.8801	0.001262
1002.1230	0.001220
1002.3658	0.000714
1002.6087	-0.000869
1002.8516	-0.000763
1003.0945	0.000819
1003.3374	-0.000404
1003.5803	0.000144
1003.8232	-0.000130
1004.0661	-0.000004
1004.3091	-0.000700
1004.5520	0.000102
1004.7949	0.000461
1005.0379	-0.000067
1005.2808	-0.000046
1005.5238	-0.000383
1005.7667	0.001157
1006.0097	0.000418
1006.2527	-0.000552
1006.4957	-0.000172
1006.7387	0.001157
1006.9817	0.000967
1007.2247	0.001178
1007.4677	-0.000341
1007.7107	-0.000278
1007.9538	0.000545
1008.1968	0.001305
1008.4398	0.000018
1008.6829	-0.000995
1008.9259	0.000018
1009.1690	0.000165
1009.4121	0.000229
1009.6551	-0.000299
1009.8982	0.000207
1010.1413	0.000819
1010.3844	0.000693
1010.6275	0.000925
1010.8706	0.000081
1011.1137	0.000524
1011.3568	0.000967
1011.6000	0.000946
1011.8431	0.001579
1012.0863	-0.000932
1012.3294	0.000250
1012.5726	-0.000151
1012.8157	-0.000025
1013.0589	0.000376
1013.3021	0.001305
1013.5452	-0.000088
1013.7884	0.001199
1014.0316	-0.001185
1014.2748	0.000967
1014.5180	-0.000594
1014.7613	-0.000046
1015.0045	-0.000278
1015.2477	0.001305
1015.4909	-0.000278
1015.7342	0.001579
1015.9774	0.000777
1016.2207	-0.001333
1016.4640	0.000819
1016.7072	-0.000404
1016.9505	-0.000046
1017.1938	0.001241
1017.4371	-0.000763
1017.6804	-0.000004
1017.9237	-0.000425
1018.1670	0.000039
1018.4103	-0.000383
1018.6536	0.000967
1018.8969	0.001094
1019.1403	0.000144
1019.3836	-0.001776
1019.6270	0.001283
1019.8703	0.000862
1020.1137	0.000250
1020.3571	0.000123
1020.6004	0.000081
1020.8438	-0.000404
1021.0872	-0.000742
1021.3306	0.000207
1021.5740	-0.000826
1021.8174	0.000461
1022.0608	-0.001459
1022.3042	-0.000320
1022.5477	-0.000932
1022.7911	0.000018
1023.0345	0.000081
