# Wavelength (nm)	Intensity (a.u.)
197.7802	-0.000334
197.9842	-0.002023
198.1882	0.000594
198.3922	-0.000229
198.5963	0.001185
198.8003	-0.000777
199.0044	-0.000988
199.2085	-0.000777
199.4126	-0.000018
199.6168	-0.002191
199.8209	0.000004
200.0251	-0.001600
200.2292	-0.000208
200.4334	-0.000609
200.6376	-0.001579
200.8418	-0.000376
201.0461	-0.000376
201.2503	0.000172
201.4546	-0.000672
201.6589	0.000848
201.8631	-0.000186
202.0674	-0.000123
202.2718	0.000953
202.4761	-0.000967
202.6805	0.000806
202.8848	-0.001685
203.0892	0.000278
203.2936	-0.000208
203.4980	0.000700
203.7024	-0.001917
203.9069	0.000362
204.1113	-0.000714
204.3158	0.000362
204.5203	-0.000841
204.7248	0.001270
204.9293	-0.000566
205.1338	0.000405
205.3384	-0.000693
205.5430	0.000468
205.7475	-0.000419
205.9521	0.000025
206.1567	0.000953
206.3614	0.000278
206.5660	-0.000820
206.7706	-0.000292
206.9753	0.000552
207.1800	-0.000482
207.3847	-0.000651
207.5894	0.000552
207.7941	-0.000693
207.9989	-0.000376
208.2036	-0.000440
208.4084	0.000320
208.6132	-0.001326
208.8180	0.000383
209.0228	-0.000250
209.2276	-0.000925
209.4325	0.000426
209.6373	-0.001263
209.8422	0.000172
210.0471	-0.001073
210.2520	0.001143
210.4569	-0.001411
210.6618	-0.000229
210.8668	-0.000820
211.0718	0.000573
211.2767	-0.001073
211.4817	-0.000123
211.6867	0.000932
211.8918	-0.001453
212.0968	-0.000609
212.3018	0.000172
212.5069	0.000299
212.7120	0.000299
212.9171	0.001228
213.1222	0.000405
213.3273	-0.000292
213.5325	-0.000904
213.7376	0.000890
213.9428	0.000869
214.1480	-0.001052
214.3532	0.000531
214.5584	0.000405
214.7636	-0.001031
214.9689	0.000974
215.1741	-0.000144
215.3794	-0.000609
215.5847	-0.000102
215.7900	0.000573
215.9953	0.001185
216.2007	0.000172
216.4060	-0.000018
216.6114	-0.000271
216.8168	-0.000841
217.0222	-0.000904
217.2276	-0.000630
217.4330	-0.000503
217.6384	-0.000482
217.8439	-0.001031
218.0494	-0.001157
218.2548	0.000658
218.4603	0.000911
218.6659	-0.000545
218.8714	-0.000376
219.0769	0.000130
219.2825	0.000130
219.4881	0.000405
219.6936	-0.000060
219.8992	0.000848
220.1049	0.000067
220.3105	-0.000208
220.5161	-0.000039
220.7218	-0.000060
220.9275	0.000046
221.1332	0.000468
221.3389	-0.000355
221.5446	-0.001031
221.7503	0.000658
221.9561	0.000193
222.1618	0.000616
222.3676	0.001312
222.5734	0.000531
222.7792	0.001122
222.9850	-0.000587
223.1909	-0.001389
223.3967	-0.000123
223.6026	0.000172
223.8085	-0.000925
224.0144	-0.000524
224.2203	0.000004
224.4262	-0.000946
224.6322	-0.000186
224.8381	0.000426
225.0441	0.000130
225.2501	0.000806
225.4561	0.000890
225.6621	0.000151
225.8681	-0.001411
226.0742	0.000109
226.2802	0.000004
226.4863	-0.000123
226.6924	-0.000102
226.8985	0.000784
227.1046	0.000109
227.3107	-0.000271
227.5169	0.000215
227.7230	0.001460
227.9292	-0.000186
228.1354	0.000299
228.3416	-0.001157
228.5478	0.000510
228.7541	-0.000144
228.9603	-0.000820
229.1666	-0.000039
229.3729	-0.000334
229.5791	0.000658
229.7855	-0.001938
229.9918	0.000827
230.1981	0.000046
230.4045	-0.000883
230.6108	-0.000714
230.8172	0.000700
231.0236	0.000109
231.2300	-0.000208
231.4364	0.000573
231.6429	-0.001221
231.8493	-0.000292
232.0558	-0.000967
232.2623	0.000109
232.4688	-0.000208
232.6753	0.000784
232.8818	-0.000862
233.0884	0.000405
233.2949	-0.001073
233.5015	-0.000946
233.7081	0.000447
233.9147	-0.000482
234.1213	0.000088
234.3279	0.000172
234.5346	0.000004
234.7413	0.000573
234.9479	-0.000651
235.1546	-0.000229
235.3613	-0.000714
235.5680	0.000341
235.7748	-0.000060
235.9815	-0.000144
236.1883	-0.001516
236.3951	0.000658
236.6018	-0.000609
236.8087	-0.000482
237.0155	-0.000355
237.2223	-0.000334
237.4292	-0.000566
237.6360	0.000637
237.8429	-0.000714
238.0498	-0.001664
238.2567	-0.000334
238.4636	-0.000777
238.6706	-0.000798
238.8775	0.001861
239.0845	0.000869
239.2915	0.000426
239.4985	-0.000186
239.7055	-0.000777
239.9125	-0.000250
240.1195	-0.000250
240.3266	0.000447
240.5337	0.001481
240.7407	-0.000503
240.9478	0.000299
241.1549	-0.000144
241.3621	0.000067
241.5692	0.000932
241.7764	0.001185
241.9835	-0.000946
242.1907	0.000067
242.3979	0.000911
242.6051	-0.000376
242.8124	-0.000144
243.0196	-0.000250
243.2269	-0.001221
243.4341	0.000552
243.6414	-0.000292
243.8487	0.000236
244.0560	0.000172
244.2634	-0.000292
244.4707	0.000109
244.6781	0.001502
244.8854	0.000932
245.0928	-0.000313
245.3002	-0.000777
245.5076	-0.000123
245.7151	0.000278
245.9225	-0.000925
246.1300	-0.000651
246.3375	0.000109
246.5449	-0.001031
246.7524	-0.000186
246.9600	0.000109
247.1675	0.000341
247.3750	-0.000419
247.5826	-0.000102
247.7902	0.000658
247.9978	0.000193
248.2054	0.000151
248.4130	0.001460
248.6206	-0.001622
248.8283	0.000700
249.0359	0.000383
249.2436	-0.000081
249.4513	-0.000988
249.6590	0.000109
249.8667	-0.000208
250.0745	0.001080
250.2822	-0.000482
250.4900	-0.000123
250.6978	-0.000250
250.9056	0.001354
251.1134	0.000531
251.3212	0.000616
251.5290	-0.000651
251.7369	-0.000841
251.9447	0.000299
252.1526	0.001059
252.3605	-0.001284
252.5684	0.001291
252.7763	-0.000988
252.9843	-0.001347
253.1922	-0.000904
253.4002	-0.000292
253.6082	-0.000587
253.8162	-0.000208
254.0242	-0.000609
254.2322	0.001017
254.4402	-0.000419
254.6483	0.000890
254.8564	-0.001115
255.0644	0.001565
255.2725	-0.000798
255.4806	0.000278
255.6888	0.000067
255.8969	0.001629
256.1051	0.000383
256.3132	-0.000714
256.5214	0.000679
256.7296	0.000848
256.9378	0.000426
257.1460	0.001101
257.3543	0.000362
257.5625	-0.000334
257.7708	0.000510
257.9791	0.000742
258.1874	0.001143
258.3957	-0.000144
258.6040	-0.001495
258.8124	0.000088
259.0207	-0.001115
259.2291	0.000742
259.4375	-0.001263
259.6459	-0.000545
259.8543	0.000278
260.0627	0.001312
260.2711	0.000046
260.4796	-0.000714
260.6881	0.000468
260.8965	-0.000651
261.1050	-0.000798
261.3135	-0.000313
261.5221	-0.001178
261.7306	-0.000229
261.9392	0.000974
262.1477	0.000130
262.3563	-0.000229
262.5649	-0.000123
262.7735	-0.000018
262.9822	0.001565
263.1908	0.000510
263.3995	0.000215
263.6081	-0.000904
263.8168	-0.001073
264.0255	-0.001263
264.2342	-0.000566
264.4429	0.000890
264.6517	0.001101
264.8604	-0.001157
265.0692	-0.000102
265.2780	-0.000123
265.4868	0.000447
265.6956	0.001038
265.9044	0.000552
266.1133	-0.000060
266.3221	-0.000123
266.5310	-0.000482
266.7399	-0.000482
266.9488	-0.000946
267.1577	0.000257
267.3666	0.000025
267.5755	0.000236
267.7845	-0.000651
267.9935	-0.000355
268.2024	-0.000524
268.4114	-0.000524
268.6205	-0.000693
268.8295	0.001080
269.0385	-0.000524
269.2476	0.000531
269.4566	0.000658
269.6657	0.000784
269.8748	-0.000482
270.0839	0.000278
270.2931	0.000215
270.5022	0.000278
270.7114	0.000489
270.9205	0.001101
271.1297	-0.000630
271.3389	0.000172
271.5481	-0.000714
271.7573	0.000109
271.9666	-0.000018
272.1758	0.001396
272.3851	0.000025
272.5944	0.000025
272.8037	0.000531
273.0130	-0.000672
273.2223	-0.000714
273.4316	0.000130
273.6410	-0.000271
273.8504	0.001291
274.0597	0.000067
274.2691	-0.001411
274.4785	0.001143
274.6880	0.000848
274.8974	-0.000250
275.1069	-0.000292
275.3163	-0.000735
275.5258	0.000932
275.7353	-0.000566
275.9448	-0.000482
276.1543	-0.000925
276.3639	0.001312
276.5734	-0.001432
276.7830	0.000130
276.9926	-0.000714
277.2022	-0.001115
277.4118	-0.000482
277.6214	0.001017
277.8310	-0.000672
278.0407	-0.000229
278.2503	-0.002128
278.4600	-0.000334
278.6697	-0.000271
278.8794	0.002262
279.0891	0.000426
279.2989	0.001143
279.5086	0.000278
279.7184	0.000362
279.9281	-0.000208
280.1379	-0.000967
280.3477	-0.000144
280.5576	-0.000060
280.7674	-0.000503
280.9772	0.000426
281.1871	0.001607
281.3970	-0.000250
281.6069	-0.000798
281.8168	0.000215
282.0267	-0.000925
282.2366	0.000299
282.4466	-0.000883
282.6565	0.000130
282.8665	0.000426
283.0765	0.000299
283.2865	-0.000440
283.4965	-0.000630
283.7065	0.000932
283.9166	0.000405
284.1266	-0.000123
284.3367	-0.000081
284.5468	0.001396
284.7569	-0.001748
284.9670	-0.000039
285.1771	-0.000039
285.3873	-0.001115
285.5974	-0.000376
285.8076	0.000236
286.0178	-0.000208
286.2280	-0.000820
286.4382	0.000594
286.6484	0.000763
286.8587	0.000447
287.0689	-0.000102
287.2792	0.000784
287.4895	0.000193
287.6998	0.001185
287.9101	-0.000144
288.1204	0.000658
288.3308	-0.000777
288.5411	0.000025
288.7515	0.000172
288.9619	0.000658
289.1723	0.000447
289.3827	0.000299
289.5931	0.001270
289.8035	0.000172
290.0140	0.000362
290.2245	-0.000397
290.4349	-0.000925
290.6454	0.000700
290.8559	0.000405
291.0665	0.000573
291.2770	0.000109
291.4875	0.000067
291.6981	-0.000039
291.9087	-0.000419
292.1193	-0.000081
292.3299	0.000848
292.5405	-0.001115
292.7511	-0.000060
292.9618	0.000004
293.1724	0.000278
293.3831	-0.001178
293.5938	-0.000292
293.8045	-0.000292
294.0152	0.000531
294.2260	-0.000946
294.4367	0.000193
294.6475	-0.000208
294.8582	0.000932
295.0690	-0.000503
295.2798	0.000236
295.4906	0.000974
295.7015	0.000215
295.9123	-0.000313
296.1232	0.000594
296.3340	-0.001622
296.5449	0.000025
296.7558	-0.000482
296.9667	-0.000503
297.1777	-0.000419
297.3886	-0.000946
297.5995	-0.000503
297.8105	0.000341
298.0215	0.001607
298.2325	0.000953
298.4435	0.000784
298.6545	-0.000208
298.8656	-0.000250
299.0766	0.000004
299.2877	-0.000609
299.4988	-0.000566
299.7099	-0.000397
299.9210	0.001101
300.1321	-0.000208
300.3432	0.001291
300.5544	-0.001115
300.7655	-0.000587
300.9767	-0.000651
301.1879	0.000510
301.3991	-0.000165
301.6103	0.001038
301.8215	-0.001643
302.0328	0.000426
302.2441	-0.001157
302.4553	0.000193
302.6666	0.000405
302.8779	-0.000208
303.0892	-0.001305
303.3006	0.000489
303.5119	0.000362
303.7233	0.000700
303.9346	0.000426
304.1460	-0.000186
304.3574	0.000362
304.5688	-0.000355
304.7803	-0.001157
304.9917	-0.000440
305.2031	-0.000334
305.4146	0.000447
305.6261	-0.001199
305.8376	0.000637
306.0491	-0.000313
306.2606	-0.000313
306.4722	-0.001178
306.6837	-0.000102
306.8953	-0.001263
307.1069	0.001375
307.3184	-0.000925
307.5301	-0.000651
307.7417	-0.001685
307.9533	0.000320
308.1650	-0.001031
308.3766	0.000109
308.5883	0.000362
308.8000	-0.001643
309.0117	0.000067
309.2234	0.001038
309.4351	-0.000524
309.6469	0.000721
309.8586	0.000383
310.0704	0.001354
310.2822	0.000172
310.4940	-0.000841
310.7058	-0.000334
310.9176	0.000088
311.1295	-0.000798
311.3413	-0.000250
311.5532	-0.000102
311.7651	-0.000229
311.9770	0.000215
312.1889	0.001439
312.4008	0.000489
312.6127	-0.000250
312.8247	-0.000482
313.0366	0.001101
313.2486	-0.000440
313.4606	0.000046
313.6726	0.000405
313.8846	-0.001010
314.0967	-0.000144
314.3087	0.000827
314.5208	0.001396
314.7328	0.000299
314.9449	-0.000883
315.1570	0.000341
315.3692	0.000848
315.5813	-0.000672
315.7934	-0.001136
316.0056	-0.000102
316.2177	0.000236
316.4299	0.000299
316.6421	0.000341
316.8543	-0.000313
317.0666	-0.000566
317.2788	-0.000313
317.4911	0.000109
317.7033	0.000278
317.9156	0.000088
318.1279	-0.000651
318.3402	-0.000250
318.5525	-0.002128
318.7649	0.000046
318.9772	0.001354
319.1896	-0.001199
319.4019	0.000932
319.6143	0.000320
319.8267	0.000573
320.0392	-0.001115
320.2516	0.000510
320.4640	-0.000714
320.6765	0.000046
320.8890	-0.000440
321.1014	0.000405
321.3139	-0.000313
321.5265	-0.000271
321.7390	-0.000123
321.9515	0.000763
322.1641	-0.000039
322.3766	0.000362
322.5892	-0.000102
322.8018	0.000067
323.0144	-0.000397
323.2270	0.000025
323.4397	-0.001284
323.6523	-0.000376
323.8650	-0.000524
324.0777	0.000088
324.2904	-0.000292
324.5031	-0.000524
324.7158	0.000531
324.9285	-0.000566
325.1412	-0.000165
325.3540	-0.001411
325.5668	0.000257
325.7796	0.000025
325.9924	-0.001115
326.2052	-0.000060
326.4180	-0.001833
326.6308	0.000426
326.8437	-0.000250
327.0566	0.000405
327.2694	0.000004
327.4823	0.000215
327.6952	0.000763
327.9082	0.001607
328.1211	-0.000102
328.3340	0.000848
328.5470	-0.000250
328.7600	-0.000208
328.9730	0.000046
329.1860	-0.000397
329.3990	-0.000566
329.6120	0.000700
329.8251	0.000046
330.0381	0.000172
330.2512	0.000025
330.4643	-0.001178
330.6774	-0.000186
330.8905	0.000827
331.1036	0.000637
331.3167	0.001544
331.5299	-0.001052
331.7431	0.001270
331.9562	-0.000208
332.1694	0.000067
332.3826	0.001164
332.5959	-0.001031
332.8091	-0.000672
333.0223	-0.000102
333.2356	0.000405
333.4489	0.001291
333.6622	-0.001178
333.8755	-0.000271
334.0888	-0.000503
334.3021	0.000257
334.5154	-0.000566
334.7288	0.000025
334.9422	0.000362
335.1555	-0.000229
335.3689	0.000193
335.5823	0.001143
335.7958	-0.000798
336.0092	-0.001073
336.2227	-0.001178
336.4361	0.000257
336.6496	-0.000144
336.8631	0.001291
337.0766	-0.000651
337.2901	-0.001199
337.5036	0.000616
337.7172	0.000573
337.9307	-0.000186
338.1443	0.000890
338.3579	-0.000292
338.5715	-0.000440
338.7851	-0.000503
338.9987	-0.000186
339.2124	0.000784
339.4260	0.000004
339.6397	-0.001136
339.8533	-0.000566
340.0670	0.000995
340.2807	-0.000397
340.4945	-0.000397
340.7082	-0.001094
340.9219	-0.000482
341.1357	-0.000292
341.3495	-0.001052
341.5633	0.000172
341.7771	-0.000440
341.9909	0.000700
342.2047	-0.000144
342.4185	0.000405
342.6324	-0.000419
342.8463	0.000911
343.0601	-0.000714
343.2740	0.000890
343.4879	-0.001284
343.7019	0.000594
343.9158	-0.000524
344.1297	0.001185
344.3437	-0.000292
344.5577	0.000953
344.7717	0.001333
344.9857	0.000025
345.1997	-0.000102
345.4137	0.000447
345.6277	0.000257
345.8418	-0.000313
346.0559	-0.000609
346.2699	-0.000482
346.4840	-0.000566
346.6981	-0.000123
346.9123	0.000046
347.1264	0.000067
347.3406	-0.000419
347.5547	0.000236
347.7689	0.000067
347.9831	0.000215
348.1973	-0.000925
348.4115	-0.000777
348.6257	-0.001600
348.8400	-0.000714
349.0542	0.000531
349.2685	-0.000482
349.4828	-0.000102
349.6971	0.001629
349.9114	0.000869
350.1257	0.001143
350.3400	0.000320
350.5544	0.000447
350.7687	0.000341
350.9831	0.001038
351.1975	-0.001178
351.4119	0.000215
351.6263	-0.001052
351.8407	0.000890
352.0552	-0.000081
352.2696	-0.002592
352.4841	0.000763
352.6986	0.000362
352.9131	-0.000630
353.1276	0.001038
353.3421	-0.000102
353.5566	0.000784
353.7712	-0.000756
353.9858	-0.000018
354.2003	0.000172
354.4149	-0.000018
354.6295	0.001481
354.8441	0.000172
355.0588	-0.000334
355.2734	-0.000904
355.4881	0.000320
355.7027	0.000088
355.9174	-0.000651
356.1321	0.001122
356.3468	0.001270
356.5615	-0.000587
356.7763	0.000067
356.9910	-0.000714
357.2058	-0.001389
357.4206	-0.001052
357.6353	-0.000630
357.8501	0.001734
358.0650	0.000025
358.2798	0.000383
358.4946	0.001080
358.7095	-0.000841
358.9243	-0.000060
359.1392	0.000953
359.3541	0.000531
359.5690	0.000405
359.7839	-0.000777
359.9989	-0.000165
360.2138	-0.000672
360.4288	0.000172
360.6438	0.000046
360.8587	-0.000313
361.0737	0.000383
361.2888	0.000109
361.5038	0.000468
361.7188	-0.000904
361.9339	-0.000039
362.1489	-0.000609
362.3640	-0.000503
362.5791	-0.000777
362.7942	-0.001242
363.0093	-0.000820
363.2245	-0.000355
363.4396	0.000215
363.6548	-0.001516
363.8699	0.000531
364.0851	0.000489
364.3003	-0.000735
364.5155	0.000299
364.7308	-0.000545
364.9460	-0.000862
365.1612	0.000341
365.3765	-0.001073
365.5918	0.000594
365.8071	-0.000208
366.0224	0.000616
366.2377	-0.000503
366.4530	0.000130
366.6684	0.000700
366.8837	0.000299
367.0991	-0.001347
367.3145	-0.000609
367.5299	0.001122
367.7453	0.000995
367.9607	-0.000334
368.1761	0.000784
368.3916	-0.000102
368.6070	0.000383
368.8225	-0.000165
369.0380	-0.001199
369.2535	-0.000545
369.4690	0.001207
369.6845	0.000172
369.9001	-0.001115
370.1156	0.001396
370.3312	0.000510
370.5468	-0.000946
370.7624	-0.000271
370.9780	-0.000461
371.1936	0.000489
371.4092	-0.000334
371.6249	0.001629
371.8405	-0.000925
372.0562	0.000974
372.2719	-0.000039
372.4876	-0.000123
372.7033	-0.000376
372.9190	0.000679
373.1348	-0.000862
373.3505	0.000679
373.5663	0.001059
373.7820	0.000025
373.9978	0.000046
374.2136	-0.000820
374.4294	-0.000229
374.6453	0.000848
374.8611	-0.001263
375.0770	-0.000397
375.2928	0.000299
375.5087	0.001164
375.7246	0.000236
375.9405	0.000911
376.1564	-0.000102
376.3724	0.000172
376.5883	0.000383
376.8043	0.000362
377.0203	-0.000545
377.2362	0.000278
377.4522	-0.000862
377.6682	0.000025
377.8843	0.000932
378.1003	0.001945
378.3164	0.000383
378.5324	0.000531
378.7485	-0.000229
378.9646	0.001333
379.1807	-0.000144
379.3968	0.000257
379.6129	-0.001242
379.8291	-0.000081
380.0452	0.001312
380.2614	-0.000229
380.4776	0.000320
380.6938	0.000257
380.9100	0.000890
381.1262	-0.000714
381.3424	-0.000292
381.5587	0.001481
381.7749	0.000215
381.9912	0.001249
382.2075	-0.001221
382.4238	0.000109
382.6401	-0.000925
382.8564	-0.000208
383.0728	0.000995
383.2891	-0.000102
383.5055	0.000405
383.7219	0.000784
383.9382	0.000806
384.1546	0.000531
384.3711	0.000489
384.5875	0.000172
384.8039	-0.000503
385.0204	0.001080
385.2368	-0.000883
385.4533	0.001080
385.6698	0.000721
385.8863	-0.001368
386.1028	0.000215
386.3194	0.000911
386.5359	0.000341
386.7525	0.000468
386.9690	-0.000651
387.1856	0.000848
387.4022	0.000510
387.6188	0.001080
387.8355	0.000299
388.0521	0.000088
388.2687	0.000848
388.4854	0.000658
388.7021	-0.000651
388.9188	-0.001284
389.1355	-0.000060
389.3522	0.000130
389.5689	0.000911
389.7856	0.001629
390.0024	0.002325
390.2192	0.001945
390.4359	0.000953
390.6527	0.000658
390.8695	0.000869
391.0863	-0.000229
391.3032	0.000616
391.5200	0.001291
391.7369	-0.001052
391.9537	0.000763
392.1706	0.000573
392.3875	0.002388
392.6044	0.001396
392.8213	0.001713
393.0383	0.001819
393.2552	0.001523
393.4722	-0.000735
393.6891	0.001861
393.9061	0.001734
394.1231	0.000067
394.3401	0.001017
394.5572	0.002895
394.7742	0.002621
394.9912	0.002663
395.2083	0.000784
395.4254	0.001418
395.6425	0.001481
395.8596	0.002241
396.0767	0.002030
396.2938	0.002768
396.5109	0.003359
396.7281	0.002283
396.9453	0.002494
397.1624	0.004583
397.3796	0.002051
397.5968	0.003022
397.8140	0.004267
398.0313	0.001650
398.2485	0.002262
398.4658	0.003739
398.6830	0.003064
398.9003	0.003064
399.1176	0.003043
399.3349	0.004161
399.5522	0.003275
399.7696	0.005195
399.9869	0.003676
400.2043	0.003233
400.4216	0.003676
400.6390	0.004077
400.8564	0.003866
401.0738	0.003275
401.2912	0.004773
401.5087	0.001523
401.7261	0.004478
401.9436	0.003507
402.1610	0.005195
402.3785	0.004351
402.5960	0.004604
402.8135	0.004879
403.0310	0.006040
403.2486	0.004351
403.4661	0.005090
403.6837	0.006229
403.9013	0.005554
404.1189	0.005997
404.3365	0.006968
404.5541	0.006272
404.7717	0.006335
404.9893	0.005955
405.2070	0.006504
405.4246	0.007749
405.6423	0.005681
405.8600	0.007728
406.0777	0.006082
406.2954	0.006061
406.5131	0.004858
406.7309	0.006778
406.9486	0.006842
407.1664	0.007981
407.3842	0.006335
407.6020	0.006863
407.8198	0.006905
408.0376	0.006736
408.2554	0.007031
408.4733	0.009269
408.6911	0.007559
408.9090	0.006799
409.1269	0.006884
409.3448	0.007116
409.5627	0.008234
409.7806	0.007348
409.9985	0.007707
410.2165	0.008825
410.4344	0.008298
410.6524	0.008910
410.8704	0.008657
411.0884	0.008045
411.3064	0.008234
411.5244	0.009353
411.7424	0.008424
411.9605	0.007960
412.1785	0.009902
412.3966	0.009860
412.6147	0.010408
412.8328	0.010239
413.0509	0.009860
413.2690	0.009796
413.4871	0.010830
413.7053	0.009986
413.9234	0.009965
414.1416	0.008467
414.3598	0.011231
414.5780	0.010345
414.7962	0.012202
415.0144	0.010366
415.2326	0.008994
415.4509	0.010662
415.6692	0.011105
415.8874	0.009564
416.1057	0.009627
416.3240	0.010936
416.5423	0.013215
416.7606	0.012033
416.9790	0.011295
417.1973	0.010007
417.4157	0.011485
417.6341	0.012519
417.8524	0.013025
418.0708	0.009817
418.2893	0.011843
418.5077	0.011421
418.7261	0.012519
418.9446	0.013785
419.1630	0.012688
419.3815	0.011548
419.6000	0.012772
419.8185	0.012920
420.0370	0.012730
420.2555	0.012266
420.4741	0.013616
420.6926	0.012413
420.9112	0.013933
421.1298	0.013468
421.3483	0.015621
421.5669	0.016043
421.7856	0.016888
422.0042	0.016318
422.2228	0.015685
422.4415	0.014355
422.6601	0.015495
422.8788	0.016318
423.0975	0.016022
423.3162	0.015663
423.5349	0.016022
423.7536	0.015368
423.9724	0.014756
424.1911	0.014207
424.4099	0.013616
424.6287	0.014228
424.8475	0.014608
425.0663	0.016423
425.2851	0.014355
425.5039	0.016402
425.7228	0.014946
425.9416	0.016297
426.1605	0.013743
426.3793	0.014904
426.5982	0.013996
426.8171	0.013595
427.0361	0.015495
427.2550	0.014292
427.4739	0.016191
427.6929	0.015727
427.9118	0.016275
428.1308	0.014608
428.3498	0.014650
428.5688	0.013975
428.7878	0.015811
429.0068	0.015558
429.2259	0.018196
429.4449	0.016993
429.6640	0.018491
429.8831	0.017753
430.1022	0.017373
430.3213	0.018069
430.5404	0.018787
430.7595	0.019589
430.9787	0.019125
431.1978	0.018386
431.4170	0.018871
431.6362	0.016402
431.8553	0.016613
432.0745	0.015009
432.2938	0.015685
432.5130	0.015178
432.7322	0.015959
432.9515	0.014883
433.1707	0.017183
433.3900	0.017183
433.6093	0.017289
433.8286	0.017500
434.0479	0.019631
434.2673	0.016423
434.4866	0.017099
434.7059	0.016423
434.9253	0.018217
435.1447	0.017267
435.3641	0.017267
435.5835	0.017922
435.8029	0.017689
436.0223	0.015980
436.2418	0.017879
436.4612	0.018914
436.6807	0.018576
436.9001	0.017689
437.1196	0.019673
437.3391	0.016487
437.5586	0.017394
437.7782	0.016845
437.9977	0.016487
438.2173	0.017922
438.4368	0.016655
438.6564	0.018133
438.8760	0.016951
439.0956	0.018302
439.3152	0.017837
439.5348	0.017689
439.7545	0.015980
439.9741	0.018808
440.1938	0.015853
440.4135	0.016550
440.6331	0.017584
440.8528	0.017014
441.0725	0.019420
441.2923	0.020328
441.5120	0.021172
441.7318	0.020708
441.9515	0.021995
442.1713	0.021763
442.3911	0.020602
442.6109	0.023029
442.8307	0.020243
443.0505	0.018006
443.2703	0.021362
443.4902	0.020475
443.7101	0.021488
443.9299	0.021256
444.1498	0.022459
444.3697	0.019209
444.5896	0.019863
444.8095	0.018660
445.0295	0.021594
445.2494	0.019737
445.4694	0.020391
445.6894	0.019441
445.9093	0.019209
446.1293	0.018006
446.3493	0.020032
446.5694	0.020792
446.7894	0.018280
447.0094	0.018998
447.2295	0.019336
447.4496	0.019694
447.6696	0.019104
447.8897	0.019399
448.1098	0.018302
448.3300	0.019631
448.5501	0.018470
448.7702	0.017289
448.9904	0.018681
449.2106	0.016740
449.4307	0.018259
449.6509	0.015368
449.8711	0.018217
450.0914	0.019737
450.3116	0.018196
450.5318	0.016254
450.7521	0.017858
450.9724	0.017352
451.1926	0.017120
451.4129	0.016888
451.6332	0.016275
451.8535	0.014292
452.0739	0.016128
452.2942	0.015600
452.5146	0.016824
452.7349	0.016529
452.9553	0.017183
453.1757	0.016698
453.3961	0.014144
453.6165	0.014144
453.8369	0.015579
454.0574	0.013004
454.2778	0.015284
454.4983	0.013912
454.7188	0.013046
454.9393	0.013511
455.1597	0.014904
455.3803	0.015326
455.6008	0.014017
455.8213	0.015917
456.0419	0.012920
456.2624	0.014144
456.4830	0.013912
456.7036	0.014249
456.9242	0.013891
457.1448	0.012899
457.3654	0.014123
457.5860	0.013996
457.8067	0.014798
458.0274	0.014545
458.2480	0.015241
458.4687	0.014207
458.6894	0.014460
458.9101	0.014249
459.1308	0.014207
459.3516	0.014883
459.5723	0.014693
459.7931	0.013680
460.0138	0.013785
460.2346	0.013637
460.4554	0.013975
460.6762	0.011653
460.8970	0.013342
461.1178	0.014228
461.3387	0.013468
461.5595	0.012878
461.7804	0.012455
462.0013	0.011717
462.2222	0.011569
462.4431	0.011210
462.6640	0.009860
462.8849	0.010873
463.1059	0.010345
463.3268	0.011843
463.5478	0.011337
463.7687	0.012012
463.9897	0.012287
464.2107	0.011337
464.4317	0.010028
464.6528	0.012561
464.8738	0.012413
465.0948	0.012856
465.3159	0.011548
465.5370	0.013025
465.7581	0.012160
465.9792	0.011822
466.2003	0.011274
466.4214	0.009817
466.6425	0.010408
466.8637	0.011611
467.0848	0.008635
467.3060	0.010049
467.5272	0.009437
467.7484	0.010450
467.9696	0.011421
468.1908	0.010387
468.4120	0.007137
468.6333	0.009459
468.8545	0.008509
469.0758	0.008298
469.2970	0.007369
469.5183	0.007116
469.7396	0.006546
469.9610	0.006166
470.1823	0.006989
470.4036	0.006588
470.6250	0.005786
470.8463	0.006419
471.0677	0.007432
471.2891	0.006103
471.5105	0.006820
471.7319	0.008023
471.9533	0.006884
472.1748	0.004626
472.3962	0.005871
472.6177	0.004900
472.8391	0.007221
473.0606	0.008087
473.2821	0.007918
473.5036	0.006609
473.7251	0.008551
473.9467	0.007010
474.1682	0.006229
474.3898	0.007876
474.6113	0.006947
474.8329	0.006293
475.0545	0.006335
475.2761	0.007327
475.4977	0.007939
475.7193	0.007559
475.9410	0.005976
476.1626	0.005681
476.3843	0.005301
476.6060	0.005596
476.8277	0.005934
477.0494	0.005027
477.2711	0.005027
477.4928	0.006504
477.7145	0.005174
477.9363	0.006419
478.1580	0.006820
478.3798	0.006441
478.6016	0.004562
478.8234	0.006082
479.0452	0.005174
479.2670	0.007200
479.4888	0.004668
479.7107	0.006462
479.9325	0.005216
480.1544	0.006525
480.3763	0.005596
480.5982	0.005639
480.8201	0.005765
481.0420	0.003950
481.2639	0.004604
481.4859	0.006061
481.7078	0.005660
481.9298	0.005090
482.1517	0.005807
482.3737	0.004246
482.5957	0.004710
482.8177	0.005744
483.0398	0.004858
483.2618	0.003655
483.4838	0.004436
483.7059	0.003486
483.9280	0.002726
484.1501	0.005871
484.3721	0.004668
484.5943	0.004626
484.8164	0.005280
485.0385	0.006799
485.2606	0.006525
485.4828	0.005828
485.7050	0.011653
485.9271	0.015896
486.1493	0.015431
486.3715	0.012603
486.5937	0.010092
486.8160	0.008614
487.0382	0.007665
487.2605	0.006905
487.4827	0.007095
487.7050	0.005343
487.9273	0.004182
488.1496	0.002367
488.3719	0.004794
488.5942	0.003908
488.8165	0.002008
489.0389	0.005153
489.2612	0.003401
489.4836	0.002114
489.7060	0.003064
489.9284	0.003022
490.1508	0.003401
490.3732	0.002853
490.5956	0.002114
490.8180	0.003148
491.0405	0.004309
491.2630	0.004119
491.4854	0.001945
491.7079	0.003380
491.9304	0.003296
492.1529	0.003233
492.3755	0.003127
492.5980	0.003148
492.8205	0.002979
493.0431	0.002346
493.2657	0.003570
493.4882	0.003929
493.7108	0.002958
493.9334	0.000658
494.1561	0.002979
494.3787	0.003465
494.6013	0.001755
494.8240	0.002578
495.0466	0.002030
495.2693	0.002409
495.4920	0.001565
495.7147	0.003781
495.9374	0.002621
496.1601	0.003739
496.3829	0.003444
496.6056	0.002663
496.8284	0.003929
497.0511	0.002114
497.2739	0.002072
497.4967	0.001882
497.7195	0.001882
497.9423	0.002135
498.1652	0.001776
498.3880	0.001228
498.6109	0.002367
498.8337	0.002874
499.0566	0.002789
499.2795	0.002367
499.5024	0.002768
499.7253	0.002832
499.9482	0.002810
500.1712	0.000827
500.3941	0.002388
500.6171	0.001629
500.8400	0.002916
501.0630	0.002599
501.2860	0.002916
501.5090	0.003064
501.7320	0.001439
501.9551	0.002051
502.1781	0.002494
502.4012	0.004013
502.6242	0.002114
502.8473	0.002304
503.0704	0.002304
503.2935	0.001291
503.5166	0.001924
503.7397	0.002409
503.9628	0.003254
504.1860	0.002093
504.4092	0.001924
504.6323	0.002473
504.8555	0.000700
505.0787	0.002135
505.3019	0.002198
505.5251	0.001734
505.7483	0.002684
505.9716	0.002346
506.1948	0.000995
506.4181	0.003570
506.6414	0.002958
506.8647	0.002051
507.0880	0.002367
507.3113	0.002093
507.5346	0.002726
507.7579	0.002431
507.9813	0.002304
508.2046	0.002979
508.4280	0.001291
508.6514	0.000911
508.8748	0.002304
509.0982	0.002473
509.3216	0.002135
509.5450	0.002283
509.7685	0.001080
509.9919	0.002663
510.2154	0.002832
510.4388	0.002642
510.6623	0.001819
510.8858	0.001945
511.1093	0.003148
511.3329	0.002114
511.5564	0.001607
511.7799	0.001228
512.0035	0.002494
512.2270	0.001987
512.4506	0.002726
512.6742	0.002431
512.8978	0.001882
513.1214	0.001692
513.3451	0.003254
513.5687	0.002726
513.7923	0.001228
514.0160	0.003296
514.2397	0.001671
514.4634	0.003929
514.6871	0.001080
514.9108	0.002958
515.1345	0.001460
515.3582	0.003169
515.5819	0.001481
515.8057	0.002726
516.0295	0.003000
516.2532	0.003739
516.4770	0.001586
516.7008	0.001903
516.9246	0.003549
517.1485	0.001122
517.3723	0.002198
517.5961	0.002684
517.8200	0.001945
518.0439	0.001797
518.2677	0.002810
518.4916	0.001776
518.7155	0.002409
518.9395	0.002304
519.1634	0.001418
519.3873	0.002663
519.6113	0.001291
519.8352	0.002008
520.0592	0.000911
520.2832	0.002093
520.5072	0.001903
520.7312	0.001185
520.9552	0.002768
521.1792	0.002431
521.4033	0.003127
521.6273	0.001544
521.8514	0.003359
522.0755	0.001375
522.2996	0.001776
522.5237	0.001987
522.7478	0.003022
522.9719	0.001481
523.1960	0.002557
523.4202	0.001882
523.6443	0.002494
523.8685	0.003359
524.0927	0.002832
524.3169	0.003317
524.5411	0.003127
524.7653	0.003908
524.9895	0.002705
525.2138	0.002621
525.4380	0.002895
525.6623	0.003570
525.8865	0.002937
526.1108	0.001987
526.3351	0.002325
526.5594	0.002874
526.7837	0.003950
527.0081	0.002473
527.2324	0.003507
527.4568	0.003211
527.6811	0.001228
527.9055	0.003359
528.1299	0.003359
528.3543	0.002388
528.5787	0.004056
528.8031	0.003908
529.0276	0.004351
529.2520	0.003000
529.4765	0.004203
529.7009	0.003401
529.9254	0.004562
530.1499	0.002853
530.3744	0.004351
530.5989	0.003106
530.8234	0.004689
531.0480	0.002621
531.2725	0.004182
531.4971	0.004837
531.7217	0.004267
531.9462	0.006166
532.1708	0.003423
532.3954	0.004710
532.6200	0.004119
532.8447	0.003190
533.0693	0.005048
533.2940	0.004161
533.5186	0.005280
533.7433	0.003824
533.9680	0.005111
534.1927	0.005090
534.4174	0.006419
534.6421	0.005575
534.8668	0.005744
535.0916	0.005913
535.3163	0.006018
535.5411	0.005850
535.7659	0.006609
535.9907	0.007031
536.2155	0.004900
536.4403	0.004604
536.6651	0.006884
536.8899	0.004647
537.1148	0.006398
537.3396	0.004942
537.5645	0.006588
537.7894	0.005491
538.0143	0.008403
538.2392	0.006546
538.4641	0.006778
538.6890	0.006736
538.9139	0.007031
539.1389	0.008129
539.3638	0.008741
539.5888	0.006588
539.8138	0.008213
540.0388	0.006040
540.2638	0.008023
540.4888	0.008319
540.7138	0.009754
540.9389	0.007981
541.1639	0.008530
541.3890	0.007791
541.6140	0.008762
541.8391	0.009058
542.0642	0.009796
542.2893	0.008551
542.5144	0.009437
542.7396	0.009838
542.9647	0.009627
543.1899	0.010788
543.4150	0.008382
543.6402	0.010915
543.8654	0.008847
544.0906	0.010387
544.3158	0.010493
544.5410	0.011464
544.7662	0.010261
544.9915	0.011084
545.2167	0.011337
545.4420	0.011527
545.6673	0.010851
545.8926	0.011527
546.1179	0.009606
546.3432	0.010936
546.5685	0.011738
546.7938	0.012033
547.0192	0.011907
547.2445	0.013236
547.4699	0.013869
547.6953	0.014418
547.9206	0.014840
548.1460	0.014988
548.3715	0.014777
548.5969	0.014270
548.8223	0.014292
549.0478	0.013912
549.2732	0.014102
549.4987	0.013595
549.7242	0.015769
549.9496	0.013785
550.1751	0.015051
550.4007	0.014967
550.6262	0.013152
550.8517	0.014671
551.0773	0.013300
551.3028	0.013532
551.5284	0.013215
551.7540	0.015537
551.9796	0.017310
552.2052	0.016824
552.4308	0.018407
552.6564	0.016297
552.8820	0.018069
553.1077	0.018196
553.3333	0.018069
553.5590	0.018470
553.7847	0.018534
554.0104	0.019040
554.2361	0.017099
554.4618	0.018491
554.6875	0.016149
554.9132	0.017267
555.1390	0.018238
555.3648	0.019483
555.5905	0.018850
555.8163	0.019694
556.0421	0.019863
556.2679	0.020961
556.4937	0.020391
556.7195	0.019272
556.9454	0.018407
557.1712	0.018365
557.3971	0.019547
557.6230	0.018639
557.8488	0.021636
558.0747	0.019293
558.3006	0.020729
558.5266	0.020032
558.7525	0.018513
558.9784	0.019547
559.2044	0.019125
559.4303	0.020391
559.6563	0.020391
559.8823	0.021552
560.1083	0.022354
560.3343	0.023029
560.5603	0.026195
560.7863	0.024274
561.0124	0.028263
561.2384	0.028136
561.4645	0.026237
561.6905	0.026406
561.9166	0.027292
562.1427	0.026258
562.3688	0.027651
562.5949	0.024717
562.8211	0.025857
563.0472	0.027334
563.2733	0.025182
563.4995	0.025562
563.7257	0.028938
563.9519	0.027925
564.1781	0.030163
564.4043	0.031218
564.6305	0.029192
564.8567	0.030965
565.0829	0.031091
565.3092	0.030669
565.5355	0.033518
565.7617	0.030500
565.9880	0.030986
566.2143	0.032843
566.4406	0.032062
566.6669	0.034468
566.8932	0.032991
567.1196	0.035713
567.3459	0.040631
567.5723	0.042213
567.7987	0.042446
568.0250	0.044957
568.2514	0.045232
568.4778	0.046582
568.7043	0.050972
568.9307	0.054497
569.1571	0.056438
569.3836	0.062664
569.6100	0.068004
569.8365	0.076024
570.0630	0.080941
570.2895	0.082207
570.5160	0.082925
570.7425	0.081342
570.9690	0.086956
571.1956	0.098353
571.4221	0.100083
571.6487	0.098500
571.8752	0.104473
572.1018	0.106647
572.3284	0.106267
572.5550	0.102721
572.7816	0.095208
573.0082	0.092443
573.2349	0.097952
573.4615	0.106267
573.6882	0.115384
573.9149	0.119964
574.1415	0.125325
574.3682	0.133619
574.5949	0.135519
574.8216	0.134421
575.0484	0.137397
575.2751	0.138579
575.5018	0.139908
575.7286	0.134484
575.9554	0.121885
576.1821	0.121969
576.4089	0.124185
576.6357	0.131762
576.8626	0.140647
577.0894	0.143475
577.3162	0.148118
577.5431	0.154281
577.7699	0.167851
577.9968	0.198200
578.2237	0.190666
578.4505	0.178573
578.6774	0.169477
578.9044	0.156497
579.1313	0.148350
579.3582	0.148688
579.5851	0.161541
579.8121	0.163736
580.0391	0.161457
580.2660	0.164221
580.4930	0.162765
580.7200	0.155526
580.9470	0.159557
581.1741	0.193346
581.4011	0.231757
581.6281	0.258772
581.8552	0.258054
582.0822	0.254382
582.3093	0.241719
582.5364	0.229900
582.7635	0.205693
582.9906	0.190687
583.2177	0.173001
583.4449	0.161794
583.6720	0.152951
583.8991	0.144763
584.1263	0.148751
584.3535	0.152825
584.5807	0.157236
584.8079	0.161984
585.0351	0.177264
585.2623	0.189041
585.4895	0.188682
585.7167	0.187817
585.9440	0.180704
586.1713	0.172516
586.3985	0.158882
586.6258	0.155357
586.8531	0.158164
587.0804	0.167155
587.3077	0.176146
587.5350	0.184039
587.7624	0.181380
587.9897	0.167408
588.2171	0.161098
588.4445	0.161984
588.6718	0.156117
588.8992	0.148456
589.1266	0.140774
589.3540	0.130791
589.5815	0.129799
589.8089	0.127309
590.0363	0.129715
590.2638	0.121294
590.4913	0.117938
590.7187	0.112873
590.9462	0.109264
591.1737	0.105951
591.4012	0.102299
591.6288	0.103903
591.8563	0.100294
592.0838	0.101793
592.3114	0.105254
592.5389	0.119141
592.7665	0.148182
592.9941	0.158059
593.2217	0.163251
593.4493	0.162238
593.6769	0.160064
593.9046	0.154049
594.1322	0.144108
594.3598	0.139064
594.5875	0.133345
594.8152	0.143813
595.0429	0.153479
595.2705	0.152170
595.4983	0.148625
595.7260	0.145354
595.9537	0.137228
596.1814	0.129124
596.4092	0.120323
596.6369	0.112240
596.8647	0.112409
597.0925	0.113316
597.3203	0.118128
597.5481	0.122455
597.7759	0.118170
598.0037	0.112345
598.2315	0.109475
598.4594	0.108504
598.6872	0.123763
598.9151	0.141365
599.1430	0.149321
599.3709	0.147781
599.5988	0.137819
599.8267	0.138621
600.0546	0.142420
600.2825	0.140288
600.5105	0.144720
600.7384	0.142357
600.9664	0.146282
601.1944	0.152297
601.4223	0.146451
601.6503	0.136722
601.8783	0.139613
602.1064	0.136447
602.3344	0.131340
602.5624	0.130496
602.7905	0.136321
603.0185	0.138431
603.2466	0.142441
603.4747	0.151326
603.7028	0.151558
603.9309	0.146662
604.1590	0.137819
604.3871	0.136300
604.6152	0.128934
604.8434	0.124122
605.0715	0.122792
605.2997	0.124840
605.5279	0.130601
605.7561	0.136046
605.9843	0.140331
606.2125	0.137798
606.4407	0.128892
606.6689	0.125114
606.8972	0.123510
607.1254	0.126000
607.3537	0.128026
607.5819	0.129820
607.8102	0.129124
608.0385	0.126844
608.2668	0.120998
608.4951	0.117706
608.7235	0.114561
608.9518	0.113907
609.1801	0.110551
609.4085	0.106098
609.6369	0.105233
609.8653	0.109560
610.0936	0.121125
610.3220	0.120239
610.5505	0.117453
610.7789	0.113147
611.0073	0.112029
611.2357	0.110404
611.4642	0.109243
611.6927	0.110741
611.9211	0.111016
612.1496	0.106162
612.3781	0.104811
612.6066	0.102848
612.8351	0.102426
613.0637	0.102384
613.2922	0.102721
613.5208	0.101772
613.7493	0.100484
613.9779	0.102848
614.2065	0.104642
614.4351	0.102278
614.6637	0.099809
614.8923	0.097572
615.1209	0.099514
615.3495	0.104051
615.5782	0.105592
615.8068	0.106077
616.0355	0.100252
616.2642	0.096474
616.4929	0.090945
616.7216	0.091641
616.9503	0.086998
617.1790	0.087653
617.4077	0.088877
617.6365	0.089130
617.8652	0.090628
618.0940	0.087526
618.3227	0.087315
618.5515	0.083368
618.7803	0.079379
619.0091	0.075391
619.2379	0.070410
619.4667	0.074567
619.6956	0.073386
619.9244	0.078535
620.1533	0.077100
620.3821	0.077142
620.6110	0.077480
620.8399	0.069587
621.0688	0.066759
621.2977	0.061883
621.5266	0.056903
621.7556	0.063255
621.9845	0.065366
622.2135	0.066189
622.4424	0.067751
622.6714	0.067919
622.9004	0.068869
623.1294	0.068320
623.3584	0.074926
623.5874	0.072605
623.8164	0.072752
624.0454	0.070663
624.2745	0.071212
624.5035	0.071359
624.7326	0.071697
624.9617	0.073723
625.1908	0.068764
625.4199	0.069080
625.6490	0.064817
625.8781	0.065176
626.1072	0.062411
626.3364	0.059541
626.5655	0.058190
626.7947	0.055826
627.0238	0.056058
627.2530	0.056628
627.4822	0.055299
627.7114	0.056502
627.9406	0.056291
628.1698	0.052808
628.3991	0.049052
628.6283	0.048735
628.8576	0.048524
629.0868	0.048081
629.3161	0.049896
629.5454	0.051183
629.7747	0.051268
630.0040	0.051331
630.2333	0.048144
630.4626	0.047574
630.6920	0.046097
630.9213	0.047152
631.1507	0.041960
631.3801	0.042657
631.6094	0.041686
631.8388	0.043121
632.0682	0.042593
632.2976	0.040166
632.5271	0.040567
632.7565	0.038710
632.9859	0.037423
633.2154	0.034974
633.4448	0.036367
633.6743	0.036557
633.9038	0.035587
634.1333	0.037486
634.3628	0.034278
634.5923	0.034531
634.8218	0.033539
635.0514	0.032357
635.2809	0.031872
635.5105	0.032294
635.7400	0.031682
635.9696	0.034974
636.1992	0.034046
636.4288	0.035565
636.6584	0.037317
636.8880	0.036768
637.1177	0.036410
637.3473	0.034215
637.5770	0.034785
637.8066	0.034489
638.0363	0.033117
638.2660	0.032590
638.4957	0.034510
638.7254	0.036135
638.9551	0.035122
639.1848	0.032737
639.4145	0.031956
639.6443	0.032769
639.8740	0.031248
640.1038	0.029915
640.3336	0.029633
640.5633	0.029554
640.7931	0.030805
641.0229	0.027435
641.2528	0.028435
641.4826	0.025727
641.7124	0.025474
641.9423	0.026729
642.1721	0.024410
642.4020	0.027123
642.6319	0.024018
642.8617	0.023805
643.0916	0.024121
643.3216	0.024549
643.5515	0.025378
643.7814	0.023107
644.0113	0.024925
644.2413	0.023433
644.4712	0.022598
644.7012	0.021025
644.9312	0.020700
645.1612	0.022474
645.3912	0.022529
645.6212	0.022605
645.8512	0.022133
646.0812	0.021172
646.3113	0.019281
646.5413	0.019716
646.7714	0.020222
647.0015	0.020367
647.2316	0.019593
647.4616	0.019576
647.6918	0.017812
647.9219	0.022746
648.1520	0.025492
648.3821	0.024748
648.6123	0.026904
648.8424	0.025476
649.0726	0.026651
649.3028	0.026409
649.5329	0.027220
649.7631	0.027635
649.9933	0.025409
650.2236	0.026573
650.4538	0.023356
650.6840	0.024750
650.9143	0.022140
651.1445	0.023001
651.3748	0.022845
651.6051	0.024126
651.8354	0.025398
652.0657	0.025191
652.2960	0.026973
652.5263	0.025500
652.7566	0.025805
652.9870	0.022695
653.2173	0.026910
653.4477	0.026642
653.6780	0.028087
653.9084	0.025324
654.1388	0.026956
654.3692	0.027677
654.5996	0.030192
654.8300	0.029879
655.0605	0.047589
655.2909	0.131234
655.5213	0.397548
655.7518	0.795121
655.9823	1.013447
656.2128	1.004490
656.4433	1.006725
656.6738	1.005680
656.9043	0.887567
657.1348	0.706823
657.3653	0.574320
657.5959	0.490324
657.8264	0.429373
658.0570	0.386070
658.2875	0.355044
658.5181	0.319338
658.7487	0.298620
658.9793	0.285489
659.2099	0.234566
659.4406	0.162756
659.6712	0.103621
659.9018	0.057330
660.1325	0.037618
660.3632	0.026398
660.5938	0.023359
660.8245	0.022056
661.0552	0.020471
661.2859	0.020774
661.5166	0.018680
661.7474	0.019063
661.9781	0.018525
662.2088	0.018856
662.4396	0.017232
662.6704	0.020085
662.9011	0.018840
663.1319	0.017746
663.3627	0.018201
663.5935	0.017544
663.8243	0.018923
664.0552	0.017684
664.2860	0.018852
664.5168	0.018161
664.7477	0.019522
664.9786	0.018700
665.2094	0.019539
665.4403	0.019644
665.6712	0.019355
665.9021	0.020104
666.1330	0.021418
666.3640	0.017996
666.5949	0.018594
666.8259	0.017539
667.0568	0.018347
667.2878	0.018633
667.5188	0.017778
667.7497	0.017713
667.9807	0.017759
668.2117	0.017170
668.4428	0.017141
668.6738	0.015284
668.9048	0.016149
669.1359	0.016740
669.3669	0.018871
669.5980	0.015621
669.8291	0.019631
670.0602	0.017415
670.2913	0.018133
670.5224	0.017394
670.7535	0.018703
670.9846	0.017563
671.2157	0.018639
671.4469	0.021214
671.6781	0.024190
671.9092	0.026279
672.1404	0.025308
672.3716	0.030015
672.6028	0.027398
672.8340	0.028664
673.0652	0.027546
673.2964	0.023726
673.5277	0.024316
673.7589	0.023958
673.9902	0.023008
674.2214	0.023156
674.4527	0.022902
674.6840	0.021826
674.9153	0.019927
675.1466	0.019969
675.3779	0.022902
675.6093	0.021045
675.8406	0.020919
676.0719	0.021277
676.3033	0.019694
676.5347	0.020053
676.7661	0.021467
676.9974	0.018977
677.2288	0.018534
677.4602	0.020475
677.6917	0.022079
677.9231	0.023261
678.1545	0.024464
678.3860	0.024802
678.6174	0.024717
678.8489	0.026955
679.0804	0.027419
679.3119	0.027735
679.5434	0.026638
679.7749	0.028474
680.0064	0.027820
680.2379	0.029107
680.4694	0.030669
680.7010	0.028685
680.9325	0.027735
681.1641	0.026955
681.3957	0.030289
681.6273	0.026701
681.8589	0.028115
682.0905	0.026490
682.3221	0.026110
682.5537	0.026406
682.7854	0.024760
683.0170	0.023430
683.2487	0.025034
683.4803	0.024886
683.7120	0.025477
683.9437	0.025224
684.1754	0.027419
684.4071	0.028242
684.6388	0.030753
684.8705	0.028580
685.1023	0.033349
685.3340	0.036346
685.5658	0.036600
685.7975	0.037127
686.0293	0.037233
686.2611	0.034595
686.4929	0.036367
686.7247	0.033940
686.9565	0.033708
687.1883	0.035228
687.4202	0.035903
687.6520	0.036262
687.8838	0.034172
688.1157	0.033898
688.3476	0.032653
688.5795	0.031914
688.8114	0.030416
689.0433	0.029508
689.2752	0.029593
689.5071	0.029213
689.7390	0.030753
689.9710	0.030965
690.2029	0.027524
690.4349	0.027356
690.6669	0.028031
690.8988	0.027883
691.1308	0.029044
691.3628	0.030479
691.5948	0.031091
691.8269	0.029361
692.0589	0.029930
692.2909	0.029909
692.5230	0.030711
692.7550	0.029550
692.9871	0.031703
693.2192	0.031154
693.4513	0.032315
693.6834	0.032653
693.9155	0.030015
694.1476	0.029086
694.3797	0.028052
694.6119	0.025625
694.8440	0.028896
695.0762	0.029508
695.3083	0.028559
695.5405	0.025393
695.7727	0.024485
696.0049	0.027102
696.2371	0.023915
696.4693	0.025351
696.7016	0.028242
696.9338	0.035059
697.1660	0.033096
697.3983	0.034299
697.6306	0.032125
697.8628	0.032315
698.0951	0.031471
698.3274	0.030732
698.5597	0.030542
698.7920	0.030521
699.0243	0.030036
699.2567	0.027145
699.4890	0.027672
699.7214	0.029339
699.9537	0.026427
700.1861	0.026385
700.4185	0.024169
700.6509	0.025372
700.8833	0.024633
701.1157	0.023683
701.3481	0.024021
701.5806	0.023747
701.8130	0.021552
702.0454	0.025393
702.2779	0.023789
702.5104	0.024401
702.7429	0.024443
702.9753	0.024675
703.2078	0.023726
703.4403	0.023958
703.6729	0.024380
703.9054	0.024063
704.1379	0.025055
704.3705	0.024485
704.6030	0.023156
704.8356	0.020897
705.0682	0.019652
705.3008	0.020328
705.5334	0.018006
705.7660	0.018724
705.9986	0.019547
706.2312	0.020053
706.4638	0.024021
706.6965	0.025562
706.9291	0.029466
707.1618	0.030859
707.3945	0.033223
707.6272	0.030922
707.8599	0.029888
708.0926	0.031260
708.3253	0.030585
708.5580	0.031703
708.7907	0.029614
709.0235	0.030310
709.2562	0.028896
709.4890	0.030015
709.7217	0.026722
709.9545	0.026385
710.1873	0.028495
710.4201	0.027060
710.6529	0.029909
710.8857	0.027862
711.1186	0.026279
711.3514	0.025097
711.5842	0.027018
711.8171	0.022776
712.0500	0.023240
712.2828	0.023282
712.5157	0.025266
712.7486	0.023514
712.9815	0.023493
713.2144	0.024274
713.4474	0.024802
713.6803	0.026511
713.9132	0.026047
714.1462	0.028917
714.3791	0.028516
714.6121	0.026933
714.8451	0.027292
715.0781	0.029508
715.3111	0.029234
715.5441	0.028812
715.7771	0.029002
716.0102	0.025963
716.2432	0.023599
716.4762	0.026026
716.7093	0.023303
716.9424	0.022839
717.1754	0.022058
717.4085	0.020518
717.6416	0.022734
717.8747	0.023873
718.1078	0.023810
718.3410	0.026343
718.5741	0.022565
718.8072	0.023261
719.0404	0.023135
719.2736	0.023958
719.5067	0.023662
719.7399	0.022734
719.9731	0.025161
720.2063	0.022185
720.4395	0.021425
720.6727	0.025541
720.9060	0.023578
721.1392	0.024907
721.3725	0.024338
721.6057	0.025794
721.8390	0.024528
722.0723	0.024422
722.3055	0.023303
722.5388	0.024760
722.7721	0.022269
723.0055	0.022016
723.2388	0.023789
723.4721	0.022396
723.7055	0.021763
723.9388	0.022670
724.1722	0.022459
724.4056	0.022375
724.6389	0.023303
724.8723	0.022734
725.1057	0.024063
725.3391	0.026701
725.5726	0.025498
725.8060	0.028580
726.0394	0.028622
726.2729	0.028010
726.5063	0.028115
726.7398	0.026828
726.9733	0.027271
727.2068	0.025097
727.4403	0.024992
727.6738	0.025857
727.9073	0.026131
728.1408	0.028073
728.3743	0.026955
728.6079	0.027672
728.8414	0.028115
729.0750	0.028221
729.3086	0.029255
729.5421	0.029150
729.7757	0.030310
730.0093	0.030838
730.2429	0.030521
730.4766	0.031555
730.7102	0.033455
730.9438	0.036072
731.1775	0.034974
731.4111	0.035101
731.6448	0.035439
731.8785	0.034911
732.1122	0.034088
732.3458	0.032294
732.5795	0.033328
732.8133	0.035122
733.0470	0.034848
733.2807	0.034721
733.5145	0.036135
733.7482	0.036114
733.9820	0.037866
734.2157	0.041812
734.4495	0.039850
734.6833	0.041306
734.9171	0.038984
735.1509	0.036811
735.3847	0.040040
735.6185	0.038562
735.8524	0.041222
736.0862	0.040314
736.3201	0.039681
736.5539	0.040652
736.7878	0.038098
737.0217	0.040124
737.2556	0.038647
737.4895	0.039533
737.7234	0.037781
737.9573	0.034763
738.1912	0.033054
738.4252	0.034384
738.6591	0.033793
738.8931	0.033666
739.1271	0.035143
739.3610	0.038372
739.5950	0.038984
739.8290	0.035523
740.0630	0.034785
740.2970	0.036325
740.5310	0.032569
740.7651	0.031028
740.9991	0.030521
741.2332	0.030986
741.4672	0.028411
741.7013	0.029994
741.9354	0.027398
742.1695	0.028284
742.4036	0.028643
742.6377	0.029150
742.8718	0.029825
743.1059	0.026279
743.3400	0.025836
743.5742	0.025583
743.8083	0.024696
744.0425	0.023451
744.2767	0.022755
744.5108	0.023493
744.7450	0.025688
744.9792	0.024992
745.2134	0.023113
745.4477	0.023261
745.6819	0.022079
745.9161	0.022206
746.1504	0.026174
746.3846	0.023514
746.6189	0.024253
746.8532	0.022565
747.0874	0.024443
747.3217	0.026701
747.5560	0.029150
747.7903	0.024253
748.0247	0.024380
748.2590	0.022122
748.4933	0.023641
748.7277	0.024570
748.9620	0.025498
749.1964	0.025604
749.4308	0.025414
749.6652	0.027904
749.8995	0.029297
750.1339	0.030796
750.3684	0.031872
750.6028	0.035966
750.8372	0.034046
751.0717	0.030310
751.3061	0.029677
751.5406	0.032653
751.7750	0.032822
752.0095	0.035080
752.2440	0.031070
752.4785	0.029044
752.7130	0.029909
752.9475	0.028643
753.1820	0.029677
753.4166	0.030500
753.6511	0.033244
753.8856	0.036473
754.1202	0.035312
754.3548	0.033793
754.5894	0.032547
754.8239	0.031387
755.0585	0.034405
755.2931	0.033455
755.5278	0.032906
755.7624	0.034215
755.9970	0.035798
756.2317	0.038605
756.4663	0.038204
756.7010	0.041243
756.9356	0.040968
757.1703	0.043416
757.4050	0.045654
757.6397	0.048503
757.8744	0.051563
758.1091	0.049157
758.3438	0.046202
758.5786	0.044472
758.8133	0.045042
759.0481	0.044535
759.2828	0.046498
759.5176	0.051985
759.7524	0.049748
759.9872	0.049052
760.2220	0.051690
760.4568	0.052745
760.6916	0.050824
760.9264	0.053336
761.1613	0.049917
761.3961	0.048798
761.6310	0.043839
761.8658	0.042826
762.1007	0.039681
762.3356	0.041243
762.5705	0.039259
762.8054	0.038014
763.0403	0.040821
763.2752	0.042108
763.5101	0.041475
763.7450	0.041644
763.9800	0.040061
764.2149	0.042340
764.4499	0.045907
764.6849	0.044662
764.9198	0.049579
765.1548	0.048397
765.3898	0.047827
765.6248	0.044451
765.8599	0.045844
766.0949	0.042340
766.3299	0.036515
766.5650	0.035734
766.8000	0.034785
767.0351	0.032357
767.2701	0.031239
767.5052	0.031450
767.7403	0.031408
767.9754	0.032041
768.2105	0.036811
768.4456	0.037549
768.6808	0.038436
768.9159	0.039955
769.1510	0.038351
769.3862	0.038731
769.6214	0.037402
769.8565	0.036220
770.0917	0.037169
770.3269	0.037001
770.5621	0.036515
770.7973	0.037191
771.0325	0.038056
771.2677	0.040209
771.5030	0.039428
771.7382	0.033392
771.9735	0.033624
772.2087	0.033666
772.4440	0.034341
772.6793	0.035249
772.9146	0.033687
773.1499	0.032526
773.3852	0.031260
773.6205	0.030500
773.8558	0.031133
774.0911	0.030057
774.3265	0.028495
774.5618	0.027503
774.7972	0.026701
775.0326	0.026976
775.2679	0.026089
775.5033	0.022755
775.7387	0.023050
775.9741	0.021910
776.2095	0.021383
776.4450	0.020454
776.6804	0.019610
776.9158	0.019589
777.1513	0.020792
777.3868	0.020771
777.6222	0.019906
777.8577	0.019694
778.0932	0.021256
778.3287	0.019483
778.5642	0.023388
778.7997	0.023177
779.0352	0.024422
779.2707	0.023261
779.5063	0.024992
779.7418	0.024105
779.9774	0.025878
780.2130	0.022354
780.4485	0.022248
780.6841	0.024232
780.9197	0.023852
781.1553	0.028348
781.3909	0.028917
781.6265	0.029424
781.8622	0.026532
782.0978	0.029508
782.3335	0.028474
782.5691	0.028073
782.8048	0.027440
783.0405	0.027799
783.2761	0.026448
783.5118	0.030099
783.7475	0.026364
783.9832	0.026912
784.2190	0.026701
784.4547	0.023831
784.6904	0.023683
784.9262	0.024084
785.1619	0.023177
785.3977	0.023937
785.6335	0.024338
785.8692	0.024338
786.1050	0.023894
786.3408	0.024717
786.5766	0.023113
786.8124	0.022459
787.0483	0.022734
787.2841	0.023029
787.5199	0.024084
787.7558	0.021974
787.9917	0.025161
788.2275	0.023472
788.4634	0.025625
788.6993	0.025625
788.9352	0.025182
789.1711	0.025752
789.4070	0.024464
789.6429	0.024464
789.8789	0.022966
790.1148	0.019251
790.3507	0.023367
790.5867	0.019737
790.8227	0.019357
791.0586	0.018745
791.2946	0.020159
791.5306	0.019610
791.7666	0.020792
792.0026	0.017901
792.2387	0.017901
792.4747	0.019146
792.7107	0.019019
792.9468	0.017753
793.1828	0.017162
793.4189	0.018428
793.6550	0.018639
793.8910	0.022100
794.1271	0.024063
794.3632	0.025055
794.5993	0.025351
794.8355	0.023726
795.0716	0.028516
795.3077	0.026490
795.5439	0.027018
795.7800	0.024675
796.0162	0.022776
796.2523	0.021045
796.4885	0.020433
796.7247	0.016972
796.9609	0.018871
797.1971	0.016930
797.4333	0.019462
797.6695	0.018112
797.9058	0.017394
798.1420	0.018470
798.3783	0.018745
798.6145	0.017183
798.8508	0.018639
799.0871	0.017879
799.3233	0.018470
799.5596	0.018555
799.7959	0.017415
800.0322	0.018112
800.2686	0.015959
800.5049	0.014165
800.7412	0.015495
800.9776	0.015706
801.2139	0.016001
801.4503	0.014292
801.6867	0.015473
801.9230	0.014292
802.1594	0.014334
802.3958	0.013954
802.6322	0.013722
802.8686	0.014482
803.1051	0.012455
803.3415	0.015072
803.5779	0.015136
803.8144	0.014988
804.0508	0.013321
804.2873	0.013848
804.5238	0.014355
804.7603	0.015347
804.9968	0.014334
805.2333	0.013827
805.4698	0.014376
805.7063	0.014904
805.9428	0.014714
806.1794	0.018280
806.4159	0.019758
806.6525	0.019948
806.8890	0.019040
807.1256	0.018112
807.3622	0.017500
807.5988	0.016740
807.8354	0.019272
808.0720	0.020264
808.3086	0.021087
808.5452	0.017922
808.7818	0.019631
809.0185	0.017478
809.2551	0.017689
809.4918	0.016951
809.7284	0.016402
809.9651	0.017204
810.2018	0.017837
810.4385	0.014756
810.6752	0.018069
810.9119	0.014650
811.1486	0.013384
811.3853	0.017225
811.6221	0.014017
811.8588	0.013131
812.0956	0.013110
812.3323	0.013300
812.5691	0.013532
812.8059	0.010324
813.0427	0.011020
813.2795	0.010767
813.5163	0.011316
813.7531	0.014144
813.9899	0.015706
814.2267	0.015663
814.4636	0.014861
814.7004	0.014629
814.9373	0.013785
815.1742	0.013701
815.4110	0.013553
815.6479	0.011569
815.8848	0.011063
816.1217	0.011506
816.3586	0.010324
816.5955	0.012287
816.8324	0.013025
817.0694	0.011041
817.3063	0.010577
817.5433	0.012540
817.7802	0.012835
818.0172	0.010619
818.2542	0.012920
818.4912	0.009838
818.7282	0.010556
818.9652	0.011653
819.2022	0.010071
819.4392	0.010450
819.6762	0.008994
819.9133	0.010873
820.1503	0.009965
820.3874	0.011295
820.6244	0.012477
820.8615	0.011865
821.0986	0.013004
821.3357	0.012624
821.5727	0.010662
821.8099	0.011506
822.0470	0.012413
822.2841	0.011231
822.5212	0.009754
822.7584	0.010577
822.9955	0.009754
823.2327	0.009881
823.4698	0.008340
823.7070	0.008847
823.9442	0.008635
824.1814	0.009226
824.4186	0.007960
824.6558	0.010007
824.8930	0.009712
825.1302	0.009036
825.3675	0.009522
825.6047	0.011316
825.8419	0.008762
826.0792	0.009142
826.3165	0.008530
826.5537	0.011252
826.7910	0.010071
827.0283	0.010493
827.2656	0.011210
827.5029	0.011316
827.7402	0.010746
827.9776	0.008994
828.2149	0.008424
828.4522	0.009036
828.6896	0.010239
828.9270	0.009860
829.1643	0.011041
829.4017	0.010999
829.6391	0.008699
829.8765	0.009163
830.1139	0.008108
830.3513	0.007897
830.5887	0.007053
830.8261	0.007812
831.0636	0.005639
831.3010	0.007580
831.5385	0.006525
831.7759	0.007538
832.0134	0.007264
832.2509	0.007432
832.4884	0.007264
832.7259	0.006272
832.9634	0.006863
833.2009	0.008108
833.4384	0.007285
833.6759	0.007496
833.9135	0.007538
834.1510	0.008192
834.3886	0.008213
834.6261	0.006989
834.8637	0.006588
835.1013	0.009923
835.3389	0.006483
835.5765	0.007665
835.8141	0.007855
836.0517	0.008171
836.2893	0.006040
836.5269	0.008045
836.7646	0.006082
837.0022	0.005048
837.2399	0.006293
837.4775	0.005807
837.7152	0.005533
837.9529	0.006588
838.1906	0.005301
838.4283	0.006040
838.6660	0.004984
838.9037	0.005786
839.1414	0.006398
839.3791	0.004393
839.6169	0.006272
839.8546	0.005301
840.0924	0.006272
840.3302	0.004520
840.5679	0.004984
840.8057	0.004984
841.0435	0.005913
841.2813	0.005005
841.5191	0.004520
841.7569	0.004963
841.9947	0.004604
842.2326	0.006736
842.4704	0.003887
842.7082	0.004647
842.9461	0.005111
843.1840	0.004773
843.4218	0.003169
843.6597	0.003190
843.8976	0.003317
844.1355	0.003676
844.3734	0.004752
844.6113	0.003866
844.8492	0.003043
845.0872	0.003106
845.3251	0.005216
845.5631	0.004837
845.8010	0.004098
846.0390	0.005470
846.2770	0.002958
846.5149	0.003781
846.7529	0.002578
846.9909	0.003190
847.2289	0.004689
847.4669	0.004879
847.7050	0.003591
847.9430	0.005174
848.1810	0.002747
848.4191	0.003591
848.6571	0.004414
848.8952	0.002874
849.1333	0.004668
849.3713	0.003465
849.6094	0.003676
849.8475	0.002621
850.0856	0.003296
850.3237	0.003992
850.5619	0.004203
850.8000	0.003929
851.0381	0.004119
851.2763	0.001713
851.5144	0.003971
851.7526	0.004921
851.9908	0.003866
852.2289	0.003824
852.4671	0.005048
852.7053	0.008446
852.9435	0.009058
853.1817	0.010071
853.4200	0.010788
853.6582	0.011379
853.8964	0.010134
854.1347	0.011421
854.3729	0.012097
854.6112	0.011506
854.8495	0.011295
855.0877	0.011105
855.3260	0.011485
855.5643	0.010408
855.8026	0.010598
856.0409	0.009543
856.2792	0.009163
856.5176	0.010936
856.7559	0.009564
856.9942	0.010113
857.2326	0.007833
857.4710	0.007559
857.7093	0.008361
857.9477	0.008931
858.1861	0.007031
858.4245	0.008150
858.6629	0.007728
858.9013	0.007116
859.1397	0.006926
859.3781	0.006799
859.6166	0.008087
859.8550	0.007411
860.0935	0.005617
860.3319	0.005955
860.5704	0.005069
860.8089	0.006145
861.0473	0.004457
861.2858	0.005449
861.5243	0.005364
861.7628	0.005596
862.0013	0.006968
862.2399	0.005238
862.4784	0.004942
862.7169	0.005195
862.9555	0.003718
863.1940	0.005259
863.4326	0.005723
863.6712	0.006398
863.9098	0.004984
864.1483	0.005807
864.3869	0.005617
864.6255	0.003655
864.8642	0.004626
865.1028	0.004815
865.3414	0.005322
865.5800	0.003634
865.8187	0.005681
866.0573	0.004288
866.2960	0.004056
866.5347	0.003908
866.7733	0.003824
867.0120	0.003760
867.2507	0.002557
867.4894	0.004499
867.7281	0.004013
867.9669	0.005596
868.2056	0.003612
868.4443	0.004815
868.6831	0.003549
868.9218	0.005744
869.1606	0.003929
869.3993	0.003866
869.6381	0.003866
869.8769	0.002599
870.1157	0.003359
870.3545	0.004161
870.5933	0.003401
870.8321	0.004583
871.0709	0.004414
871.3097	0.003486
871.5486	0.004203
871.7874	0.002916
872.0263	0.002979
872.2651	0.004119
872.5040	0.005195
872.7429	0.003338
872.9818	0.004520
873.2207	0.003317
873.4596	0.003022
873.6985	0.004499
873.9374	0.004077
874.1763	0.003971
874.4153	0.004203
874.6542	0.003887
874.8932	0.003380
875.1321	0.004626
875.3711	0.005027
875.6101	0.003908
875.8491	0.002726
876.0880	0.004351
876.3270	0.002958
876.5661	0.003591
876.8051	0.003845
877.0441	0.005090
877.2831	0.005660
877.5222	0.003739
877.7612	0.004182
878.0003	0.003359
878.2393	0.004604
878.4784	0.005174
878.7175	0.005216
878.9566	0.005132
879.1957	0.005512
879.4348	0.005111
879.6739	0.005850
879.9130	0.006884
880.1521	0.004752
880.3913	0.005702
880.6304	0.007200
880.8696	0.006293
881.1087	0.004119
881.3479	0.006947
881.5871	0.004921
881.8262	0.004794
882.0654	0.005871
882.3046	0.004773
882.5438	0.004140
882.7831	0.004267
883.0223	0.004035
883.2615	0.005427
883.5007	0.003655
883.7400	0.004731
883.9792	0.005470
884.2185	0.003127
884.4578	0.003317
884.6971	0.002177
884.9363	0.004668
885.1756	0.004963
885.4149	0.006145
885.6542	0.003950
885.8936	0.005850
886.1329	0.005470
886.3722	0.004984
886.6116	0.005280
886.8509	0.004393
887.0903	0.006314
887.3296	0.005554
887.5690	0.004520
887.8084	0.003486
888.0478	0.003612
888.2872	0.004288
888.5266	0.002557
888.7660	0.004246
889.0054	0.005027
889.2448	0.002958
889.4843	0.004710
889.7237	0.004963
889.9632	0.003570
890.2026	0.004119
890.4421	0.004626
890.6816	0.003866
890.9211	0.003317
891.1606	0.002979
891.4001	0.002979
891.6396	0.005512
891.8791	0.002768
892.1186	0.004562
892.3581	0.004119
892.5977	0.002853
892.8372	0.003697
893.0768	0.002747
893.3163	0.001460
893.5559	0.004393
893.7955	0.003781
894.0351	0.002599
894.2747	0.003043
894.5143	0.004267
894.7539	0.003570
894.9935	0.002346
895.2331	0.003254
895.4727	0.004056
895.7124	0.003233
895.9520	0.004921
896.1917	0.003528
896.4314	0.006187
896.6710	0.003634
896.9107	0.003507
897.1504	0.004035
897.3901	0.003317
897.6298	0.002304
897.8695	0.002895
898.1092	0.002304
898.3489	0.003148
898.5887	0.003127
898.8284	0.005702
899.0682	0.003296
899.3079	0.004309
899.5477	0.002431
899.7875	0.003612
900.0272	0.003549
900.2670	0.003866
900.5068	0.003000
900.7466	0.003380
900.9864	0.003317
901.2263	0.003275
901.4661	0.003000
901.7059	0.003106
901.9458	0.003401
902.1856	0.003190
902.4255	0.003591
902.6654	0.005406
902.9052	0.002937
903.1451	0.002874
903.3850	0.003296
903.6249	0.001185
903.8648	0.001375
904.1047	0.002937
904.3446	0.003022
904.5846	0.004372
904.8245	0.003570
905.0644	0.002367
905.3044	0.003043
905.5444	0.003950
905.7843	0.003992
906.0243	0.003254
906.2643	0.003507
906.5043	0.003591
906.7443	0.002726
906.9843	0.004035
907.2243	0.003085
907.4643	0.003507
907.7043	0.003781
907.9444	0.003127
908.1844	0.003549
908.4245	0.003591
908.6645	0.002684
908.9046	0.002895
909.1447	0.002177
909.3847	0.001418
909.6248	0.002832
909.8649	0.002599
910.1050	0.001122
910.3452	0.001776
910.5853	0.002747
910.8254	0.002789
911.0655	0.002684
911.3057	0.002789
911.5458	0.001819
911.7860	0.003950
912.0262	0.004035
912.2663	0.004837
912.5065	0.001840
912.7467	0.003000
912.9869	0.002346
913.2271	0.003148
913.4673	0.003444
913.7075	0.002093
913.9478	0.002874
914.1880	0.002494
914.4283	0.002599
914.6685	0.003359
914.9088	0.002937
915.1490	0.003950
915.3893	0.001059
915.6296	0.001776
915.8699	0.002726
916.1102	0.003022
916.3505	0.001143
916.5908	0.004056
916.8311	0.002093
917.0714	0.001692
917.3118	0.003359
917.5521	0.004161
917.7925	0.003106
918.0328	0.003781
918.2732	0.003064
918.5136	0.002979
918.7539	0.002452
918.9943	0.003169
919.2347	0.001396
919.4751	0.002832
919.7155	0.001650
919.9560	0.003507
920.1964	0.002431
920.4368	0.001544
920.6773	0.002494
920.9177	0.001945
921.1582	0.002156
921.3986	0.003043
921.6391	0.002135
921.8796	0.003022
922.1201	0.001924
922.3606	0.002979
922.6011	0.002979
922.8416	0.000911
923.0821	0.003190
923.3226	0.003317
923.5631	0.000721
923.8037	0.003718
924.0442	0.003739
924.2848	0.002726
924.5254	0.002452
924.7659	0.002557
925.0065	0.001312
925.2471	0.002473
925.4877	0.001945
925.7283	0.002325
925.9689	0.001755
926.2095	0.002578
926.4501	0.000489
926.6908	0.002114
926.9314	0.000721
927.1720	0.000784
927.4127	0.001291
927.6533	0.001819
927.8940	0.000869
928.1347	0.001966
928.3754	0.002473
928.6161	0.001650
928.8568	0.002008
929.0975	0.002621
929.3382	0.001797
929.5789	0.001164
929.8196	0.001291
930.0604	0.002241
930.3011	0.000869
930.5419	0.001375
930.7826	0.002916
931.0234	0.001650
931.2642	0.001143
931.5049	0.000362
931.7457	0.000341
931.9865	0.003211
932.2273	0.000172
932.4681	0.002452
932.7089	0.001924
932.9498	0.000088
933.1906	0.000911
933.4314	0.002177
933.6723	0.001418
933.9131	0.002367
934.1540	0.002198
934.3949	0.001375
934.6358	0.000489
934.8766	0.002156
935.1175	0.000911
935.3584	0.000405
935.5993	0.000193
935.8403	0.001629
936.0812	0.000784
936.3221	0.001101
936.5630	0.000046
936.8040	0.001080
937.0449	0.000341
937.2859	0.001924
937.5269	0.000088
937.7678	0.001924
938.0088	0.001101
938.2498	0.000573
938.4908	0.000151
938.7318	0.000995
938.9728	0.002473
939.2138	0.001396
939.4549	0.002177
939.6959	0.000573
939.9369	0.000806
940.1780	-0.000946
940.4190	0.000806
940.6601	0.000236
940.9012	0.001713
941.1422	-0.000355
941.3833	0.000299
941.6244	0.000341
941.8655	0.001249
942.1066	0.000763
942.3477	0.000763
942.5889	0.000130
942.8300	0.000848
943.0711	-0.000376
943.3123	0.001776
943.5534	0.000447
943.7946	0.001861
944.0357	0.000236
944.2769	0.000953
944.5181	0.000341
944.7593	0.001650
945.0005	0.000594
945.2417	0.000405
945.4829	0.001586
945.7241	0.001143
945.9653	0.000531
946.2066	0.000531
946.4478	0.000088
946.6891	0.002494
946.9303	0.000468
947.1716	0.001375
947.4128	0.000447
947.6541	0.000784
947.8954	0.000721
948.1367	0.000172
948.3780	-0.000946
948.6193	0.001945
948.8606	0.000806
949.1019	-0.000081
949.3433	0.000383
949.5846	-0.000229
949.8259	-0.000524
950.0673	-0.000144
950.3086	-0.000081
950.5500	0.000637
950.7914	0.000383
951.0327	-0.000123
951.2741	0.000763
951.5155	0.001966
951.7569	0.000700
951.9983	-0.000144
952.2398	0.001185
952.4812	0.000890
952.7226	0.000742
952.9640	-0.000292
953.2055	0.000193
953.4469	0.001523
953.6884	0.001375
953.9299	0.001354
954.1713	0.000848
954.4128	0.002262
954.6543	-0.000229
954.8958	0.001671
955.1373	0.000742
955.3788	0.001228
955.6203	0.000616
955.8618	-0.000292
956.1034	0.000257
956.3449	-0.000777
956.5865	0.001460
956.8280	0.000953
957.0696	0.000215
957.3111	0.000278
957.5527	-0.000988
957.7943	0.001249
958.0359	0.000046
958.2775	0.000447
958.5191	0.000257
958.7607	0.001797
959.0023	-0.000609
959.2439	0.002409
959.4856	0.000974
959.7272	0.000742
959.9688	0.000236
960.2105	0.000679
960.4522	0.000215
960.6938	-0.000060
960.9355	-0.000355
961.1772	0.000299
961.4189	-0.000672
961.6606	0.001523
961.9023	0.000383
962.1440	-0.001178
962.3857	0.000341
962.6274	0.001418
962.8692	0.000172
963.1109	-0.000376
963.3527	0.000742
963.5944	0.000193
963.8362	0.000278
964.0779	0.001502
964.3197	-0.000883
964.5615	0.001270
964.8033	0.000405
965.0451	0.000616
965.2869	-0.000651
965.5287	0.001143
965.7705	0.001650
966.0123	0.001017
966.2542	-0.000798
966.4960	0.001143
966.7379	-0.000397
966.9797	0.001586
967.2216	-0.000904
967.4634	0.000468
967.7053	-0.000229
967.9472	-0.000904
968.1891	-0.000165
968.4310	0.000679
968.6729	0.001207
968.9148	0.001481
969.1567	0.000130
969.3987	0.000721
969.6406	-0.000566
969.8825	0.000067
970.1245	0.000510
970.3664	0.000869
970.6084	0.001481
970.8504	0.000341
971.0923	-0.000988
971.3343	-0.000165
971.5763	-0.000250
971.8183	0.000552
972.0603	-0.000208
972.3023	-0.000060
972.5443	0.000405
972.7864	0.000763
973.0284	0.000025
973.2704	0.000932
973.5125	-0.000482
973.7545	0.001207
973.9966	0.000278
974.2387	0.000784
974.4807	0.001903
974.7228	0.000489
974.9649	0.000025
975.2070	-0.000482
975.4491	-0.000018
975.6912	-0.000039
975.9333	0.000299
976.1755	-0.000355
976.4176	-0.001284
976.6597	0.001038
976.9019	-0.000102
977.1440	-0.000060
977.3862	0.000721
977.6283	0.000067
977.8705	0.000489
978.1127	0.000995
978.3549	-0.000102
978.5971	0.000784
978.8393	-0.000440
979.0815	0.001629
979.3237	-0.001010
979.5659	-0.000693
979.8082	-0.000123
980.0504	-0.000503
980.2926	-0.000967
980.5349	0.000088
980.7771	0.001375
981.0194	-0.000018
981.2617	0.000405
981.5040	-0.001073
981.7462	0.000193
981.9885	0.000299
982.2308	0.000531
982.4731	0.001207
982.7155	-0.002149
982.9578	0.001375
983.2001	-0.000798
983.4424	0.000405
983.6848	-0.001010
983.9271	-0.000186
984.1695	-0.000524
984.4118	0.000974
984.6542	-0.001263
984.8966	0.000594
985.1390	-0.000102
985.3814	0.000215
985.6238	-0.000397
985.8662	0.000046
986.1086	-0.000144
986.3510	0.000172
986.5934	-0.001052
986.8358	-0.000376
987.0783	0.001164
987.3207	0.000299
987.5632	-0.002086
987.8056	-0.001136
988.0481	-0.001917
988.2906	0.001143
988.5331	0.001249
988.7756	0.001143
989.0180	-0.000018
989.2605	0.000426
989.5031	-0.000798
989.7456	0.000193
989.9881	0.000552
990.2306	0.000869
990.4732	-0.001495
990.7157	0.000278
990.9582	-0.000250
991.2008	0.000700
991.4434	0.000172
991.6859	-0.000988
991.9285	-0.000609
992.1711	0.000911
992.4137	-0.000208
992.6563	-0.000925
992.8989	-0.000693
993.1415	-0.000271
993.3841	0.001143
993.6267	0.000510
993.8694	0.000236
994.1120	-0.000566
994.3547	-0.000714
994.5973	0.000995
994.8400	-0.000566
995.0826	-0.000566
995.3253	-0.001368
995.5680	0.001270
995.8107	-0.000229
996.0534	0.001101
996.2961	-0.000250
996.5388	-0.000609
996.7815	-0.001115
997.0242	-0.000397
997.2670	0.000067
997.5097	0.000869
997.7524	-0.000967
997.9952	-0.001073
998.2379	-0.000735
998.4807	-0.000397
998.7235	0.000109
998.9662	-0.000334
999.2090	0.000405
999.4518	0.000742
999.6946	-0.001199
999.9374	0.000594
1000.1802	0.000700
1000.4230	-0.001389
1000.6659	-0.000039
1000.9087	-0.000883
1001.1515	0.000320
1001.3944	-0.000503
1001.6372	0.000383
1001.8801	-0.001242
1002.1230	-0.001073
1002.3658	-0.001368
1002.6087	0.001270
1002.8516	-0.000313
1003.0945	-0.000102
1003.3374	0.000447
1003.5803	0.000573
1003.8232	-0.000313
1004.0661	0.001143
1004.3091	0.000447
1004.5520	-0.000165
1004.7949	0.000468
1005.0379	-0.000566
1005.2808	-0.000440
1005.5238	-0.000419
1005.7667	0.000320
1006.0097	0.000130
1006.2527	0.001059
1006.4957	0.000489
1006.7387	-0.000376
1006.9817	0.000088
1007.2247	-0.000693
1007.4677	-0.000250
1007.7107	0.000151
1007.9538	0.001164
1008.1968	0.000172
1008.4398	0.000531
1008.6829	-0.001221
1008.9259	-0.002213
1009.1690	0.000025
1009.4121	0.000489
1009.6551	-0.000102
1009.8982	0.000742
1010.1413	0.000362
1010.3844	-0.000355
1010.6275	-0.000672
1010.8706	0.000552
1011.1137	0.000742
1011.3568	0.000278
1011.6000	-0.000756
1011.8431	-0.000545
1012.0863	0.000447
1012.3294	-0.000123
1012.5726	-0.000250
1012.8157	0.000046
1013.0589	-0.000862
1013.3021	-0.000250
1013.5452	0.000447
1013.7884	0.000531
1014.0316	-0.000566
1014.2748	-0.000123
1014.5180	0.000320
1014.7613	0.000130
1015.0045	-0.000904
1015.2477	-0.000440
1015.4909	-0.000313
1015.7342	0.001354
1015.9774	-0.002149
1016.2207	0.000299
1016.4640	-0.000186
1016.7072	0.000130
1016.9505	0.000172
1017.1938	0.000869
1017.4371	0.000215
1017.6804	0.001059
1017.9237	0.000088
1018.1670	0.000468
1018.4103	-0.001052
1018.6536	-0.000102
1018.8969	-0.000292
1019.1403	0.000320
1019.3836	-0.000271
1019.6270	0.000995
1019.8703	0.000151
1020.1137	-0.000334
1020.3571	-0.000292
1020.6004	-0.000482
1020.8438	-0.000841
1021.0872	-0.000039
1021.3306	0.000004
1021.5740	0.000510
1021.8174	-0.000144
1022.0608	-0.000419
1022.3042	-0.000566
1022.5477	0.000046
1022.7911	-0.001516
1023.0345	-0.000735
