# Wavelength (nm)	Intensity (a.u.)
197.7802	0.000311
197.9842	0.001851
198.1882	0.000206
198.3922	-0.000343
198.5963	0.001028
198.8003	-0.000364
199.0044	0.000733
199.2085	0.000374
199.4126	0.000185
199.6168	0.000817
199.8209	0.000522
200.0251	-0.000469
200.2292	-0.000111
200.4334	0.001281
200.6376	0.001028
200.8418	-0.000069
201.0461	0.000817
201.2503	0.000691
201.4546	0.001155
201.6589	0.001998
201.8631	0.000775
202.0674	-0.001018
202.2718	-0.000469
202.4761	0.000817
202.6805	-0.000701
202.8848	0.000395
203.0892	0.000100
203.2936	0.000796
203.4980	0.001197
203.7024	-0.001081
203.9069	-0.000047
204.1113	0.000374
204.3158	-0.000575
204.5203	0.000290
204.7248	0.000480
204.9293	-0.000617
205.1338	0.000880
205.3384	0.000859
205.5430	0.001091
205.7475	-0.000111
205.9521	0.000817
206.1567	0.000100
206.3614	0.000733
206.5660	0.001387
206.7706	0.001829
206.9753	0.000944
207.1800	0.000859
207.3847	0.000564
207.5894	0.001534
207.7941	0.000606
207.9989	-0.000406
208.2036	0.001429
208.4084	0.000543
208.6132	0.001281
208.8180	0.001808
209.0228	-0.000638
209.2276	0.000353
209.4325	0.000712
209.6373	0.001492
209.8422	0.000438
210.0471	-0.000870
210.2520	0.001239
210.4569	0.001239
210.6618	0.000374
210.8668	0.000880
211.0718	0.000944
211.2767	0.001471
211.4817	0.001049
211.6867	0.000248
211.8918	0.000585
212.0968	0.001155
212.3018	-0.000638
212.5069	0.001808
212.7120	-0.000153
212.9171	0.001640
213.1222	-0.000364
213.3273	0.000163
213.5325	0.000564
213.7376	0.000353
213.9428	0.000648
214.1480	0.002083
214.3532	-0.000891
214.5584	0.001387
214.7636	0.000480
214.9689	0.001323
215.1741	-0.000216
215.3794	0.001049
215.5847	0.000185
215.7900	0.000986
215.9953	0.000353
216.2007	0.000311
216.4060	0.000480
216.6114	0.001176
216.8168	0.000332
217.0222	0.000100
217.2276	0.000079
217.4330	0.000353
217.6384	0.001366
217.8439	0.001492
218.0494	0.000880
218.2548	0.000775
218.4603	0.000880
218.6659	0.000058
218.8714	-0.000385
219.0769	0.000459
219.2825	0.000290
219.4881	-0.000026
219.6936	0.000227
219.8992	-0.000132
220.1049	0.000438
220.3105	0.000290
220.5161	0.000902
220.7218	0.001619
220.9275	0.000712
221.1332	0.001471
221.3389	0.001682
221.5446	-0.000111
221.7503	0.000185
221.9561	0.000733
222.1618	0.000121
222.3676	0.002336
222.5734	0.000670
222.7792	0.000248
222.9850	-0.000005
223.1909	0.002504
223.3967	0.000480
223.6026	0.000037
223.8085	0.000142
224.0144	0.000438
224.2203	0.000417
224.4262	0.000691
224.6322	0.001070
224.8381	0.000227
225.0441	0.000712
225.2501	0.000648
225.4561	0.001239
225.6621	0.001977
225.8681	0.000480
226.0742	0.000838
226.2802	0.001977
226.4863	0.002167
226.6924	0.000670
226.8985	0.001808
227.1046	0.000754
227.3107	0.000944
227.5169	0.000648
227.7230	0.001513
227.9292	0.000121
228.1354	0.001492
228.3416	-0.000533
228.5478	0.001302
228.7541	0.000248
228.9603	0.000585
229.1666	0.000227
229.3729	0.001640
229.5791	0.001323
229.7855	0.000037
229.9918	-0.000828
230.1981	0.000269
230.4045	-0.000216
230.6108	0.000838
230.8172	0.000564
231.0236	0.000775
231.2300	0.001049
231.4364	0.001091
231.6429	0.000142
231.8493	0.000100
232.0558	0.000817
232.2623	-0.000385
232.4688	0.000248
232.6753	0.001028
232.8818	0.000163
233.0884	0.001808
233.2949	-0.000153
233.5015	0.000775
233.7081	0.001640
233.9147	0.000311
234.1213	0.000332
234.3279	0.000733
234.5346	0.001197
234.7413	0.000838
234.9479	0.000185
235.1546	0.001112
235.3613	-0.000891
235.5680	-0.000554
235.7748	0.000058
235.9815	0.001619
236.1883	0.000206
236.3951	-0.000132
236.6018	-0.000174
236.8087	0.000353
237.0155	0.000374
237.2223	0.000606
237.4292	0.000585
237.6360	0.001471
237.8429	0.001197
238.0498	0.000817
238.2567	0.000796
238.4636	0.000163
238.6706	0.001197
238.8775	0.000543
239.0845	0.000543
239.2915	0.000417
239.4985	0.000480
239.7055	0.000606
239.9125	0.000796
240.1195	0.000269
240.3266	0.000859
240.5337	0.001703
240.7407	0.000438
240.9478	0.000817
241.1549	0.000775
241.3621	0.001344
241.5692	-0.000554
241.7764	0.001070
241.9835	-0.000912
242.1907	0.001935
242.3979	-0.000216
242.6051	0.000438
242.8124	0.001218
243.0196	0.001218
243.2269	0.000459
243.4341	0.000395
243.6414	0.001070
243.8487	0.000944
244.0560	0.000185
244.2634	0.001387
244.4707	0.000417
244.6781	0.000522
244.8854	0.000142
245.0928	0.000838
245.3002	-0.001650
245.5076	0.002104
245.7151	0.002146
245.9225	0.001323
246.1300	0.001155
246.3375	0.001787
246.5449	0.000438
246.7524	0.000269
246.9600	0.000754
247.1675	0.001492
247.3750	0.001197
247.5826	0.000880
247.7902	0.000206
247.9978	0.002083
248.2054	0.000817
248.4130	0.001112
248.6206	0.000775
248.8283	0.000564
249.0359	0.001829
249.2436	0.000079
249.4513	-0.000469
249.6590	0.001387
249.8667	-0.000322
250.0745	0.001450
250.2822	0.000775
250.4900	0.000817
250.6978	0.000058
250.9056	-0.001102
251.1134	-0.000153
251.3212	0.000691
251.5290	0.000712
251.7369	-0.000216
251.9447	0.000543
252.1526	0.000185
252.3605	0.000775
252.5684	-0.000448
252.7763	0.001218
252.9843	0.001745
253.1922	0.000058
253.4002	0.000838
253.6082	0.001576
253.8162	0.001956
254.0242	-0.000026
254.2322	0.001429
254.4402	0.001155
254.6483	0.001703
254.8564	0.000480
255.0644	0.000691
255.2725	0.000206
255.4806	0.000691
255.6888	-0.000364
255.8969	0.000965
256.1051	-0.000090
256.3132	0.001323
256.5214	-0.001081
256.7296	-0.000490
256.9378	0.000522
257.1460	0.001745
257.3543	0.000986
257.5625	-0.000047
257.7708	0.001260
257.9791	-0.000427
258.1874	0.000480
258.3957	0.000923
258.6040	0.000037
258.8124	-0.000090
259.0207	0.000501
259.2291	0.002441
259.4375	0.001829
259.6459	-0.000385
259.8543	-0.000828
260.0627	0.001829
260.2711	0.000206
260.4796	0.001344
260.6881	0.001366
260.8965	0.001260
261.1050	-0.000153
261.3135	0.000248
261.5221	0.000712
261.7306	0.000374
261.9392	0.000227
262.1477	0.001028
262.3563	0.000459
262.5649	0.001049
262.7735	0.000944
262.9822	0.000417
263.1908	0.000332
263.3995	0.000648
263.6081	0.000332
263.8168	-0.000216
264.0255	0.000627
264.2342	0.001070
264.4429	0.000670
264.6517	0.001450
264.8604	0.000501
265.0692	0.001598
265.2780	0.000163
265.4868	-0.000069
265.6956	0.000564
265.9044	-0.000026
266.1133	-0.000047
266.3221	0.000648
266.5310	0.001387
266.7399	0.001323
266.9488	0.000248
267.1577	0.000395
267.3666	0.001724
267.5755	0.000395
267.7845	0.001028
267.9935	0.001977
268.2024	0.000880
268.4114	0.000902
268.6205	0.000733
268.8295	0.000606
269.0385	-0.000385
269.2476	0.000775
269.4566	0.000311
269.6657	0.001935
269.8748	-0.000406
270.0839	0.000522
270.2931	0.001661
270.5022	0.001281
270.7114	0.000817
270.9205	0.000923
271.1297	0.000311
271.3389	0.000923
271.5481	0.001070
271.7573	-0.000596
271.9666	0.000227
272.1758	-0.000849
272.3851	0.000395
272.5944	0.000058
272.8037	0.000163
273.0130	0.001598
273.2223	0.000269
273.4316	0.000311
273.6410	0.000417
273.8504	0.000438
274.0597	0.000311
274.2691	0.000417
274.4785	0.000880
274.6880	0.000648
274.8974	0.001344
275.1069	0.001239
275.3163	-0.000638
275.5258	0.001239
275.7353	0.001260
275.9448	0.000733
276.1543	0.000859
276.3639	0.000691
276.5734	0.002399
276.7830	-0.000047
276.9926	0.000248
277.2022	0.000501
277.4118	0.001049
277.6214	-0.000385
277.8310	0.000501
278.0407	-0.000174
278.2503	-0.000279
278.4600	0.000311
278.6697	0.000965
278.8794	0.000100
279.0891	0.000395
279.2989	0.001429
279.5086	0.000838
279.7184	0.001598
279.9281	0.000459
280.1379	-0.000385
280.3477	0.000100
280.5576	0.000543
280.7674	0.000100
280.9772	-0.000575
281.1871	-0.001165
281.3970	0.001598
281.6069	0.001555
281.8168	-0.000427
282.0267	0.000353
282.2366	0.000585
282.4466	0.001028
282.6565	-0.000026
282.8665	0.001155
283.0765	0.001872
283.2865	0.000522
283.4965	0.001323
283.7065	0.001218
283.9166	0.001155
284.1266	-0.001018
284.3367	0.001323
284.5468	0.000459
284.7569	0.000100
284.9670	-0.000490
285.1771	0.001028
285.3873	-0.000828
285.5974	-0.000258
285.8076	0.000395
286.0178	0.000227
286.2280	0.000564
286.4382	0.000965
286.6484	-0.000891
286.8587	-0.000301
287.0689	0.000859
287.2792	-0.000005
287.4895	0.000290
287.6998	0.000353
287.9101	0.000712
288.1204	0.000817
288.3308	0.000522
288.5411	0.001619
288.7515	-0.000069
288.9619	0.000923
289.1723	-0.001039
289.3827	0.000227
289.5931	0.001028
289.8035	0.000838
290.0140	0.000248
290.2245	-0.000174
290.4349	0.001070
290.6454	0.000670
290.8559	0.000353
291.0665	0.001134
291.2770	0.000606
291.4875	0.000754
291.6981	0.000374
291.9087	0.000965
292.1193	-0.000026
292.3299	0.001598
292.5405	0.000944
292.7511	0.001555
292.9618	0.000543
293.1724	0.001091
293.3831	0.000986
293.5938	0.000522
293.8045	-0.000258
294.0152	0.000395
294.2260	0.001197
294.4367	0.001049
294.6475	0.001450
294.8582	0.000817
295.0690	-0.000301
295.2798	0.000817
295.4906	-0.000891
295.7015	0.000374
295.9123	-0.000448
296.1232	0.000902
296.3340	0.000670
296.5449	0.000248
296.7558	0.001555
296.9667	0.000585
297.1777	0.000269
297.3886	0.001661
297.5995	0.000206
297.8105	-0.000448
298.0215	0.001007
298.2325	0.001703
298.4435	-0.000743
298.6545	0.001091
298.8656	-0.000807
299.0766	0.001134
299.2877	0.000712
299.4988	0.000395
299.7099	-0.000511
299.9210	-0.000849
300.1321	0.000395
300.3432	0.000965
300.5544	0.000206
300.7655	0.001914
300.9767	0.000859
301.1879	0.001619
301.3991	-0.000069
301.6103	0.000880
301.8215	-0.000005
302.0328	0.002547
302.2441	0.002272
302.4553	0.000522
302.6666	0.001534
302.8779	0.000817
303.0892	0.001218
303.3006	0.001872
303.5119	0.000522
303.7233	0.000121
303.9346	-0.000596
304.1460	0.000986
304.3574	0.000227
304.5688	0.001007
304.7803	-0.000322
304.9917	0.001049
305.2031	0.001893
305.4146	0.003369
305.6261	0.000100
305.8376	-0.000279
306.0491	0.001070
306.2606	0.000079
306.4722	0.002800
306.6837	0.000564
306.8953	0.000564
307.1069	0.001471
307.3184	-0.000912
307.5301	0.001598
307.7417	0.001619
307.9533	0.001112
308.1650	-0.000258
308.3766	0.000501
308.5883	0.000606
308.8000	0.000627
309.0117	0.000543
309.2234	-0.000237
309.4351	0.000606
309.6469	0.000058
309.8586	0.000269
310.0704	0.002483
310.2822	0.000944
310.4940	0.000248
310.7058	0.001534
310.9176	0.001682
311.1295	-0.000026
311.3413	0.001091
311.5532	0.000037
311.7651	0.001851
311.9770	-0.000153
312.1889	-0.000511
312.4008	0.000880
312.6127	0.000691
312.8247	0.000775
313.0366	0.002209
313.2486	-0.000575
313.4606	-0.000406
313.6726	0.001197
313.8846	0.000227
314.0967	0.000185
314.3087	0.001619
314.5208	0.000923
314.7328	0.000648
314.9449	0.000923
315.1570	0.000923
315.3692	0.000438
315.5813	0.000185
315.7934	0.000965
316.0056	0.000796
316.2177	-0.000722
316.4299	0.000902
316.6421	0.000606
316.8543	0.001197
317.0666	0.001323
317.2788	0.001661
317.4911	0.000817
317.7033	0.000079
317.9156	0.000564
318.1279	0.001619
318.3402	0.000944
318.5525	0.000944
318.7649	-0.001102
318.9772	0.001640
319.1896	0.000564
319.4019	0.001091
319.6143	-0.000385
319.8267	0.001155
320.0392	-0.000216
320.2516	0.001872
320.4640	-0.000322
320.6765	0.001323
320.8890	-0.000701
321.1014	0.001155
321.3139	0.000648
321.5265	0.001745
321.7390	0.000775
321.9515	0.002188
322.1641	-0.000659
322.3766	0.000353
322.5892	0.000037
322.8018	0.001028
323.0144	0.000859
323.2270	0.001366
323.4397	0.000923
323.6523	0.000712
323.8650	0.000522
324.0777	0.000248
324.2904	-0.000343
324.5031	0.000796
324.7158	0.000775
324.9285	-0.000111
325.1412	-0.000195
325.3540	0.001197
325.5668	0.000142
325.7796	0.000944
325.9924	0.001302
326.2052	0.000163
326.4180	0.001366
326.6308	0.001112
326.8437	-0.000385
327.0566	0.001724
327.2694	-0.000047
327.4823	0.001218
327.6952	0.000142
327.9082	0.001471
328.1211	-0.000448
328.3340	0.000838
328.5470	0.000459
328.7600	0.001155
328.9730	-0.000511
329.1860	0.000206
329.3990	-0.000174
329.6120	0.000438
329.8251	0.001302
330.0381	0.000606
330.2512	0.001302
330.4643	0.000606
330.6774	-0.000216
330.8905	0.001408
331.1036	-0.000554
331.3167	0.001935
331.5299	-0.000701
331.7431	0.000332
331.9562	0.001366
332.1694	0.001872
332.3826	0.000206
332.5959	0.000353
332.8091	0.000163
333.0223	0.000543
333.2356	0.000459
333.4489	0.001007
333.6622	-0.000364
333.8755	-0.000216
334.0888	0.000163
334.3021	0.002104
334.5154	-0.000174
334.7288	0.001112
334.9422	-0.000617
335.1555	0.001872
335.3689	0.000332
335.5823	0.000817
335.7958	-0.000343
336.0092	0.000923
336.2227	-0.000343
336.4361	0.000121
336.6496	0.000902
336.8631	0.001134
337.0766	0.000606
337.2901	0.001682
337.5036	-0.000237
337.7172	0.001598
337.9307	-0.000174
338.1443	0.000880
338.3579	0.000923
338.5715	0.000733
338.7851	0.001197
338.9987	0.001281
339.2124	0.000374
339.4260	0.000754
339.6397	0.000712
339.8533	0.000522
340.0670	-0.000596
340.2807	0.001302
340.4945	0.000606
340.7082	0.000311
340.9219	0.000395
341.1357	0.001239
341.3495	0.000859
341.5633	0.000838
341.7771	0.000353
341.9909	0.001091
342.2047	-0.000786
342.4185	0.000185
342.6324	0.001028
342.8463	0.001555
343.0601	-0.000933
343.2740	0.000754
343.4879	0.001787
343.7019	0.001408
343.9158	0.000501
344.1297	0.001893
344.3437	0.001450
344.5577	-0.000364
344.7717	0.000374
344.9857	-0.000111
345.1997	0.001724
345.4137	0.000880
345.6277	0.000733
345.8418	0.000522
346.0559	0.000501
346.2699	0.000163
346.4840	0.000227
346.6981	0.000079
346.9123	-0.000047
347.1264	0.000712
347.3406	0.000501
347.5547	0.000543
347.7689	0.000248
347.9831	0.000944
348.1973	0.001724
348.4115	0.000543
348.6257	0.000353
348.8400	0.001344
349.0542	-0.000701
349.2685	0.002188
349.4828	0.000459
349.6971	0.000648
349.9114	0.000142
350.1257	0.000859
350.3400	0.000627
350.5544	0.000859
350.7687	0.000100
350.9831	0.000332
351.1975	-0.000258
351.4119	0.002483
351.6263	-0.001123
351.8407	0.001028
352.0552	0.000353
352.2696	0.000142
352.4841	-0.000659
352.6986	-0.000090
352.9131	0.001028
353.1276	0.001387
353.3421	0.001176
353.5566	0.001218
353.7712	0.001450
353.9858	0.000227
354.2003	0.000374
354.4149	0.000058
354.6295	0.000543
354.8441	0.000163
355.0588	0.001281
355.2734	0.000775
355.4881	-0.000216
355.7027	0.002104
355.9174	0.000016
356.1321	0.001787
356.3468	0.000775
356.5615	0.001239
356.7763	0.000986
356.9910	0.000395
357.2058	0.000353
357.4206	0.000838
357.6353	0.001260
357.8501	-0.000237
358.0650	0.000016
358.2798	-0.000111
358.4946	0.000648
358.7095	0.000923
358.9243	-0.000322
359.1392	0.000079
359.3541	-0.000047
359.5690	-0.000596
359.7839	0.001576
359.9989	0.001555
360.2138	0.001429
360.4288	0.000817
360.6438	0.000501
360.8587	0.001893
361.0737	-0.001397
361.2888	-0.000511
361.5038	-0.000469
361.7188	0.000838
361.9339	0.000733
362.1489	0.000796
362.3640	-0.000490
362.5791	0.001619
362.7942	0.001070
363.0093	0.001429
363.2245	0.001049
363.4396	0.001239
363.6548	-0.001123
363.8699	0.000775
364.0851	0.000543
364.3003	0.001914
364.5155	0.000142
364.7308	0.001808
364.9460	0.000944
365.1612	-0.000090
365.3765	0.001239
365.5918	0.001281
365.8071	-0.000975
366.0224	0.001408
366.2377	0.000079
366.4530	0.000163
366.6684	-0.000301
366.8837	0.001112
367.0991	-0.000743
367.3145	0.001366
367.5299	-0.000891
367.7453	0.001155
367.9607	-0.000047
368.1761	0.000016
368.3916	0.000438
368.6070	0.001851
368.8225	0.000923
369.0380	0.001724
369.2535	0.000374
369.4690	0.001534
369.6845	0.000775
369.9001	0.001640
370.1156	0.000438
370.3312	0.000880
370.5468	0.001302
370.7624	0.000522
370.9780	0.000965
371.1936	0.001492
371.4092	0.000353
371.6249	0.001703
371.8405	0.000395
372.0562	0.001239
372.2719	0.001977
372.4876	0.002104
372.7033	-0.000301
372.9190	0.001661
373.1348	-0.000575
373.3505	0.001197
373.5663	0.000185
373.7820	0.000206
373.9978	0.001049
374.2136	0.001007
374.4294	-0.001439
374.6453	0.000332
374.8611	0.001450
375.0770	0.001281
375.2928	0.000585
375.5087	0.000100
375.7246	0.001956
375.9405	0.000522
376.1564	0.000986
376.3724	0.001977
376.5883	-0.000132
376.8043	0.000606
377.0203	0.001344
377.2362	0.001513
377.4522	0.001555
377.6682	0.000733
377.8843	0.000459
378.1003	0.000859
378.3164	0.000332
378.5324	0.001956
378.7485	-0.000828
378.9646	-0.000153
379.1807	0.001555
379.3968	0.001872
379.6129	0.000311
379.8291	0.001998
380.0452	0.001049
380.2614	0.000121
380.4776	0.001134
380.6938	0.001787
380.9100	0.002209
381.1262	0.002188
381.3424	0.001218
381.5587	0.000353
381.7749	0.000564
381.9912	0.001598
382.2075	0.001555
382.4238	0.001197
382.6401	-0.000659
382.8564	0.001956
383.0728	0.000100
383.2891	0.001408
383.5055	-0.000069
383.7219	0.001218
383.9382	0.000417
384.1546	0.000627
384.3711	-0.000195
384.5875	0.000058
384.8039	0.001155
385.0204	0.001914
385.2368	0.000691
385.4533	0.000775
385.6698	0.000775
385.8863	0.000838
386.1028	0.002589
386.3194	0.000902
386.5359	0.000691
386.7525	0.001197
386.9690	0.001640
387.1856	0.001703
387.4022	0.001471
387.6188	0.000965
387.8355	0.000691
388.0521	0.002019
388.2687	0.001091
388.4854	0.003833
388.7021	0.001387
388.9188	0.000627
389.1355	0.001302
389.3522	0.001998
389.5689	0.002800
389.7856	0.002842
390.0024	0.002019
390.2192	0.001281
390.4359	0.001998
390.6527	0.004276
390.8695	0.002504
391.0863	0.003854
391.3032	0.003200
391.5200	0.003411
391.7369	0.002293
391.9537	0.003453
392.1706	0.003348
392.3875	0.005162
392.6044	0.004191
392.8213	0.005541
393.0383	0.005014
393.2552	0.005098
393.4722	0.005204
393.6891	0.004698
393.9061	0.004634
394.1231	0.005773
394.3401	0.004529
394.5572	0.006701
394.7742	0.006553
394.9912	0.006785
395.2083	0.005858
395.4254	0.007123
395.6425	0.006638
395.8596	0.006174
396.0767	0.006153
396.2938	0.008177
396.5109	0.007292
396.7281	0.006912
396.9453	0.007840
397.1624	0.007650
397.3796	0.007777
397.5968	0.009590
397.8140	0.008177
398.0313	0.008789
398.2485	0.009084
398.4658	0.010118
398.6830	0.009675
398.9003	0.011067
399.1176	0.009422
399.3349	0.010476
399.5522	0.011045
399.7696	0.012648
399.9869	0.010096
400.2043	0.011341
400.4216	0.010139
400.6390	0.010856
400.8564	0.011530
401.0738	0.010813
401.2912	0.011657
401.5087	0.010307
401.7261	0.011678
401.9436	0.012669
402.1610	0.011130
402.3785	0.013028
402.5960	0.012353
402.8135	0.012437
403.0310	0.013597
403.2486	0.011952
403.4661	0.011994
403.6837	0.013808
403.9013	0.013513
404.1189	0.013914
404.3365	0.014588
404.5541	0.013998
404.7717	0.014694
404.9893	0.015685
405.2070	0.015221
405.4246	0.014040
405.6423	0.015727
405.8600	0.016044
406.0777	0.014483
406.2954	0.016423
406.5131	0.016824
406.7309	0.015664
406.9486	0.015559
407.1664	0.014736
407.3842	0.013787
407.6020	0.016191
407.8198	0.015896
408.0376	0.015348
408.2554	0.017457
408.4733	0.014757
408.6911	0.016740
408.9090	0.017478
409.1269	0.016718
409.3448	0.017203
409.5627	0.017899
409.7806	0.018764
409.9985	0.016676
410.2165	0.015432
410.4344	0.017604
410.6524	0.017056
410.8704	0.017414
411.0884	0.017035
411.3064	0.017899
411.5244	0.017710
411.7424	0.017393
411.9605	0.018005
412.1785	0.018659
412.3966	0.019629
412.6147	0.019523
412.8328	0.019376
413.0509	0.020135
413.2690	0.019840
413.4871	0.019017
413.7053	0.018975
413.9234	0.019861
414.1416	0.017815
414.3598	0.018743
414.5780	0.019776
414.7962	0.019460
415.0144	0.017710
415.2326	0.017836
415.4509	0.020641
415.6692	0.020662
415.8874	0.017309
416.1057	0.020725
416.3240	0.020768
416.5423	0.020029
416.7606	0.019080
416.9790	0.019903
417.1973	0.018912
417.4157	0.021126
417.6341	0.019270
417.8524	0.019966
418.0708	0.019755
418.2893	0.020852
418.5077	0.020029
418.7261	0.021126
418.9446	0.022033
419.1630	0.022181
419.3815	0.021569
419.6000	0.020620
419.8185	0.023214
420.0370	0.020430
420.2555	0.021485
420.4741	0.021379
420.6926	0.023319
420.9112	0.022876
421.1298	0.023868
421.3483	0.023699
421.5669	0.024901
421.7856	0.026251
422.0042	0.026546
422.2228	0.024289
422.4415	0.023362
422.6601	0.024732
422.8788	0.024521
423.0975	0.024500
423.3162	0.024353
423.5349	0.026209
423.7536	0.023741
423.9724	0.023825
424.1911	0.024163
424.4099	0.022750
424.6287	0.021189
424.8475	0.024057
425.0663	0.024542
425.2851	0.023783
425.5039	0.023340
425.7228	0.023425
425.9416	0.023636
426.1605	0.021717
426.3793	0.019502
426.5982	0.019840
426.8171	0.020367
427.0361	0.022898
427.2550	0.023383
427.4739	0.024796
427.6929	0.024226
427.9118	0.022370
428.1308	0.020177
428.3498	0.022560
428.5688	0.020641
428.7878	0.023636
429.0068	0.021358
429.2259	0.022518
429.4449	0.023551
429.6640	0.025597
429.8831	0.026377
430.1022	0.026609
430.3213	0.026504
430.5404	0.027263
430.7595	0.026356
430.9787	0.026251
431.1978	0.024606
431.4170	0.024247
431.6362	0.025217
431.8553	0.022033
432.0745	0.020873
432.2938	0.019840
432.5130	0.021717
432.7322	0.021569
432.9515	0.021885
433.1707	0.023045
433.3900	0.023045
433.6093	0.024796
433.8286	0.023172
434.0479	0.027115
434.2673	0.022855
434.4866	0.024268
434.7059	0.023804
434.9253	0.021949
435.1447	0.021611
435.3641	0.023383
435.5835	0.026103
435.8029	0.022898
436.0223	0.022349
436.2418	0.023214
436.4612	0.021843
436.6807	0.025028
436.9001	0.022898
437.1196	0.024859
437.3391	0.023235
437.5586	0.022919
437.7782	0.021864
437.9977	0.022792
438.2173	0.023657
438.4368	0.023910
438.6564	0.024416
438.8760	0.024943
439.0956	0.022876
439.3152	0.024163
439.5348	0.022919
439.7545	0.023593
439.9741	0.023108
440.1938	0.022096
440.4135	0.021316
440.6331	0.024416
440.8528	0.024226
441.0725	0.022623
441.2923	0.025091
441.5120	0.027811
441.7318	0.027453
441.9515	0.028360
442.1713	0.025787
442.3911	0.025977
442.6109	0.025660
442.8307	0.024015
443.0505	0.024458
443.2703	0.026947
443.4902	0.026441
443.7101	0.028908
443.9299	0.026947
444.1498	0.026398
444.3697	0.024922
444.5896	0.026166
444.8095	0.025955
445.0295	0.024353
445.2494	0.024627
445.4694	0.024669
445.6894	0.025112
445.9093	0.024796
446.1293	0.024015
446.3493	0.026293
446.5694	0.024395
446.7894	0.023383
447.0094	0.024184
447.2295	0.024880
447.4496	0.023172
447.6696	0.021949
447.8897	0.021590
448.1098	0.023868
448.3300	0.021906
448.5501	0.022223
448.7702	0.023509
448.9904	0.022370
449.2106	0.021970
449.4307	0.022771
449.6509	0.020409
449.8711	0.020852
450.0914	0.020451
450.3116	0.022181
450.5318	0.019882
450.7521	0.021379
450.9724	0.022666
451.1926	0.020029
451.4129	0.017351
451.6332	0.020852
451.8535	0.021105
452.0739	0.022075
452.2942	0.020409
452.5146	0.020683
452.7349	0.019333
452.9553	0.019819
453.1757	0.018026
453.3961	0.019523
453.6165	0.018068
453.8369	0.017288
454.0574	0.018363
454.2778	0.017963
454.4983	0.017056
454.7188	0.017351
454.9393	0.017562
455.1597	0.016718
455.3803	0.017077
455.6008	0.019207
455.8213	0.018616
456.0419	0.018701
456.2624	0.016803
456.4830	0.017710
456.7036	0.017393
456.9242	0.017225
457.1448	0.015622
457.3654	0.016508
457.5860	0.015643
457.8067	0.016486
458.0274	0.015179
458.2480	0.016740
458.4687	0.017225
458.6894	0.017984
458.9101	0.017309
459.1308	0.017478
459.3516	0.017014
459.5723	0.016803
459.7931	0.016360
460.0138	0.016740
460.2346	0.015179
460.4554	0.014884
460.6762	0.017309
460.8970	0.017267
461.1178	0.016613
461.3387	0.017246
461.5595	0.014926
461.7804	0.015073
462.0013	0.014652
462.2222	0.013365
462.4431	0.012859
462.6640	0.014251
462.8849	0.014209
463.1059	0.014694
463.3268	0.014462
463.5478	0.014525
463.7687	0.014103
463.9897	0.012458
464.2107	0.015411
464.4317	0.014525
464.6528	0.014567
464.8738	0.014610
465.0948	0.015095
465.3159	0.013302
465.5370	0.014884
465.7581	0.012965
465.9792	0.013935
466.2003	0.012965
466.4214	0.014778
466.6425	0.012458
466.8637	0.012859
467.0848	0.010961
467.3060	0.012627
467.5272	0.009337
467.7484	0.011868
467.9696	0.010560
468.1908	0.011193
468.4120	0.011151
468.6333	0.010518
468.8545	0.010687
469.0758	0.010476
469.2970	0.009843
469.5183	0.008451
469.7396	0.009232
469.9610	0.009190
470.1823	0.009021
470.4036	0.008241
470.6250	0.008726
470.8463	0.008536
471.0677	0.008852
471.2891	0.007270
471.5105	0.009590
471.7319	0.007692
471.9533	0.008979
472.1748	0.006870
472.3962	0.009464
472.6177	0.008304
472.8391	0.008494
473.0606	0.009147
473.2821	0.007861
473.5036	0.009379
473.7251	0.008114
473.9467	0.008388
474.1682	0.009400
474.3898	0.008114
474.6113	0.007355
474.8329	0.008852
475.0545	0.006321
475.2761	0.009253
475.4977	0.006975
475.7193	0.007207
475.9410	0.007397
476.1626	0.009738
476.3843	0.007060
476.6060	0.007060
476.8277	0.006912
477.0494	0.009021
477.2711	0.005773
477.4928	0.007587
477.7145	0.007734
477.9363	0.007629
478.1580	0.007587
478.3798	0.007102
478.6016	0.006385
478.8234	0.006068
479.0452	0.005815
479.2670	0.007650
479.4888	0.006828
479.7107	0.006153
479.9325	0.006406
480.1544	0.007988
480.3763	0.006596
480.5982	0.007692
480.8201	0.005140
481.0420	0.006237
481.2639	0.006068
481.4859	0.006638
481.7078	0.005794
481.9298	0.007102
482.1517	0.007524
482.3737	0.006216
482.5957	0.006617
482.8177	0.006849
483.0398	0.006596
483.2618	0.005794
483.4838	0.006195
483.7059	0.005879
483.9280	0.005668
484.1501	0.007376
484.3721	0.005499
484.5943	0.005288
484.8164	0.007186
485.0385	0.006300
485.2606	0.007418
485.4828	0.008241
485.7050	0.012754
485.9271	0.015854
486.1493	0.016845
486.3715	0.017077
486.5937	0.013935
486.8160	0.011045
487.0382	0.009316
487.2605	0.007249
487.4827	0.006385
487.7050	0.006617
487.9273	0.005858
488.1496	0.004908
488.3719	0.004023
488.5942	0.005457
488.8165	0.005204
489.0389	0.003664
489.2612	0.003474
489.4836	0.006153
489.7060	0.004065
489.9284	0.006047
490.1508	0.005204
490.3732	0.005836
490.5956	0.002884
490.8180	0.004466
491.0405	0.004634
491.2630	0.005204
491.4854	0.002800
491.7079	0.004677
491.9304	0.004719
492.1529	0.003517
492.3755	0.005014
492.5980	0.004634
492.8205	0.002842
493.0431	0.004550
493.2657	0.004023
493.4882	0.003664
493.7108	0.003496
493.9334	0.005077
494.1561	0.002778
494.3787	0.002694
494.6013	0.003221
494.8240	0.004803
495.0466	0.003496
495.2693	0.002525
495.4920	0.003053
495.7147	0.003474
495.9374	0.002842
496.1601	0.005119
496.3829	0.004339
496.6056	0.002800
496.8284	0.004339
497.0511	0.003791
497.2739	0.003559
497.4967	0.002715
497.7195	0.003010
497.9423	0.002631
498.1652	0.002736
498.3880	0.002989
498.6109	0.003074
498.8337	0.003348
499.0566	0.003348
499.2795	0.003854
499.5024	0.002905
499.7253	0.003411
499.9482	0.004529
500.1712	0.004002
500.3941	0.003264
500.6171	0.002441
500.8400	0.003517
501.0630	0.003580
501.2860	0.003517
501.5090	0.003770
501.7320	0.001787
501.9551	0.003221
502.1781	0.003601
502.4012	0.003896
502.6242	0.003917
502.8473	0.003875
503.0704	0.002568
503.2935	0.005035
503.5166	0.003285
503.7397	0.001977
503.9628	0.004128
504.1860	0.003411
504.4092	0.002146
504.6323	0.004360
504.8555	0.003538
505.0787	0.002589
505.3019	0.003221
505.5251	0.004381
505.7483	0.004023
505.9716	0.004360
506.1948	0.002905
506.4181	0.003432
506.6414	0.003538
506.8647	0.002315
507.0880	0.002884
507.3113	0.002778
507.5346	0.002694
507.7579	0.003242
507.9813	0.002926
508.2046	0.003411
508.4280	0.002736
508.6514	0.002905
508.8748	0.003580
509.0982	0.002167
509.3216	0.002610
509.5450	0.003411
509.7685	0.003496
509.9919	0.003053
510.2154	0.003116
510.4388	0.003896
510.6623	0.003601
510.8858	0.002525
511.1093	0.002989
511.3329	0.002715
511.5564	0.002525
511.7799	0.002357
512.0035	0.001851
512.2270	0.003306
512.4506	0.001703
512.6742	0.002504
512.8978	0.003728
513.1214	0.002462
513.3451	0.003706
513.5687	0.003221
513.7923	0.001998
514.0160	0.003032
514.2397	0.001281
514.4634	0.002251
514.6871	0.002040
514.9108	0.002293
515.1345	0.001661
515.3582	0.003137
515.5819	0.003010
515.8057	0.002652
516.0295	0.003938
516.2532	0.001956
516.4770	0.002778
516.7008	0.003749
516.9246	0.003411
517.1485	0.002778
517.3723	0.004065
517.5961	0.002378
517.8200	0.003369
518.0439	0.003074
518.2677	0.002336
518.4916	0.002167
518.7155	0.002926
518.9395	0.003137
519.1634	0.002315
519.3873	0.003474
519.6113	0.002631
519.8352	0.002989
520.0592	0.003559
520.2832	0.003137
520.5072	0.002821
520.7312	0.003559
520.9552	0.003137
521.1792	0.002040
521.4033	0.003285
521.6273	0.001197
521.8514	0.003053
522.0755	0.002989
522.2996	0.003706
522.5237	0.003728
522.7478	0.002821
522.9719	0.004508
523.1960	0.004782
523.4202	0.002104
523.6443	0.003348
523.8685	0.002462
524.0927	0.003053
524.3169	0.002652
524.5411	0.003285
524.7653	0.004782
524.9895	0.004170
525.2138	0.002568
525.4380	0.004023
525.6623	0.003791
525.8865	0.003390
526.1108	0.004339
526.3351	0.003179
526.5594	0.003622
526.7837	0.004782
527.0081	0.004107
527.2324	0.003706
527.4568	0.003917
527.6811	0.005225
527.9055	0.003474
528.1299	0.004592
528.3543	0.004381
528.5787	0.004191
528.8031	0.003664
529.0276	0.005773
529.2520	0.004339
529.4765	0.004698
529.7009	0.004972
529.9254	0.004466
530.1499	0.004529
530.3744	0.005415
530.5989	0.003981
530.8234	0.005626
531.0480	0.004592
531.2725	0.003348
531.4971	0.004845
531.7217	0.005077
531.9462	0.004740
532.1708	0.005499
532.3954	0.002652
532.6200	0.005330
532.8447	0.006448
533.0693	0.006511
533.2940	0.004845
533.5186	0.008135
533.7433	0.006743
533.9680	0.006954
534.1927	0.007102
534.4174	0.005710
534.6421	0.007861
534.8668	0.005879
535.0916	0.006111
535.3163	0.006933
535.5411	0.007650
535.7659	0.006722
535.9907	0.007988
536.2155	0.007924
536.4403	0.007608
536.6651	0.007249
536.8899	0.006785
537.1148	0.006617
537.3396	0.005752
537.5645	0.007629
537.7894	0.007734
538.0143	0.007882
538.2392	0.007988
538.4641	0.008283
538.6890	0.008030
538.9139	0.009063
539.1389	0.008894
539.3638	0.010750
539.5888	0.009337
539.8138	0.007313
540.0388	0.009590
540.2638	0.007777
540.4888	0.009379
540.7138	0.009506
540.9389	0.010603
541.1639	0.010244
541.3890	0.009506
541.6140	0.011151
541.8391	0.010708
542.0642	0.010223
542.2893	0.010581
542.5144	0.010497
542.7396	0.010118
542.9647	0.009949
543.1899	0.010961
543.4150	0.011868
543.6402	0.011256
543.8654	0.011805
544.0906	0.012922
544.3158	0.012922
544.5410	0.011088
544.7662	0.011615
544.9915	0.013703
545.2167	0.013091
545.4420	0.014209
545.6673	0.013745
545.8926	0.011467
546.1179	0.012395
546.3432	0.014103
546.5685	0.014378
546.7938	0.013956
547.0192	0.013175
547.2445	0.011952
547.4699	0.014546
547.6953	0.016592
547.9206	0.016170
548.1460	0.017351
548.3715	0.018553
548.5969	0.016993
548.8223	0.017562
549.0478	0.015516
549.2732	0.016803
549.4987	0.016718
549.7242	0.017963
549.9496	0.016465
550.1751	0.016929
550.4007	0.015179
550.6262	0.016993
550.8517	0.018152
551.0773	0.015875
551.3028	0.014019
551.5284	0.016529
551.7540	0.017372
551.9796	0.017984
552.2052	0.019987
552.4308	0.017499
552.6564	0.018427
552.8820	0.018912
553.1077	0.018996
553.3333	0.022370
553.5590	0.019776
553.7847	0.019713
554.0104	0.020430
554.2361	0.021105
554.4618	0.019565
554.6875	0.019228
554.9132	0.018490
555.1390	0.021780
555.3648	0.020936
555.5905	0.022370
555.8163	0.022813
556.0421	0.022581
556.2679	0.022286
556.4937	0.022518
556.7195	0.022476
556.9454	0.021105
557.1712	0.020346
557.3971	0.021232
557.6230	0.021695
557.8488	0.022855
558.0747	0.023847
558.3006	0.024057
558.5266	0.022159
558.7525	0.022623
558.9784	0.019987
559.2044	0.023572
559.4303	0.023847
559.6563	0.022708
559.8823	0.021506
560.1083	0.027474
560.3343	0.027094
560.5603	0.026799
560.7863	0.027706
561.0124	0.030068
561.2384	0.028971
561.4645	0.031628
561.6905	0.029920
561.9166	0.030258
562.1427	0.029962
562.3688	0.028444
562.5949	0.028128
562.8211	0.028592
563.0472	0.030047
563.2733	0.030173
563.4995	0.031143
563.7257	0.032472
563.9519	0.030827
564.1781	0.032324
564.4043	0.033758
564.6305	0.035530
564.8567	0.032451
565.0829	0.032683
565.3092	0.034918
565.5355	0.035656
565.7617	0.035825
565.9880	0.034771
566.2143	0.035741
566.4406	0.037470
566.6669	0.038208
566.8932	0.038250
567.1196	0.041604
567.3459	0.043881
567.5723	0.046433
567.7987	0.049069
568.0250	0.046581
568.2514	0.048331
568.4778	0.053540
568.7043	0.059297
568.9307	0.058412
569.1571	0.060816
569.3836	0.064760
569.6100	0.072963
569.8365	0.082137
570.0630	0.087451
570.2895	0.089919
570.5160	0.088211
570.7425	0.089434
570.9690	0.094326
571.1956	0.101560
571.4221	0.106811
571.6487	0.109005
571.8752	0.111324
572.1018	0.116744
572.3284	0.118959
572.5550	0.110818
572.7816	0.101708
573.0082	0.100780
573.2349	0.104365
573.4615	0.117799
573.6882	0.128491
573.9149	0.131190
574.1415	0.133890
574.3682	0.143612
574.5949	0.148230
574.8216	0.145172
575.0484	0.147324
575.2751	0.151204
575.5018	0.145742
575.7286	0.139394
575.9554	0.133299
576.1821	0.133552
576.4089	0.138382
576.6357	0.148083
576.8626	0.150845
577.0894	0.160863
577.3162	0.159133
577.5431	0.167506
577.7699	0.186929
577.9968	0.214471
578.2237	0.205762
578.4505	0.192602
578.6774	0.181087
578.9044	0.167864
579.1313	0.162212
579.3582	0.161116
579.5851	0.172040
579.8121	0.172631
580.0391	0.176933
580.2660	0.176954
580.4930	0.174065
580.7200	0.169910
580.9470	0.172272
581.1741	0.206183
581.4011	0.251420
581.6281	0.275398
581.8552	0.277760
582.0822	0.275082
582.3093	0.262154
582.5364	0.239631
582.7635	0.220440
582.9906	0.202661
583.2177	0.189502
583.4449	0.176258
583.6720	0.161854
583.8991	0.156308
584.1263	0.157003
584.3535	0.167590
584.5807	0.164532
584.8079	0.173980
585.0351	0.191801
585.2623	0.197706
585.4895	0.205424
585.7167	0.201523
585.9440	0.195112
586.1713	0.184187
586.3985	0.176806
586.6258	0.169024
586.8531	0.172820
587.0804	0.181235
587.3077	0.190303
587.5350	0.193045
587.7624	0.190662
587.9897	0.183196
588.2171	0.177017
588.4445	0.170943
588.6718	0.167190
588.8992	0.162782
589.1266	0.151794
589.3540	0.143464
589.5815	0.137074
589.8089	0.137137
590.0363	0.138888
590.2638	0.132076
590.4913	0.128343
590.7187	0.122017
590.9462	0.114424
591.1737	0.111367
591.4012	0.107950
591.6288	0.112906
591.8563	0.113813
592.0838	0.111599
592.3114	0.112969
592.5389	0.127922
592.7665	0.156265
592.9941	0.165861
593.2217	0.173917
593.4493	0.173495
593.6769	0.170416
593.9046	0.165523
594.1322	0.153418
594.3598	0.147471
594.5875	0.145868
594.8152	0.154388
595.0429	0.164385
595.2705	0.164659
595.4983	0.165777
595.7260	0.154958
595.9537	0.146944
596.1814	0.138508
596.4092	0.127268
596.6369	0.125159
596.8647	0.119170
597.0925	0.124505
597.3203	0.124695
597.5481	0.126509
597.7759	0.124294
598.0037	0.122839
598.2315	0.116955
598.4594	0.119570
598.6872	0.133594
598.9151	0.151162
599.1430	0.162634
599.3709	0.157130
599.5988	0.149664
599.8267	0.149369
600.0546	0.155844
600.2825	0.158754
600.5105	0.154852
600.7384	0.157763
600.9664	0.161727
601.1944	0.162655
601.4223	0.153207
601.6503	0.149200
601.8783	0.144455
602.1064	0.142452
602.3344	0.137791
602.5624	0.144223
602.7905	0.143844
603.0185	0.147556
603.2466	0.153397
603.4747	0.161875
603.7028	0.158016
603.9309	0.156645
604.1590	0.153186
604.3871	0.141397
604.6152	0.139225
604.8434	0.133215
605.0715	0.128913
605.2997	0.131190
605.5279	0.135176
605.7561	0.144561
605.9843	0.150487
606.2125	0.143823
606.4407	0.138825
606.6689	0.134312
606.8972	0.132624
607.1254	0.132456
607.3537	0.136210
607.5819	0.138403
607.8102	0.136526
608.0385	0.128407
608.2668	0.126572
608.4951	0.123092
608.7235	0.124379
608.9518	0.120646
609.1801	0.113581
609.4085	0.117040
609.6369	0.113054
609.8653	0.119591
610.0936	0.125454
610.3220	0.131464
610.5505	0.126298
610.7789	0.119655
611.0073	0.119233
611.2357	0.115964
611.4642	0.116238
611.6927	0.118495
611.9211	0.120498
612.1496	0.114108
612.3781	0.112189
612.6066	0.108288
612.8351	0.108393
613.0637	0.110418
613.2922	0.107718
613.5208	0.108182
613.7493	0.109068
613.9779	0.106790
614.2065	0.110903
614.4351	0.107149
614.6637	0.106305
614.8923	0.105651
615.1209	0.107085
615.3495	0.107570
615.5782	0.113222
615.8068	0.112632
616.0355	0.107950
616.2642	0.103374
616.4929	0.094938
616.7216	0.096288
616.9503	0.093441
617.1790	0.093778
617.4077	0.095191
617.6365	0.093989
617.8652	0.092935
618.0940	0.094980
618.3227	0.092745
618.5515	0.088042
618.7803	0.082137
619.0091	0.078467
619.2379	0.077497
619.4667	0.078130
619.6956	0.077793
619.9244	0.080133
620.1533	0.082453
620.3821	0.085153
620.6110	0.081863
620.8399	0.076148
621.0688	0.068703
621.2977	0.061680
621.5266	0.063832
621.7556	0.066552
621.9845	0.069125
622.2135	0.071867
622.4424	0.071972
622.6714	0.074081
622.9004	0.075009
623.1294	0.074418
623.3584	0.079416
623.5874	0.075325
623.8164	0.072478
624.0454	0.074165
624.2745	0.073912
624.5035	0.078763
624.7326	0.077540
624.9617	0.078826
625.1908	0.074186
625.4199	0.070728
625.6490	0.069230
625.8781	0.068471
626.1072	0.068134
626.3364	0.065730
626.5655	0.061934
626.7947	0.061195
627.0238	0.062608
627.2530	0.061111
627.4822	0.057547
627.7114	0.061343
627.9406	0.058306
628.1698	0.054004
628.3991	0.052085
628.6283	0.049301
628.8576	0.051030
629.0868	0.049892
629.3161	0.053983
629.5454	0.055122
629.7747	0.056218
630.0040	0.054700
630.2333	0.054384
630.4626	0.051621
630.6920	0.053477
630.9213	0.048120
631.1507	0.046981
631.3801	0.045843
631.6094	0.044219
631.8388	0.045505
632.0682	0.044957
632.2976	0.045104
632.5271	0.043565
632.7565	0.041393
632.9859	0.037639
633.2154	0.037217
633.4448	0.037154
633.6743	0.038145
633.9038	0.038504
634.1333	0.037913
634.3628	0.038061
634.5923	0.035783
634.8218	0.035825
635.0514	0.035066
635.2809	0.033590
635.5105	0.037091
635.7400	0.036669
635.9696	0.037829
636.1992	0.039136
636.4288	0.039727
636.6584	0.040676
636.8880	0.039642
637.1177	0.039094
637.3473	0.034876
637.5770	0.037301
637.8066	0.035952
638.0363	0.035572
638.2660	0.038250
638.4957	0.037829
638.7254	0.035973
638.9551	0.036922
639.1848	0.034560
639.4145	0.032999
639.6443	0.032905
639.8740	0.032214
640.1038	0.032822
640.3336	0.029666
640.5633	0.032839
640.7931	0.031645
641.0229	0.031055
641.2528	0.030644
641.4826	0.030467
641.7124	0.030605
641.9423	0.028035
642.1721	0.024765
642.4020	0.027519
642.6319	0.028074
642.8617	0.027086
643.0916	0.027756
643.3216	0.026657
643.5515	0.026881
643.7814	0.025638
644.0113	0.025129
644.2413	0.023884
644.4712	0.022906
644.7012	0.023319
644.9312	0.023257
645.1612	0.022067
645.3912	0.022883
645.6212	0.023467
645.8512	0.022825
646.0812	0.020946
646.3113	0.022954
646.5413	0.021529
646.7714	0.022929
647.0015	0.019720
647.2316	0.020521
647.4616	0.021193
647.6918	0.021832
647.9219	0.022565
648.1520	0.025683
648.3821	0.029206
648.6123	0.029400
648.8424	0.029867
649.0726	0.029985
649.3028	0.029884
649.5329	0.028580
649.7631	0.028777
649.9933	0.027695
650.2236	0.027133
650.4538	0.025724
650.6840	0.023686
650.9143	0.024746
651.1445	0.024784
651.3748	0.025565
651.6051	0.024310
651.8354	0.026346
652.0657	0.026967
652.2960	0.028612
652.5263	0.028824
652.7566	0.026480
652.9870	0.029035
653.2173	0.028628
653.4477	0.027866
653.6780	0.027864
653.9084	0.029793
654.1388	0.029655
654.3692	0.028959
654.5996	0.031760
654.8300	0.034243
655.0605	0.050656
655.2909	0.131833
655.5213	0.406136
655.7518	0.807261
655.9823	1.000000
656.2128	1.000000
656.4433	1.000000
656.6738	1.000000
656.9043	0.928878
657.1348	0.740573
657.3653	0.604272
657.5959	0.524483
657.8264	0.450040
658.0570	0.407162
658.2875	0.368545
658.5181	0.341656
658.7487	0.322309
658.9793	0.300718
659.2099	0.252360
659.4406	0.172910
659.6712	0.107067
659.9018	0.063173
660.1325	0.041293
660.3632	0.028894
660.5938	0.023711
660.8245	0.021502
661.0552	0.021733
661.2859	0.020581
661.5166	0.020131
661.7474	0.019738
661.9781	0.021167
662.2088	0.018918
662.4396	0.020403
662.6704	0.020465
662.9011	0.020215
663.1319	0.017955
663.3627	0.018958
663.5935	0.018547
663.8243	0.018837
664.0552	0.020262
664.2860	0.019575
664.5168	0.019529
664.7477	0.019897
664.9786	0.019015
665.2094	0.022727
665.4403	0.021183
665.6712	0.020295
665.9021	0.020080
666.1330	0.020428
666.3640	0.021044
666.5949	0.019963
666.8259	0.018400
667.0568	0.016928
667.2878	0.019218
667.5188	0.019336
667.7497	0.019145
667.9807	0.019509
668.2117	0.020224
668.4428	0.018258
668.6738	0.018469
668.9048	0.018363
669.1359	0.017899
669.3669	0.018174
669.5980	0.017984
669.8291	0.018195
670.0602	0.018870
670.2913	0.018068
670.5224	0.019439
670.7535	0.019270
670.9846	0.018553
671.2157	0.020831
671.4469	0.022307
671.6781	0.024859
671.9092	0.026082
672.1404	0.027200
672.3716	0.029456
672.6028	0.029920
672.8340	0.028950
673.0652	0.028107
673.2964	0.028465
673.5277	0.026419
673.7589	0.026904
673.9902	0.026314
674.2214	0.023636
674.4527	0.024036
674.6840	0.024226
674.9153	0.023720
675.1466	0.024184
675.3779	0.024374
675.6093	0.023362
675.8406	0.021949
676.0719	0.022750
676.3033	0.021738
676.5347	0.020873
676.7661	0.021843
676.9974	0.019945
677.2288	0.021548
677.4602	0.022159
677.6917	0.022328
677.9231	0.025576
678.1545	0.022539
678.3860	0.024648
678.6174	0.025955
678.8489	0.026061
679.0804	0.027073
679.3119	0.028296
679.5434	0.028718
679.7749	0.031333
680.0064	0.031692
680.2379	0.029752
680.4694	0.031270
680.7010	0.031228
680.9325	0.027727
681.1641	0.029941
681.3957	0.030068
681.6273	0.030068
681.8589	0.030047
682.0905	0.029161
682.3221	0.029604
682.5537	0.028592
682.7854	0.025281
683.0170	0.023045
683.2487	0.027622
683.4803	0.026778
683.7120	0.027073
683.9437	0.029288
684.1754	0.026567
684.4071	0.031544
684.6388	0.032852
684.8705	0.034602
685.1023	0.036247
685.3340	0.036901
685.5658	0.038377
685.7975	0.041013
686.0293	0.039579
686.2611	0.039811
686.4929	0.037027
686.7247	0.036943
686.9565	0.037280
687.1883	0.037744
687.4202	0.037175
687.6520	0.040233
687.8838	0.035678
688.1157	0.034138
688.3476	0.033316
688.5795	0.032472
688.8114	0.033695
689.0433	0.030279
689.2752	0.031270
689.5071	0.033801
689.7390	0.032092
689.9710	0.031143
690.2029	0.029182
690.4349	0.027959
690.6669	0.029077
690.8988	0.030047
691.1308	0.032683
691.3628	0.031586
691.5948	0.034412
691.8269	0.031059
692.0589	0.029604
692.2909	0.031671
692.5230	0.033716
692.7550	0.032704
692.9871	0.032177
693.2192	0.035087
693.4513	0.035678
693.6834	0.032831
693.9155	0.034961
694.1476	0.029203
694.3797	0.031270
694.6119	0.028043
694.8440	0.031291
695.0762	0.028950
695.3083	0.031481
695.5405	0.028613
695.7727	0.027537
696.0049	0.024880
696.2371	0.025934
696.4693	0.028571
696.7016	0.029140
696.9338	0.036036
697.1660	0.034918
697.3983	0.032493
697.6306	0.035171
697.8628	0.034138
698.0951	0.033526
698.3274	0.031628
698.5597	0.031460
698.7920	0.033084
699.0243	0.033147
699.2567	0.030764
699.4890	0.030616
699.7214	0.028486
699.9537	0.028339
700.1861	0.027495
700.4185	0.027685
700.6509	0.029836
700.8833	0.026778
701.1157	0.025723
701.3481	0.025829
701.5806	0.023572
701.8130	0.026314
702.0454	0.025386
702.2779	0.025766
702.5104	0.025702
702.7429	0.026272
702.9753	0.025998
703.2078	0.026947
703.4403	0.026272
703.6729	0.026061
703.9054	0.023298
704.1379	0.025934
704.3705	0.025829
704.6030	0.021527
704.8356	0.021379
705.0682	0.021232
705.3008	0.019861
705.5334	0.020219
705.7660	0.022159
705.9986	0.019987
706.2312	0.025766
706.4638	0.026630
706.6965	0.027200
706.9291	0.030954
707.1618	0.032177
707.3945	0.034222
707.6272	0.032641
707.8599	0.032746
708.0926	0.034475
708.3253	0.033210
708.5580	0.033294
708.7907	0.033147
709.0235	0.030658
709.2562	0.028697
709.4890	0.029583
709.7217	0.028613
709.9545	0.030005
710.1873	0.029836
710.4201	0.030215
710.6529	0.029330
710.8857	0.029520
711.1186	0.027917
711.3514	0.026820
711.5842	0.027179
711.8171	0.025260
712.0500	0.024353
712.2828	0.024100
712.5157	0.024163
712.7486	0.025217
712.9815	0.023509
713.2144	0.025344
713.4474	0.028107
713.6803	0.029330
713.9132	0.028170
714.1462	0.029245
714.3791	0.028908
714.6121	0.031312
714.8451	0.027305
715.0781	0.030574
715.3111	0.032156
715.5441	0.028085
715.7771	0.028549
716.0102	0.026272
716.2432	0.026968
716.4762	0.026419
716.7093	0.025766
716.9424	0.025154
717.1754	0.023720
717.4085	0.024564
717.6416	0.024817
717.8747	0.026145
718.1078	0.024606
718.3410	0.024943
718.5741	0.025829
718.8072	0.024142
719.0404	0.024500
719.2736	0.026715
719.5067	0.025871
719.7399	0.025513
719.9731	0.024057
720.2063	0.023193
720.4395	0.023931
720.6727	0.025766
720.9060	0.025892
721.1392	0.025850
721.3725	0.026314
721.6057	0.025238
721.8390	0.026883
722.0723	0.024205
722.3055	0.024838
722.5388	0.025660
722.7721	0.022286
723.0055	0.023994
723.2388	0.021801
723.4721	0.024796
723.7055	0.024732
723.9388	0.024732
724.1722	0.023931
724.4056	0.024669
724.6389	0.023783
724.8723	0.023256
725.1057	0.026799
725.3391	0.027136
725.5726	0.027811
725.8060	0.027643
726.0394	0.028992
726.2729	0.028001
726.5063	0.028528
726.7398	0.028718
726.9733	0.026525
727.2068	0.028718
727.4403	0.026567
727.6738	0.029541
727.9073	0.028571
728.1408	0.028929
728.3743	0.027158
728.6079	0.029414
728.8414	0.026926
729.0750	0.029752
729.3086	0.030300
729.5421	0.032198
729.7757	0.032704
730.0093	0.030173
730.2429	0.032915
730.4766	0.034244
730.7102	0.034117
730.9438	0.036837
731.1775	0.037660
731.4111	0.038567
731.6448	0.037428
731.8785	0.038651
732.1122	0.036352
732.3458	0.036078
732.5795	0.034644
732.8133	0.036542
733.0470	0.037280
733.2807	0.037829
733.5145	0.037491
733.7482	0.041097
733.9820	0.037808
734.2157	0.042742
734.4495	0.043333
734.6833	0.044830
734.9171	0.042869
735.1509	0.041182
735.3847	0.042342
735.6185	0.041941
735.8524	0.042953
736.0862	0.043059
736.3201	0.042300
736.5539	0.041055
736.7878	0.041456
737.0217	0.042363
737.2556	0.043860
737.4895	0.041182
737.7234	0.038693
737.9573	0.035741
738.1912	0.035530
738.4252	0.034876
738.6591	0.036479
738.8931	0.036078
739.1271	0.037997
739.3610	0.041013
739.5950	0.041772
739.8290	0.041625
740.0630	0.037871
740.2970	0.038651
740.5310	0.034623
740.7651	0.032831
740.9991	0.031839
741.2332	0.032620
741.4672	0.028339
741.7013	0.027347
741.9354	0.028528
742.1695	0.030258
742.4036	0.029393
742.6377	0.030490
742.8718	0.031354
743.1059	0.030005
743.3400	0.027790
743.5742	0.026694
743.8083	0.027748
744.0425	0.024922
744.2767	0.025407
744.5108	0.026462
744.7450	0.027495
744.9792	0.025513
745.2134	0.025829
745.4477	0.025829
745.6819	0.024690
745.9161	0.024100
746.1504	0.025154
746.3846	0.025260
746.6189	0.023172
746.8532	0.024732
747.0874	0.024796
747.3217	0.027769
747.5560	0.028022
747.7903	0.026504
748.0247	0.027453
748.2590	0.023910
748.4933	0.024627
748.7277	0.027411
748.9620	0.027284
749.1964	0.027432
749.4308	0.027495
749.6652	0.030722
749.8995	0.031945
750.1339	0.031797
750.3684	0.034096
750.6028	0.035108
750.8372	0.034644
751.0717	0.034497
751.3061	0.034897
751.5406	0.034054
751.7750	0.033801
752.0095	0.033526
752.2440	0.033822
752.4785	0.032852
752.7130	0.031987
752.9475	0.031418
753.1820	0.030363
753.4166	0.033316
753.6511	0.032472
753.8856	0.038208
754.1202	0.037681
754.3548	0.035804
754.5894	0.033969
754.8239	0.033758
755.0585	0.033990
755.2931	0.036837
755.5278	0.036859
755.7624	0.038904
755.9970	0.037217
756.2317	0.041013
756.4663	0.040887
756.7010	0.041646
756.9356	0.042447
757.1703	0.046306
757.4050	0.048584
757.6397	0.052001
757.8744	0.050609
758.1091	0.047171
758.3438	0.048078
758.5786	0.048247
758.8133	0.044936
759.0481	0.046686
759.2828	0.049449
759.5176	0.051052
759.7524	0.053076
759.9872	0.053287
760.2220	0.053160
760.4568	0.055459
760.6916	0.054637
760.9264	0.054742
761.1613	0.054426
761.3961	0.050398
761.6310	0.047572
761.8658	0.046454
762.1007	0.044071
762.3356	0.043544
762.5705	0.040844
762.8054	0.040950
763.0403	0.040992
763.2752	0.041498
763.5101	0.043059
763.7450	0.041583
763.9800	0.043628
764.2149	0.044640
764.4499	0.049027
764.6849	0.048964
764.9198	0.048584
765.1548	0.052254
765.3898	0.049470
765.6248	0.047192
765.8599	0.045864
766.0949	0.042236
766.3299	0.040739
766.5650	0.035825
766.8000	0.035762
767.0351	0.033885
767.2701	0.034855
767.5052	0.030068
767.7403	0.035361
767.9754	0.036901
768.2105	0.039347
768.4456	0.038904
768.6808	0.041013
768.9159	0.043122
769.1510	0.040338
769.3862	0.039811
769.6214	0.040739
769.8565	0.036247
770.0917	0.038799
770.3269	0.037344
770.5621	0.041182
770.7973	0.039537
771.0325	0.042257
771.2677	0.040634
771.5030	0.040127
771.7382	0.039157
771.9735	0.037069
772.2087	0.033990
772.4440	0.034454
772.6793	0.035024
772.9146	0.034939
773.1499	0.034286
773.3852	0.036479
773.6205	0.031312
773.8558	0.032345
774.0911	0.030933
774.3265	0.027643
774.5618	0.029034
774.7972	0.026061
775.0326	0.027432
775.2679	0.028339
775.5033	0.024690
775.7387	0.024289
775.9741	0.023488
776.2095	0.022623
776.4450	0.023256
776.6804	0.024585
776.9158	0.020746
777.1513	0.021864
777.3868	0.022391
777.6222	0.022476
777.8577	0.020578
778.0932	0.022750
778.3287	0.023172
778.5642	0.023847
778.7997	0.024669
779.0352	0.025597
779.2707	0.027706
779.5063	0.028212
779.7418	0.027811
779.9774	0.026757
780.2130	0.026609
780.4485	0.024521
780.6841	0.024458
780.9197	0.028085
781.1553	0.029625
781.3909	0.031143
781.6265	0.029456
781.8622	0.029920
782.0978	0.030532
782.3335	0.028992
782.5691	0.029836
782.8048	0.029119
783.0405	0.028971
783.2761	0.029604
783.5118	0.028571
783.7475	0.029583
783.9832	0.030047
784.2190	0.030321
784.4547	0.027390
784.6904	0.024163
784.9262	0.025133
785.1619	0.025934
785.3977	0.025723
785.6335	0.025344
785.8692	0.025576
786.1050	0.025829
786.3408	0.024585
786.5766	0.025196
786.8124	0.024311
787.0483	0.025175
787.2841	0.023551
787.5199	0.024732
787.7558	0.026736
787.9917	0.026356
788.2275	0.026926
788.4634	0.026989
788.6993	0.026272
788.9352	0.027136
789.1711	0.027305
789.4070	0.026883
789.6429	0.023383
789.8789	0.025660
790.1148	0.025829
790.3507	0.023362
790.5867	0.022244
790.8227	0.021463
791.0586	0.020620
791.2946	0.021274
791.5306	0.022117
791.7666	0.019734
792.0026	0.019565
792.2387	0.020072
792.4747	0.018701
792.7107	0.019207
792.9468	0.019565
793.1828	0.017182
793.4189	0.017878
793.6550	0.020430
793.8910	0.021949
794.1271	0.025238
794.3632	0.029330
794.5993	0.025618
794.8355	0.027368
795.0716	0.027390
795.3077	0.026546
795.5439	0.027390
795.7800	0.024564
796.0162	0.024669
796.2523	0.022075
796.4885	0.023172
796.7247	0.018638
796.9609	0.019882
797.1971	0.018553
797.4333	0.019418
797.6695	0.019966
797.9058	0.020008
798.1420	0.020746
798.3783	0.017921
798.6145	0.020367
798.8508	0.020620
799.0871	0.019713
799.3233	0.020662
799.5596	0.018659
799.7959	0.020093
800.0322	0.017541
800.2686	0.019608
800.5049	0.016444
800.7412	0.018912
800.9776	0.015938
801.2139	0.018237
801.4503	0.015875
801.6867	0.016993
801.9230	0.015200
802.1594	0.014146
802.3958	0.014905
802.6322	0.013576
802.8686	0.014588
803.1051	0.014061
803.3415	0.014546
803.5779	0.014504
803.8144	0.015327
804.0508	0.016887
804.2873	0.014314
804.5238	0.016001
804.7603	0.013576
804.9968	0.015116
805.2333	0.014631
805.4698	0.014146
805.7063	0.017225
805.9428	0.015179
806.1794	0.018131
806.4159	0.020430
806.6525	0.021105
806.8890	0.019755
807.1256	0.021738
807.3622	0.019312
807.5988	0.020409
807.8354	0.020198
808.0720	0.018258
808.3086	0.019439
808.5452	0.019165
808.7818	0.020177
809.0185	0.020304
809.2551	0.020704
809.4918	0.018152
809.7284	0.017541
809.9651	0.017752
810.2018	0.018321
810.4385	0.018321
810.6752	0.017520
810.9119	0.016740
811.1486	0.016782
811.3853	0.017309
811.6221	0.015980
811.8588	0.015263
812.0956	0.014736
812.3323	0.012374
812.5691	0.012395
812.8059	0.014356
813.0427	0.011889
813.2795	0.012690
813.5163	0.014820
813.7531	0.013386
813.9899	0.015959
814.2267	0.017203
814.4636	0.017836
814.7004	0.016001
814.9373	0.015875
815.1742	0.015010
815.4110	0.014884
815.6479	0.013133
815.8848	0.011341
816.1217	0.011994
816.3586	0.011847
816.5955	0.013133
816.8324	0.013808
817.0694	0.013260
817.3063	0.013513
817.5433	0.013028
817.7802	0.012965
818.0172	0.012121
818.2542	0.012437
818.4912	0.013977
818.7282	0.010539
818.9652	0.012838
819.2022	0.012163
819.4392	0.011404
819.6762	0.011299
819.9133	0.009822
820.1503	0.011130
820.3874	0.012943
820.6244	0.012290
820.8615	0.013639
821.0986	0.013914
821.3357	0.012901
821.5727	0.011699
821.8099	0.012965
822.0470	0.012100
822.2841	0.013323
822.5212	0.010539
822.7584	0.012121
822.9955	0.011299
823.2327	0.011404
823.4698	0.010771
823.7070	0.010539
823.9442	0.010750
824.1814	0.009190
824.4186	0.008747
824.6558	0.011277
824.8930	0.010539
825.1302	0.010349
825.3675	0.011509
825.6047	0.010328
825.8419	0.012416
826.0792	0.012543
826.3165	0.008367
826.5537	0.011172
826.7910	0.011573
827.0283	0.010708
827.2656	0.011509
827.5029	0.011594
827.7402	0.012965
827.9776	0.012269
828.2149	0.011299
828.4522	0.010729
828.6896	0.009886
828.9270	0.012374
829.1643	0.012437
829.4017	0.011952
829.6391	0.010940
829.8765	0.011003
830.1139	0.009780
830.3513	0.009696
830.5887	0.008473
830.8261	0.008937
831.0636	0.008536
831.3010	0.009464
831.5385	0.006743
831.7759	0.007777
832.0134	0.006722
832.2509	0.005984
832.4884	0.006596
832.7259	0.008135
832.9634	0.007039
833.2009	0.007777
833.4384	0.007777
833.6759	0.009717
833.9135	0.008346
834.1510	0.008262
834.3886	0.010666
834.6261	0.011573
834.8637	0.009042
835.1013	0.009611
835.3389	0.010181
835.5765	0.010476
835.8141	0.007861
836.0517	0.008409
836.2893	0.006785
836.5269	0.007376
836.7646	0.006828
837.0022	0.007249
837.2399	0.007756
837.4775	0.007713
837.7152	0.007207
837.9529	0.006490
838.1906	0.005520
838.4283	0.005689
838.6660	0.005668
838.9037	0.007039
839.1414	0.005984
839.3791	0.007966
839.6169	0.005520
839.8546	0.008135
840.0924	0.006279
840.3302	0.007777
840.5679	0.006828
840.8057	0.006807
841.0435	0.005963
841.2813	0.005246
841.5191	0.006111
841.7569	0.006701
841.9947	0.005731
842.2326	0.005330
842.4704	0.005858
842.7082	0.005119
842.9461	0.005394
843.1840	0.005752
843.4218	0.005035
843.6597	0.005077
843.8976	0.004318
844.1355	0.004930
844.3734	0.004803
844.6113	0.005626
844.8492	0.004866
845.0872	0.005140
845.3251	0.004508
845.5631	0.005056
845.8010	0.005394
846.0390	0.005056
846.2770	0.004824
846.5149	0.005668
846.7529	0.004191
846.9909	0.005731
847.2289	0.005858
847.4669	0.005077
847.7050	0.004339
847.9430	0.004761
848.1810	0.003559
848.4191	0.003496
848.6571	0.004381
848.8952	0.005077
849.1333	0.005394
849.3713	0.005583
849.6094	0.003959
849.8475	0.005077
850.0856	0.004930
850.3237	0.004824
850.5619	0.004023
850.8000	0.004592
851.0381	0.004445
851.2763	0.004571
851.5144	0.004339
851.7526	0.004550
851.9908	0.005731
852.2289	0.006448
852.4671	0.006448
852.7053	0.006532
852.9435	0.009147
853.1817	0.010265
853.4200	0.012311
853.6582	0.013639
853.8964	0.010898
854.1347	0.012817
854.3729	0.012058
854.6112	0.012290
854.8495	0.013049
855.0877	0.010835
855.3260	0.013618
855.5643	0.012205
855.8026	0.009843
856.0409	0.011847
856.2792	0.010497
856.5176	0.011699
856.7559	0.012543
856.9942	0.011045
857.2326	0.010307
857.4710	0.009211
857.7093	0.008599
857.9477	0.009675
858.1861	0.008536
858.4245	0.009422
858.6629	0.008620
858.9013	0.007524
859.1397	0.008030
859.3781	0.008198
859.6166	0.008219
859.8550	0.008198
860.0935	0.006722
860.3319	0.007228
860.5704	0.005626
860.8089	0.005267
861.0473	0.005626
861.2858	0.006764
861.5243	0.004423
861.7628	0.004634
862.0013	0.006406
862.2399	0.004529
862.4784	0.005119
862.7169	0.006195
862.9555	0.005647
863.1940	0.005183
863.4326	0.004592
863.6712	0.004571
863.9098	0.006111
864.1483	0.005035
864.3869	0.005963
864.6255	0.005499
864.8642	0.004930
865.1028	0.005246
865.3414	0.003875
865.5800	0.005562
865.8187	0.004466
866.0573	0.004002
866.2960	0.004191
866.5347	0.006764
866.7733	0.004381
867.0120	0.004529
867.2507	0.005626
867.4894	0.005942
867.7281	0.005731
867.9669	0.005415
868.2056	0.004107
868.4443	0.005921
868.6831	0.005668
868.9218	0.005689
869.1606	0.003728
869.3993	0.005288
869.6381	0.004803
869.8769	0.005372
870.1157	0.004930
870.3545	0.006469
870.5933	0.004466
870.8321	0.004972
871.0709	0.006596
871.3097	0.007460
871.5486	0.005225
871.7874	0.004930
872.0263	0.005119
872.2651	0.005394
872.5040	0.005963
872.7429	0.005372
872.9818	0.003053
873.2207	0.005668
873.4596	0.004234
873.6985	0.003179
873.9374	0.005520
874.1763	0.005963
874.4153	0.003601
874.6542	0.005858
874.8932	0.005246
875.1321	0.005436
875.3711	0.004571
875.6101	0.005626
875.8491	0.005056
876.0880	0.004719
876.3270	0.006617
876.5661	0.004677
876.8051	0.004761
877.0441	0.005162
877.2831	0.005520
877.5222	0.004677
877.7612	0.006174
878.0003	0.005330
878.2393	0.005246
878.4784	0.006174
878.7175	0.008515
878.9566	0.006785
879.1957	0.005330
879.4348	0.006343
879.6739	0.006174
879.9130	0.007165
880.1521	0.007292
880.3913	0.007777
880.6304	0.006216
880.8696	0.009485
881.1087	0.005963
881.3479	0.005815
881.5871	0.006532
881.8262	0.006343
882.0654	0.006511
882.3046	0.005520
882.5438	0.004761
882.7831	0.005499
883.0223	0.004930
883.2615	0.005499
883.5007	0.006406
883.7400	0.005077
883.9792	0.005246
884.2185	0.004993
884.4578	0.004951
884.6971	0.004002
884.9363	0.004423
885.1756	0.005499
885.4149	0.007144
885.6542	0.006385
885.8936	0.007966
886.1329	0.006870
886.3722	0.005710
886.6116	0.005604
886.8509	0.005520
887.0903	0.005541
887.3296	0.005415
887.5690	0.003854
887.8084	0.005921
888.0478	0.004466
888.2872	0.005562
888.5266	0.003833
888.7660	0.005035
889.0054	0.004234
889.2448	0.004276
889.4843	0.004529
889.7237	0.005204
889.9632	0.004824
890.2026	0.004445
890.4421	0.003812
890.6816	0.006195
890.9211	0.003917
891.1606	0.003938
891.4001	0.004550
891.6396	0.004086
891.8791	0.004529
892.1186	0.006132
892.3581	0.003959
892.5977	0.005879
892.8372	0.004170
893.0768	0.004255
893.3163	0.004698
893.5559	0.004972
893.7955	0.003601
894.0351	0.004571
894.2747	0.002420
894.5143	0.005246
894.7539	0.004128
894.9935	0.004445
895.2331	0.004972
895.4727	0.004782
895.7124	0.003601
895.9520	0.005183
896.1917	0.004592
896.4314	0.005098
896.6710	0.004381
896.9107	0.006343
897.1504	0.004866
897.3901	0.003474
897.6298	0.003643
897.8695	0.004466
898.1092	0.004592
898.3489	0.006005
898.5887	0.005246
898.8284	0.005499
899.0682	0.003917
899.3079	0.003137
899.5477	0.005014
899.7875	0.005583
900.0272	0.002357
900.2670	0.005246
900.5068	0.004107
900.7466	0.004803
900.9864	0.003158
901.2263	0.005415
901.4661	0.005140
901.7059	0.003432
901.9458	0.005309
902.1856	0.003706
902.4255	0.004128
902.6654	0.004698
902.9052	0.003517
903.1451	0.004255
903.3850	0.003685
903.6249	0.004592
903.8648	0.004993
904.1047	0.006153
904.3446	0.004360
904.5846	0.004234
904.8245	0.006026
905.0644	0.003411
905.3044	0.004993
905.5444	0.006111
905.7843	0.003791
906.0243	0.005394
906.2643	0.004402
906.5043	0.004381
906.7443	0.004550
906.9843	0.005140
907.2243	0.003601
907.4643	0.005162
907.7043	0.004213
907.9444	0.003285
908.1844	0.003432
908.4245	0.003074
908.6645	0.004487
908.9046	0.003749
909.1447	0.003411
909.3847	0.005478
909.6248	0.003917
909.8649	0.003327
910.1050	0.003179
910.3452	0.003074
910.5853	0.002251
910.8254	0.003896
911.0655	0.004002
911.3057	0.004234
911.5458	0.003348
911.7860	0.004466
912.0262	0.002061
912.2663	0.003010
912.5065	0.003285
912.7467	0.002483
912.9869	0.002926
913.2271	0.002757
913.4673	0.003348
913.7075	0.004297
913.9478	0.002610
914.1880	0.003749
914.4283	0.003137
914.6685	0.003390
914.9088	0.002040
915.1490	0.002905
915.3893	0.002462
915.6296	0.003833
915.8699	0.004761
916.1102	0.003854
916.3505	0.003601
916.5908	0.004086
916.8311	0.003453
917.0714	0.005225
917.3118	0.004655
917.5521	0.004318
917.7925	0.003664
918.0328	0.002842
918.2732	0.004234
918.5136	0.003032
918.7539	0.003285
918.9943	0.003959
919.2347	0.003981
919.4751	0.004803
919.7155	0.003411
919.9560	0.003496
920.1964	0.004423
920.4368	0.004508
920.6773	0.003053
920.9177	0.003200
921.1582	0.002104
921.3986	0.003053
921.6391	0.002694
921.8796	0.002736
922.1201	0.003032
922.3606	0.003685
922.6011	0.002504
922.8416	0.004234
923.0821	0.002272
923.3226	0.001956
923.5631	0.002905
923.8037	0.001281
924.0442	0.002525
924.2848	0.003601
924.5254	0.003749
924.7659	0.004002
925.0065	0.003179
925.2471	0.002167
925.4877	0.001429
925.7283	0.001640
925.9689	0.001134
926.2095	0.004360
926.4501	0.002968
926.6908	0.002336
926.9314	0.001619
927.1720	0.003749
927.4127	0.002905
927.6533	0.002188
927.8940	0.001302
928.1347	0.001218
928.3754	0.002884
928.6161	0.002125
928.8568	0.001598
929.0975	0.002778
929.3382	0.003854
929.5789	0.002378
929.8196	0.002251
930.0604	0.003264
930.3011	0.003242
930.5419	0.003137
930.7826	0.001366
931.0234	0.003179
931.2642	0.002884
931.5049	0.000754
931.7457	0.001028
931.9865	0.001998
932.2273	0.001977
932.4681	0.001576
932.7089	0.000543
932.9498	0.003327
933.1906	0.001218
933.4314	0.002441
933.6723	0.002757
933.9131	0.002293
934.1540	0.002230
934.3949	0.003053
934.6358	0.002083
934.8766	0.001197
935.1175	0.003010
935.3584	0.003221
935.5993	0.002800
935.8403	0.003095
936.0812	0.001366
936.3221	0.002209
936.5630	0.002462
936.8040	0.002272
937.0449	0.000332
937.2859	0.002926
937.5269	0.001028
937.7678	0.002167
938.0088	0.001935
938.2498	0.000311
938.4908	0.002610
938.7318	0.001872
938.9728	0.001935
939.2138	0.001935
939.4549	0.001176
939.6959	0.000058
939.9369	0.002167
940.1780	0.002293
940.4190	0.002040
940.6601	0.000417
940.9012	0.002399
941.1422	0.001239
941.3833	0.000691
941.6244	0.001302
941.8655	0.001893
942.1066	0.000395
942.3477	0.000691
942.5889	0.000142
942.8300	0.001766
943.0711	0.000775
943.3123	0.001281
943.5534	0.000185
943.7946	0.002736
944.0357	0.001703
944.2769	0.002315
944.5181	0.001070
944.7593	0.001344
945.0005	0.001492
945.2417	0.001703
945.4829	0.001914
945.7241	0.001619
945.9653	0.002315
946.2066	0.002083
946.4478	0.000691
946.6891	0.002083
946.9303	0.000543
947.1716	0.001492
947.4128	0.001808
947.6541	-0.000448
947.8954	0.001070
948.1367	0.000648
948.3780	0.000902
948.6193	0.001703
948.8606	0.000859
949.1019	0.001091
949.3433	0.001281
949.5846	0.000037
949.8259	0.000859
950.0673	0.001661
950.3086	0.000332
950.5500	0.001239
950.7914	0.001829
951.0327	0.000691
951.2741	0.001956
951.5155	0.000670
951.7569	0.001239
951.9983	0.000944
952.2398	0.001513
952.4812	0.001619
952.7226	0.001555
952.9640	0.003221
953.2055	0.000712
953.4469	0.001387
953.6884	0.001134
953.9299	0.002019
954.1713	0.001197
954.4128	0.002462
954.6543	0.000606
954.8958	0.001028
955.1373	0.002040
955.3788	0.002842
955.6203	0.000163
955.8618	0.003179
956.1034	0.000501
956.3449	0.000902
956.5865	0.001197
956.8280	0.001387
957.0696	0.000648
957.3111	0.001091
957.5527	0.000522
957.7943	0.001808
958.0359	0.001598
958.2775	0.002315
958.5191	0.000944
958.7607	0.000522
959.0023	0.000227
959.2439	0.001576
959.4856	0.000417
959.7272	0.001640
959.9688	0.000311
960.2105	0.000817
960.4522	0.000353
960.6938	-0.000047
960.9355	0.001682
961.1772	0.002293
961.4189	0.000269
961.6606	0.002188
961.9023	0.000459
962.1440	0.001323
962.3857	0.000501
962.6274	-0.000090
962.8692	0.000395
963.1109	0.001134
963.3527	0.001682
963.5944	0.000627
963.8362	0.000501
964.0779	0.000691
964.3197	0.000648
964.5615	0.001745
964.8033	0.000037
965.0451	0.000986
965.2869	0.000438
965.5287	0.001471
965.7705	0.000100
966.0123	0.000522
966.2542	0.001028
966.4960	-0.000090
966.7379	0.000648
966.9797	0.000712
967.2216	0.001323
967.4634	0.001619
967.7053	0.001049
967.9472	0.000142
968.1891	0.002146
968.4310	0.001555
968.6729	0.000627
968.9148	0.000206
969.1567	-0.000575
969.3987	-0.000132
969.6406	0.000817
969.8825	0.000206
970.1245	0.001176
970.3664	0.001429
970.6084	0.000712
970.8504	0.002019
971.0923	0.000902
971.3343	0.002146
971.5763	0.000627
971.8183	0.000564
972.0603	0.001091
972.3023	0.000501
972.5443	0.000311
972.7864	0.001977
973.0284	0.001576
973.2704	0.000459
973.5125	0.000838
973.7545	0.001197
973.9966	0.000564
974.2387	0.001703
974.4807	0.001344
974.7228	0.001872
974.9649	0.000438
975.2070	0.001049
975.4491	0.000206
975.6912	0.001344
975.9333	0.000986
976.1755	0.001956
976.4176	0.000248
976.6597	0.001049
976.9019	0.001134
977.1440	0.000543
977.3862	0.002061
977.6283	0.000838
977.8705	0.001323
978.1127	0.001492
978.3549	0.000733
978.5971	0.001197
978.8393	0.001555
979.0815	0.002483
979.3237	0.000501
979.5659	0.001429
979.8082	0.001112
980.0504	0.001049
980.2926	0.001450
980.5349	0.001513
980.7771	-0.000701
981.0194	0.000353
981.2617	0.000733
981.5040	0.000880
981.7462	0.001429
981.9885	0.000986
982.2308	0.000206
982.4731	0.000353
982.7155	0.000185
982.9578	0.000311
983.2001	0.000775
983.4424	0.000986
983.6848	0.000923
983.9271	0.000311
984.1695	-0.000975
984.4118	0.001028
984.6542	0.000754
984.8966	0.000627
985.1390	0.000902
985.3814	0.001239
985.6238	0.001028
985.8662	0.001366
986.1086	0.000522
986.3510	0.000986
986.5934	0.000121
986.8358	0.000121
987.0783	0.000670
987.3207	-0.001144
987.5632	0.001344
987.8056	-0.000132
988.0481	0.000712
988.2906	0.000859
988.5331	-0.000026
988.7756	0.000648
989.0180	0.001155
989.2605	0.001218
989.5031	0.000374
989.7456	0.000564
989.9881	0.001387
990.2306	0.000480
990.4732	0.001682
990.7157	0.001366
990.9582	0.001366
991.2008	0.001387
991.4434	0.001091
991.6859	0.001408
991.9285	0.000880
992.1711	-0.000026
992.4137	-0.000701
992.6563	0.001155
992.8989	0.001534
993.1415	-0.000258
993.3841	0.000543
993.6267	0.001619
993.8694	0.000944
994.1120	0.001576
994.3547	0.000585
994.5973	0.001450
994.8400	0.000395
995.0826	0.001281
995.3253	-0.000322
995.5680	0.001555
995.8107	0.000206
996.0534	0.000016
996.2961	0.000691
996.5388	0.002462
996.7815	0.000290
997.0242	0.000838
997.2670	0.000670
997.5097	0.001555
997.7524	0.002462
997.9952	0.000923
998.2379	0.000817
998.4807	-0.000996
998.7235	-0.000047
998.9662	0.001239
999.2090	0.001703
999.4518	0.000606
999.6946	0.000880
999.9374	-0.000343
1000.1802	0.001007
1000.4230	0.000121
1000.6659	-0.000111
1000.9087	-0.000364
1001.1515	0.001281
1001.3944	0.000670
1001.6372	0.000775
1001.8801	0.001471
1002.1230	0.000880
1002.3658	-0.000385
1002.6087	0.001640
1002.8516	-0.000490
1003.0945	0.000564
1003.3374	-0.000701
1003.5803	0.000880
1003.8232	0.001091
1004.0661	0.002209
1004.3091	0.000670
1004.5520	0.000290
1004.7949	0.000269
1005.0379	0.001218
1005.2808	0.000944
1005.5238	0.002336
1005.7667	0.000395
1006.0097	0.001829
1006.2527	0.000332
1006.4957	0.001766
1006.7387	0.000564
1006.9817	0.001977
1007.2247	0.000691
1007.4677	0.001281
1007.7107	0.000269
1007.9538	0.001197
1008.1968	0.000859
1008.4398	0.000880
1008.6829	-0.000090
1008.9259	0.001682
1009.1690	0.000775
1009.4121	0.000206
1009.6551	0.000880
1009.8982	0.001197
1010.1413	0.000417
1010.3844	0.000016
1010.6275	0.001429
1010.8706	0.001429
1011.1137	0.000606
1011.3568	0.000712
1011.6000	0.000142
1011.8431	0.001070
1012.0863	0.000353
1012.3294	0.002209
1012.5726	0.000691
1012.8157	0.001640
1013.0589	0.001091
1013.3021	0.001112
1013.5452	-0.000575
1013.7884	0.000712
1014.0316	-0.000174
1014.2748	0.000564
1014.5180	0.000691
1014.7613	0.001450
1015.0045	0.000606
1015.2477	-0.000047
1015.4909	-0.000596
1015.7342	0.001450
1015.9774	0.001661
1016.2207	0.000079
1016.4640	0.000227
1016.7072	0.001112
1016.9505	0.001829
1017.1938	0.000944
1017.4371	-0.000195
1017.6804	0.000648
1017.9237	0.000269
1018.1670	0.000775
1018.4103	0.000627
1018.6536	0.000353
1018.8969	0.001155
1019.1403	0.000880
1019.3836	0.000564
1019.6270	0.000648
1019.8703	0.001218
1020.1137	0.000838
1020.3571	0.000079
1020.6004	0.000353
1020.8438	0.000564
1021.0872	0.001176
1021.3306	0.000606
1021.5740	0.000585
1021.8174	0.000290
1022.0608	0.000311
1022.3042	-0.000596
1022.5477	-0.000090
1022.7911	-0.000596
1023.0345	0.000417
