# Wavelength (nm)	Intensity (a.u.)
197.7802	0.000987
197.9842	-0.000807
198.1882	-0.000786
198.3922	0.000459
198.5963	0.000754
198.8003	-0.000913
199.0044	0.002042
199.2085	0.000586
199.4126	0.000016
199.6168	-0.000005
199.8209	0.001282
200.0251	0.000733
200.2292	-0.000702
200.4334	-0.000554
200.6376	0.000206
200.8418	0.000079
201.0461	0.000628
201.2503	-0.001778
201.4546	0.000564
201.6589	-0.001546
201.8631	0.000987
202.0674	0.000818
202.2718	0.000290
202.4761	-0.000364
202.6805	0.000375
202.8848	-0.000047
203.0892	0.000881
203.2936	0.000375
203.4980	0.000185
203.7024	-0.001419
203.9069	0.000691
204.1113	0.000037
204.3158	-0.000047
204.5203	0.000564
204.7248	-0.000723
204.9293	0.002126
205.1338	0.001029
205.3384	0.000311
205.5430	-0.000090
205.7475	0.000142
205.9521	0.000860
206.1567	0.000016
206.3614	-0.000195
206.5660	-0.000301
206.7706	-0.000765
206.9753	0.000206
207.1800	0.000649
207.3847	0.000712
207.5894	0.001999
207.7941	-0.001166
207.9989	0.000754
208.2036	0.000628
208.4084	0.000944
208.6132	-0.000744
208.8180	0.000100
209.0228	-0.000786
209.2276	-0.000111
209.4325	-0.000533
209.6373	-0.000216
209.8422	0.000375
210.0471	-0.000702
210.2520	0.000797
210.4569	-0.000448
210.6618	0.000396
210.8668	0.000185
211.0718	0.000290
211.2767	0.000543
211.4817	0.000079
211.6867	0.000628
211.8918	-0.000322
212.0968	-0.000807
212.3018	-0.000301
212.5069	-0.000047
212.7120	-0.000807
212.9171	-0.000090
213.1222	-0.000280
213.3273	0.000733
213.5325	-0.000280
213.7376	0.001240
213.9428	-0.000533
214.1480	0.000396
214.3532	-0.001335
214.5584	0.001472
214.7636	0.000860
214.9689	-0.000026
215.1741	-0.000533
215.3794	-0.001229
215.5847	-0.000470
215.7900	-0.001778
215.9953	-0.000406
216.2007	0.000100
216.4060	-0.001124
216.6114	0.000564
216.8168	-0.000069
217.0222	0.000564
217.2276	0.000818
217.4330	-0.000026
217.6384	0.000142
217.8439	0.000375
218.0494	-0.000259
218.2548	-0.000976
218.4603	-0.001461
218.6659	0.001092
218.8714	0.000100
219.0769	-0.000216
219.2825	-0.000132
219.4881	0.000332
219.6936	-0.000554
219.8992	0.000691
220.1049	-0.001356
220.3105	0.000037
220.5161	-0.000047
220.7218	-0.000195
220.9275	-0.000533
221.1332	-0.000554
221.3389	0.000206
221.5446	-0.001060
221.7503	0.000058
221.9561	-0.000174
222.1618	-0.001250
222.3676	0.000185
222.5734	0.000649
222.7792	-0.000280
222.9850	-0.001398
223.1909	-0.000955
223.3967	0.001071
223.6026	-0.000723
223.8085	-0.000638
224.0144	0.000121
224.2203	-0.001335
224.4262	-0.000322
224.6322	-0.000301
224.8381	0.001113
225.0441	-0.000512
225.2501	0.000100
225.4561	-0.002052
225.6621	-0.000765
225.8681	-0.001398
226.0742	0.000353
226.2802	0.000628
226.4863	0.000142
226.6924	-0.000638
226.8985	0.001366
227.1046	0.000037
227.3107	-0.000216
227.5169	-0.000870
227.7230	0.000269
227.9292	-0.000385
228.1354	-0.000069
228.3416	0.000290
228.5478	0.001535
228.7541	-0.000005
228.9603	0.000839
229.1666	0.000269
229.3729	0.000522
229.5791	0.000206
229.7855	0.000100
229.9918	0.000058
230.1981	-0.001039
230.4045	0.000332
230.6108	-0.000153
230.8172	-0.001293
231.0236	-0.000280
231.2300	0.000881
231.4364	0.001746
231.6429	0.000754
231.8493	-0.000617
232.0558	0.000649
232.2623	0.001113
232.4688	0.000100
232.6753	0.000353
232.8818	-0.000659
233.0884	-0.001229
233.2949	-0.000448
233.5015	-0.000301
233.7081	0.000100
233.9147	0.001029
234.1213	-0.000280
234.3279	0.001198
234.5346	-0.000301
234.7413	0.000628
234.9479	-0.000470
235.1546	0.000691
235.3613	0.000353
235.5680	0.000987
235.7748	-0.000491
235.9815	-0.000617
236.1883	-0.001082
236.3951	-0.001841
236.6018	0.000206
236.8087	0.000923
237.0155	0.000522
237.2223	0.001345
237.4292	-0.000259
237.6360	-0.000596
237.8429	-0.001229
238.0498	0.000670
238.2567	0.000522
238.4636	-0.000174
238.6706	0.001915
238.8775	-0.000069
239.0845	-0.000913
239.2915	0.000396
239.4985	-0.000596
239.7055	-0.000913
239.9125	-0.000512
240.1195	0.000691
240.3266	-0.000976
240.5337	-0.001271
240.7407	0.000797
240.9478	0.000607
241.1549	0.000100
241.3621	0.000396
241.5692	0.000311
241.7764	0.000142
241.9835	0.000100
242.1907	0.000818
242.3979	-0.000617
242.6051	-0.001229
242.8124	0.000564
243.0196	-0.000554
243.2269	0.000649
243.4341	0.000206
243.6414	-0.000786
243.8487	-0.000364
244.0560	-0.000554
244.2634	-0.000047
244.4707	0.000100
244.6781	0.001198
244.8854	-0.000955
245.0928	0.000332
245.3002	-0.000470
245.5076	0.000227
245.7151	0.000248
245.9225	0.000121
246.1300	-0.001103
246.3375	0.000902
246.5449	-0.000343
246.7524	-0.000069
246.9600	-0.000111
247.1675	0.000142
247.3750	0.000417
247.5826	-0.001356
247.7902	-0.000955
247.9978	0.000564
248.2054	-0.000659
248.4130	-0.000385
248.6206	0.000121
248.8283	0.001725
249.0359	-0.000533
249.2436	0.001514
249.4513	-0.000111
249.6590	-0.000744
249.8667	-0.000406
250.0745	0.001219
250.2822	-0.000216
250.4900	0.001788
250.6978	-0.000744
250.9056	0.000164
251.1134	-0.000111
251.3212	-0.000723
251.5290	0.000248
251.7369	0.000438
251.9447	-0.000026
252.1526	0.000649
252.3605	-0.001356
252.5684	0.000902
252.7763	-0.000491
252.9843	0.001155
253.1922	-0.000427
253.4002	-0.001018
253.6082	0.000058
253.8162	0.000691
254.0242	0.000016
254.2322	-0.000385
254.4402	0.000016
254.6483	0.001620
254.8564	-0.000259
255.0644	0.001451
255.2725	-0.000406
255.4806	0.001345
255.6888	-0.000195
255.8969	0.000079
256.1051	0.000586
256.3132	-0.000132
256.5214	-0.000786
256.7296	0.000438
256.9378	-0.000343
257.1460	-0.000090
257.3543	0.000269
257.5625	0.000543
257.7708	0.000776
257.9791	0.001366
258.1874	-0.000132
258.3957	-0.000195
258.6040	-0.000195
258.8124	-0.000617
259.0207	-0.001546
259.2291	0.000733
259.4375	-0.002200
259.6459	0.001303
259.8543	-0.000934
260.0627	-0.000385
260.2711	-0.000870
260.4796	0.000586
260.6881	-0.001250
260.8965	0.001092
261.1050	0.000501
261.3135	0.000227
261.5221	-0.000575
261.7306	0.000079
261.9392	0.001008
262.1477	0.000227
262.3563	0.000691
262.5649	0.000248
262.7735	-0.000427
262.9822	0.000607
263.1908	-0.000744
263.3995	-0.000322
263.6081	0.000733
263.8168	0.000987
264.0255	-0.001039
264.2342	0.000480
264.4429	-0.000406
264.6517	-0.000322
264.8604	-0.000005
265.0692	-0.000216
265.2780	0.000100
265.4868	0.000332
265.6956	-0.000575
265.9044	0.001683
266.1133	0.000670
266.3221	0.000733
266.5310	-0.000427
266.7399	0.001282
266.9488	-0.000828
267.1577	0.000375
267.3666	0.000902
267.5755	0.000185
267.7845	-0.000406
267.9935	-0.000237
268.2024	-0.001314
268.4114	0.000142
268.6205	-0.000448
268.8295	0.000016
269.0385	-0.000237
269.2476	0.000227
269.4566	-0.000005
269.6657	-0.000237
269.8748	-0.000554
270.0839	0.000480
270.2931	0.000586
270.5022	0.001092
270.7114	0.000185
270.9205	0.001472
271.1297	0.000480
271.3389	-0.001082
271.5481	0.000121
271.7573	0.000987
271.9666	-0.001060
272.1758	-0.001356
272.3851	0.001008
272.5944	0.000100
272.8037	0.001176
273.0130	-0.000913
273.2223	-0.000406
273.4316	0.001071
273.6410	-0.000216
273.8504	-0.000554
274.0597	-0.000828
274.2691	0.000290
274.4785	-0.000069
274.6880	0.000248
274.8974	-0.000301
275.1069	0.000037
275.3163	-0.000491
275.5258	0.000269
275.7353	0.000311
275.9448	0.000100
276.1543	0.000712
276.3639	0.000227
276.5734	0.000501
276.7830	0.000142
276.9926	-0.000047
277.2022	-0.000491
277.4118	0.000586
277.6214	-0.000280
277.8310	-0.000892
278.0407	0.000860
278.2503	0.000797
278.4600	0.000206
278.6697	0.000691
278.8794	0.001050
279.0891	-0.000596
279.2989	0.000227
279.5086	0.001071
279.7184	0.000227
279.9281	-0.000702
280.1379	0.000142
280.3477	-0.001799
280.5576	0.000058
280.7674	-0.001208
280.9772	0.000691
281.1871	-0.000659
281.3970	0.001493
281.6069	-0.001335
281.8168	0.001071
282.0267	0.000121
282.2366	0.000754
282.4466	0.000965
282.6565	0.000079
282.8665	-0.000343
283.0765	-0.000343
283.2865	-0.000090
283.4965	0.000269
283.7065	0.000649
283.9166	-0.000976
284.1266	-0.001060
284.3367	-0.001082
284.5468	0.001092
284.7569	-0.000702
284.9670	0.000311
285.1771	0.001261
285.3873	-0.000364
285.5974	0.000586
285.8076	-0.000491
286.0178	0.000438
286.2280	0.000185
286.4382	-0.000385
286.6484	0.001324
286.8587	-0.000997
287.0689	-0.000026
287.2792	-0.000596
287.4895	-0.000849
287.6998	0.000776
287.9101	-0.001419
288.1204	0.000058
288.3308	-0.000575
288.5411	0.000058
288.7515	-0.000343
288.9619	0.000586
289.1723	0.000269
289.3827	-0.000364
289.5931	0.000733
289.8035	-0.000280
290.0140	0.000058
290.2245	0.000649
290.4349	-0.000047
290.6454	0.000754
290.8559	-0.000870
291.0665	0.001472
291.2770	-0.000364
291.4875	0.000438
291.6981	-0.000470
291.9087	0.000649
292.1193	0.001788
292.3299	0.001535
292.5405	0.000860
292.7511	-0.000195
292.9618	-0.000575
293.1724	-0.000470
293.3831	0.000375
293.5938	0.000818
293.8045	0.000227
294.0152	0.000543
294.2260	-0.000047
294.4367	-0.000195
294.6475	0.000016
294.8582	-0.000554
295.0690	0.000733
295.2798	0.000649
295.4906	0.000860
295.7015	0.000586
295.9123	0.000628
296.1232	0.000459
296.3340	0.000185
296.5449	0.000164
296.7558	-0.000934
296.9667	-0.000575
297.1777	-0.000659
297.3886	0.000079
297.5995	-0.000596
297.8105	-0.000892
298.0215	0.000522
298.2325	-0.000132
298.4435	-0.000174
298.6545	0.000797
298.8656	-0.000280
299.0766	0.000670
299.2877	-0.000132
299.4988	-0.000470
299.7099	0.000965
299.9210	0.000142
300.1321	0.000480
300.3432	0.000438
300.5544	-0.001060
300.7655	0.001282
300.9767	-0.000026
301.1879	-0.000069
301.3991	0.001155
301.6103	-0.000026
301.8215	0.000375
302.0328	-0.000026
302.2441	0.000227
302.4553	0.001113
302.6666	0.000670
302.8779	0.000185
303.0892	-0.000174
303.3006	-0.001778
303.5119	0.000290
303.7233	0.000290
303.9346	-0.000406
304.1460	0.000248
304.3574	-0.001250
304.5688	0.001366
304.7803	-0.000786
304.9917	-0.000870
305.2031	-0.000533
305.4146	-0.000174
305.6261	-0.000047
305.8376	0.000100
306.0491	0.001915
306.2606	-0.000807
306.4722	-0.000638
306.6837	0.001219
306.8953	0.001746
307.1069	-0.000343
307.3184	-0.000427
307.5301	-0.000301
307.7417	-0.000301
307.9533	0.000311
308.1650	-0.000448
308.3766	0.000691
308.5883	-0.000849
308.8000	0.000797
309.0117	0.000649
309.2234	0.000586
309.4351	0.000016
309.6469	0.000987
309.8586	0.000142
310.0704	-0.000385
310.2822	-0.000259
310.4940	-0.000195
310.7058	-0.000427
310.9176	-0.000111
311.1295	-0.000406
311.3413	-0.000427
311.5532	-0.001082
311.7651	0.000987
311.9770	-0.000596
312.1889	-0.000153
312.4008	0.000121
312.6127	-0.001145
312.8247	0.000923
313.0366	0.001641
313.2486	0.000438
313.4606	-0.000005
313.6726	-0.000512
313.8846	-0.000617
314.0967	-0.002369
314.3087	-0.000828
314.5208	-0.000153
314.7328	0.001282
314.9449	-0.000385
315.1570	0.000818
315.3692	0.000353
315.5813	-0.000111
315.7934	0.001430
316.0056	-0.000638
316.2177	-0.001736
316.4299	0.000269
316.6421	-0.000744
316.8543	0.000628
317.0666	0.000100
317.2788	0.000459
317.4911	-0.001250
317.7033	0.000164
317.9156	0.001092
318.1279	0.000227
318.3402	-0.000026
318.5525	-0.000259
318.7649	0.000691
318.9772	0.000016
319.1896	-0.001293
319.4019	-0.000195
319.6143	-0.001588
319.8267	-0.000448
320.0392	-0.001947
320.2516	0.000501
320.4640	-0.000385
320.6765	0.000016
320.8890	-0.000723
321.1014	0.001451
321.3139	0.001261
321.5265	0.000185
321.7390	-0.000364
321.9515	0.000902
322.1641	-0.000849
322.3766	0.001430
322.5892	0.000058
322.8018	0.001219
323.0144	-0.001250
323.2270	0.001493
323.4397	0.000269
323.6523	-0.001082
323.8650	0.000522
324.0777	0.000459
324.2904	0.001071
324.5031	0.000881
324.7158	-0.000491
324.9285	-0.000406
325.1412	0.000269
325.3540	-0.000069
325.5668	-0.000090
325.7796	0.000818
325.9924	0.000733
326.2052	0.002253
326.4180	-0.000702
326.6308	-0.001018
326.8437	-0.000448
327.0566	0.001008
327.2694	-0.000427
327.4823	-0.000111
327.6952	0.000332
327.9082	0.000860
328.1211	-0.000997
328.3340	-0.001293
328.5470	0.000586
328.7600	0.000164
328.9730	-0.000765
329.1860	-0.000005
329.3990	0.000543
329.6120	-0.000195
329.8251	-0.000364
330.0381	-0.000132
330.2512	-0.000786
330.4643	0.001113
330.6774	0.000733
330.8905	0.001535
331.1036	0.000290
331.3167	-0.000554
331.5299	-0.000617
331.7431	-0.000090
331.9562	0.000417
332.1694	-0.000090
332.3826	-0.000259
332.5959	-0.000090
332.8091	0.000269
333.0223	-0.001018
333.2356	-0.001778
333.4489	-0.000047
333.6622	0.000396
333.8755	0.000206
334.0888	-0.000913
334.3021	-0.000153
334.5154	-0.000364
334.7288	-0.001757
334.9422	-0.000892
335.1555	0.001725
335.3689	-0.000702
335.5823	-0.000913
335.7958	-0.000575
336.0092	-0.000406
336.2227	-0.000322
336.4361	-0.000575
336.6496	-0.000026
336.8631	0.000037
337.0766	0.001176
337.2901	0.000227
337.5036	-0.000301
337.7172	0.000607
337.9307	0.000480
338.1443	-0.000111
338.3579	0.001852
338.5715	-0.000047
338.7851	-0.000448
338.9987	-0.000343
339.2124	-0.000913
339.4260	0.000628
339.6397	-0.001018
339.8533	0.001387
340.0670	-0.000280
340.2807	0.000944
340.4945	-0.000976
340.7082	-0.000237
340.9219	-0.001271
341.1357	-0.000659
341.3495	-0.000659
341.5633	-0.000533
341.7771	0.000649
341.9909	-0.000259
342.2047	-0.000849
342.4185	-0.000153
342.6324	0.000016
342.8463	0.000564
343.0601	0.000438
343.2740	0.000501
343.4879	-0.000280
343.7019	-0.000237
343.9158	0.000628
344.1297	0.000691
344.3437	0.000628
344.5577	-0.001145
344.7717	-0.001208
344.9857	0.000079
345.1997	-0.000301
345.4137	0.000016
345.6277	0.000417
345.8418	0.000058
346.0559	-0.000301
346.2699	0.000564
346.4840	-0.000005
346.6981	0.001134
346.9123	-0.000427
347.1264	0.000543
347.3406	-0.001356
347.5547	0.000332
347.7689	-0.000427
347.9831	0.000058
348.1973	-0.001525
348.4115	0.000353
348.6257	-0.000470
348.8400	0.000332
349.0542	-0.000849
349.2685	0.000438
349.4828	-0.002305
349.6971	0.000353
349.9114	-0.000047
350.1257	-0.000976
350.3400	0.000311
350.5544	0.001261
350.7687	0.000649
350.9831	0.000142
351.1975	-0.000280
351.4119	0.000607
351.6263	0.000564
351.8407	0.000923
352.0552	0.000016
352.2696	-0.000385
352.4841	0.000501
352.6986	-0.000849
352.9131	0.000902
353.1276	-0.000153
353.3421	0.001050
353.5566	0.000607
353.7712	-0.001672
353.9858	-0.000237
354.2003	-0.000470
354.4149	-0.000259
354.6295	0.000248
354.8441	-0.000301
355.0588	-0.000934
355.2734	-0.000849
355.4881	-0.000596
355.7027	0.000185
355.9174	-0.000322
356.1321	-0.000195
356.3468	-0.000280
356.5615	0.001050
356.7763	-0.000470
356.9910	0.001008
357.2058	0.000016
357.4206	0.000776
357.6353	-0.000533
357.8501	-0.000322
358.0650	-0.000427
358.2798	0.001198
358.4946	-0.001356
358.7095	-0.000512
358.9243	-0.000512
359.1392	0.000142
359.3541	0.000543
359.5690	-0.000427
359.7839	-0.000765
359.9989	0.001556
360.2138	0.000290
360.4288	0.000037
360.6438	-0.000111
360.8587	-0.000047
361.0737	0.000586
361.2888	-0.001293
361.5038	-0.000976
361.7188	0.000564
361.9339	-0.000849
362.1489	-0.000638
362.3640	0.000353
362.5791	-0.000427
362.7942	-0.000617
363.0093	0.000480
363.2245	0.000248
363.4396	-0.000216
363.6548	-0.001419
363.8699	-0.000575
364.0851	-0.000195
364.3003	0.001240
364.5155	-0.000280
364.7308	-0.000681
364.9460	-0.000005
365.1612	-0.000807
365.3765	-0.001166
365.5918	0.000438
365.8071	0.000375
366.0224	-0.000448
366.2377	0.000438
366.4530	0.001134
366.6684	-0.000617
366.8837	0.001493
367.0991	0.001641
367.3145	0.001514
367.5299	-0.000216
367.7453	-0.000237
367.9607	0.000037
368.1761	-0.000132
368.3916	0.000396
368.6070	0.000353
368.8225	0.000206
369.0380	-0.000343
369.2535	-0.000005
369.4690	0.001029
369.6845	-0.000111
369.9001	-0.000385
370.1156	-0.000470
370.3312	0.000797
370.5468	-0.000744
370.7624	-0.000470
370.9780	-0.000280
371.1936	0.001430
371.4092	-0.000343
371.6249	0.000987
371.8405	0.000480
372.0562	0.000691
372.2719	0.000712
372.4876	0.001303
372.7033	-0.000997
372.9190	0.000965
373.1348	0.001219
373.3505	0.000375
373.5663	0.000396
373.7820	-0.000364
373.9978	0.000649
374.2136	0.001240
374.4294	-0.000934
374.6453	-0.000280
374.8611	0.000142
375.0770	0.000670
375.2928	-0.000153
375.5087	0.001852
375.7246	0.001092
375.9405	0.001514
376.1564	-0.000322
376.3724	-0.000322
376.5883	-0.000026
376.8043	0.000712
377.0203	0.000164
377.2362	0.000754
377.4522	-0.000216
377.6682	0.000860
377.8843	-0.000111
378.1003	0.000944
378.3164	-0.000195
378.5324	-0.000575
378.7485	-0.001060
378.9646	0.000607
379.1807	-0.000807
379.3968	0.000881
379.6129	-0.000849
379.8291	0.001430
380.0452	0.000776
380.2614	0.001092
380.4776	-0.000427
380.6938	0.000860
380.9100	0.001451
381.1262	0.002274
381.3424	0.000480
381.5587	0.000353
381.7749	0.000227
381.9912	-0.000659
382.2075	0.000121
382.4238	0.001198
382.6401	-0.000512
382.8564	-0.000069
383.0728	0.000185
383.2891	-0.001187
383.5055	0.001113
383.7219	0.000164
383.9382	-0.000069
384.1546	-0.000575
384.3711	0.000332
384.5875	0.000248
384.8039	-0.000870
385.0204	0.000733
385.2368	0.000227
385.4533	0.000016
385.6698	-0.000259
385.8863	0.000754
386.1028	-0.001314
386.3194	0.000670
386.5359	0.001852
386.7525	-0.000216
386.9690	-0.000301
387.1856	0.000691
387.4022	0.000164
387.6188	0.000058
387.8355	-0.000448
388.0521	0.001071
388.2687	-0.000280
388.4854	0.000754
388.7021	0.000839
388.9188	0.000185
389.1355	0.000206
389.3522	0.002126
389.5689	0.000522
389.7856	0.000923
390.0024	-0.000723
390.2192	0.000480
390.4359	-0.000470
390.6527	0.000776
390.8695	-0.000174
391.0863	0.000058
391.3032	0.000839
391.5200	0.001366
391.7369	-0.000005
391.9537	0.001219
392.1706	0.001683
392.3875	0.000100
392.6044	0.001071
392.8213	0.001873
393.0383	-0.000575
393.2552	0.001577
393.4722	0.001008
393.6891	0.000860
393.9061	0.000712
394.1231	0.002759
394.3401	0.000733
394.5572	0.001936
394.7742	0.001092
394.9912	0.002021
395.2083	0.001683
395.4254	0.001683
395.6425	0.000501
395.8596	0.001556
396.0767	0.001915
396.2938	0.001788
396.5109	0.001282
396.7281	0.003603
396.9453	0.001219
397.1624	0.002210
397.3796	0.002801
397.5968	0.003561
397.8140	0.002865
398.0313	0.004679
398.2485	0.004321
398.4658	0.004679
398.6830	0.005650
398.9003	0.004574
399.1176	0.003751
399.3349	0.002717
399.5522	0.002105
399.7696	0.003856
399.9869	0.004215
400.2043	0.004447
400.4216	0.003392
400.6390	0.002949
400.8564	0.004046
401.0738	0.004679
401.2912	0.005207
401.5087	0.003688
401.7261	0.003645
401.9436	0.004173
402.1610	0.003498
402.3785	0.005186
402.5960	0.003856
402.8135	0.006304
403.0310	0.006368
403.2486	0.005123
403.4661	0.005249
403.6837	0.006030
403.9013	0.006157
404.1189	0.005313
404.3365	0.004405
404.5541	0.007106
404.7717	0.005207
404.9893	0.006811
405.2070	0.005080
405.4246	0.007549
405.6423	0.006916
405.8600	0.006473
406.0777	0.007760
406.2954	0.006726
406.5131	0.007549
406.7309	0.007782
406.9486	0.006347
407.1664	0.006600
407.3842	0.006431
407.6020	0.005355
407.8198	0.005882
408.0376	0.005946
408.2554	0.008014
408.4733	0.007929
408.6911	0.008436
408.9090	0.007655
409.1269	0.009195
409.3448	0.007824
409.5627	0.007486
409.7806	0.008520
409.9985	0.008478
410.2165	0.009174
410.4344	0.009596
410.6524	0.007929
410.8704	0.007022
411.0884	0.007634
411.3064	0.008330
411.5244	0.007887
411.7424	0.008119
411.9605	0.006853
412.1785	0.008942
412.3966	0.009892
412.6147	0.009850
412.8328	0.009153
413.0509	0.009153
413.2690	0.010651
413.4871	0.009850
413.7053	0.009723
413.9234	0.008794
414.1416	0.011390
414.3598	0.008668
414.5780	0.009470
414.7962	0.009807
415.0144	0.010715
415.2326	0.008499
415.4509	0.009512
415.6692	0.011918
415.8874	0.012044
416.1057	0.011263
416.3240	0.010630
416.5423	0.009343
416.7606	0.009027
416.9790	0.011707
417.1973	0.009807
417.4157	0.010863
417.6341	0.011095
417.8524	0.012382
418.0708	0.010440
418.2893	0.010778
418.5077	0.010905
418.7261	0.011432
418.9446	0.011939
419.1630	0.013078
419.3815	0.011453
419.6000	0.012403
419.8185	0.012973
420.0370	0.011854
420.2555	0.013078
420.4741	0.011749
420.6926	0.012804
420.9112	0.013057
421.1298	0.014281
421.3483	0.014155
421.5669	0.013986
421.7856	0.015083
422.0042	0.015547
422.2228	0.015737
422.4415	0.014956
422.6601	0.013901
422.8788	0.014661
423.0975	0.015463
423.3162	0.015083
423.5349	0.015442
423.7536	0.014830
423.9724	0.015041
424.1911	0.014155
424.4099	0.015273
424.6287	0.014872
424.8475	0.014260
425.0663	0.013901
425.2851	0.015484
425.5039	0.013627
425.7228	0.014302
425.9416	0.012952
426.1605	0.014830
426.3793	0.013036
426.5982	0.014197
426.8171	0.013606
427.0361	0.015273
427.2550	0.013859
427.4739	0.015378
427.6929	0.015484
427.9118	0.017573
428.1308	0.014745
428.3498	0.016497
428.5688	0.013374
428.7878	0.015611
429.0068	0.015189
429.2259	0.016539
429.4449	0.015210
429.6640	0.018818
429.8831	0.018058
430.1022	0.019346
430.3213	0.017109
430.5404	0.017151
430.7595	0.018797
430.9787	0.018755
431.1978	0.019008
431.4170	0.016645
431.6362	0.015632
431.8553	0.016898
432.0745	0.015252
432.2938	0.015843
432.5130	0.015906
432.7322	0.015948
432.9515	0.015632
433.1707	0.016075
433.3900	0.015758
433.6093	0.017995
433.8286	0.018797
434.0479	0.018122
434.2673	0.018269
434.4866	0.019008
434.7059	0.016328
434.9253	0.018586
435.1447	0.016159
435.3641	0.018291
435.5835	0.014935
435.8029	0.017805
436.0223	0.016307
436.2418	0.017510
436.4612	0.016877
436.6807	0.018333
436.9001	0.015442
437.1196	0.016412
437.3391	0.018312
437.5586	0.017446
437.7782	0.017109
437.9977	0.018101
438.2173	0.017257
438.4368	0.019177
438.6564	0.017489
438.8760	0.018649
439.0956	0.018924
439.3152	0.018312
439.5348	0.017510
439.7545	0.018713
439.9741	0.017404
440.1938	0.019177
440.4135	0.016370
440.6331	0.018227
440.8528	0.016539
441.0725	0.017847
441.2923	0.020359
441.5120	0.022047
441.7318	0.021604
441.9515	0.022152
442.1713	0.022152
442.3911	0.020738
442.6109	0.020063
442.8307	0.020928
443.0505	0.020443
443.2703	0.021435
443.4902	0.021456
443.7101	0.020148
443.9299	0.021751
444.1498	0.022237
444.3697	0.019219
444.5896	0.021139
444.8095	0.019789
445.0295	0.020823
445.2494	0.019367
445.4694	0.018227
445.6894	0.020527
445.9093	0.019493
446.1293	0.020105
446.3493	0.020865
446.5694	0.019472
446.7894	0.017805
447.0094	0.019346
447.2295	0.018459
447.4496	0.019114
447.6696	0.018312
447.8897	0.019388
448.1098	0.019050
448.3300	0.018481
448.5501	0.016623
448.7702	0.018544
448.9904	0.018481
449.2106	0.020316
449.4307	0.018333
449.6509	0.018924
449.8711	0.018080
450.0914	0.014872
450.3116	0.017510
450.5318	0.016856
450.7521	0.018058
450.9724	0.016434
451.1926	0.016180
451.4129	0.016328
451.6332	0.015758
451.8535	0.016687
452.0739	0.015737
452.2942	0.016645
452.5146	0.017235
452.7349	0.015632
452.9553	0.015421
453.1757	0.015969
453.3961	0.015484
453.6165	0.014703
453.8369	0.014999
454.0574	0.015231
454.2778	0.013458
454.4983	0.013711
454.7188	0.015589
454.9393	0.013395
455.1597	0.015800
455.3803	0.014682
455.6008	0.014049
455.8213	0.014619
456.0419	0.014577
456.2624	0.013796
456.4830	0.014408
456.7036	0.015083
456.9242	0.013669
457.1448	0.014155
457.3654	0.013184
457.5860	0.013817
457.8067	0.014408
458.0274	0.014471
458.2480	0.013648
458.4687	0.015779
458.6894	0.014745
458.9101	0.014935
459.1308	0.015737
459.3516	0.013796
459.5723	0.015779
459.7931	0.014703
460.0138	0.014176
460.2346	0.013353
460.4554	0.013226
460.6762	0.012150
460.8970	0.013416
461.1178	0.015020
461.3387	0.013395
461.5595	0.010863
461.7804	0.011559
462.0013	0.013078
462.2222	0.011390
462.4431	0.012129
462.6640	0.013184
462.8849	0.011453
463.1059	0.009892
463.3268	0.009280
463.5478	0.011960
463.7687	0.012530
463.9897	0.010609
464.2107	0.012677
464.4317	0.013247
464.6528	0.012065
464.8738	0.013880
465.0948	0.013226
465.3159	0.011728
465.5370	0.013310
465.7581	0.012487
465.9792	0.012445
466.2003	0.009850
466.4214	0.009934
466.6425	0.011538
466.8637	0.010103
467.0848	0.010229
467.3060	0.009596
467.5272	0.008605
467.7484	0.010103
467.9696	0.008140
468.1908	0.009470
468.4120	0.008837
468.6333	0.008731
468.8545	0.008204
469.0758	0.008436
469.2970	0.010061
469.5183	0.008288
469.7396	0.008225
469.9610	0.007824
470.1823	0.008077
470.4036	0.006325
470.6250	0.006959
470.8463	0.007655
471.0677	0.006705
471.2891	0.006368
471.5105	0.007022
471.7319	0.009174
471.9533	0.006705
472.1748	0.007613
472.3962	0.005692
472.6177	0.007486
472.8391	0.006220
473.0606	0.007718
473.2821	0.006262
473.5036	0.006220
473.7251	0.007022
473.9467	0.007592
474.1682	0.007317
474.3898	0.005650
474.6113	0.006959
474.8329	0.007212
475.0545	0.007655
475.2761	0.006473
475.4977	0.005903
475.7193	0.006283
475.9410	0.005692
476.1626	0.005882
476.3843	0.006959
476.6060	0.006009
476.8277	0.005756
477.0494	0.006515
477.2711	0.005903
477.4928	0.005967
477.7145	0.005418
477.9363	0.004869
478.1580	0.006558
478.3798	0.005397
478.6016	0.004532
478.8234	0.005228
479.0452	0.003645
479.2670	0.006009
479.4888	0.006114
479.7107	0.005735
479.9325	0.005228
480.1544	0.005524
480.3763	0.005650
480.5982	0.006325
480.8201	0.005228
481.0420	0.005376
481.2639	0.005038
481.4859	0.005882
481.7078	0.004701
481.9298	0.005524
482.1517	0.005671
482.3737	0.004595
482.5957	0.005228
482.8177	0.006283
483.0398	0.004384
483.2618	0.005587
483.4838	0.004891
483.7059	0.005502
483.9280	0.003962
484.1501	0.005249
484.3721	0.005313
484.5943	0.006937
484.8164	0.004405
485.0385	0.005903
485.2606	0.004785
485.4828	0.005439
485.7050	0.010968
485.9271	0.014387
486.1493	0.016286
486.3715	0.012783
486.5937	0.011664
486.8160	0.007803
487.0382	0.007001
487.2605	0.008394
487.4827	0.006325
487.7050	0.003160
487.9273	0.003266
488.1496	0.004785
488.3719	0.004363
488.5942	0.003055
488.8165	0.003392
489.0389	0.003181
489.2612	0.003498
489.4836	0.003983
489.7060	0.005102
489.9284	0.004447
490.1508	0.003434
490.3732	0.002464
490.5956	0.003962
490.8180	0.003814
491.0405	0.003667
491.2630	0.004110
491.4854	0.001999
491.7079	0.002611
491.9304	0.002780
492.1529	0.003223
492.3755	0.003477
492.5980	0.001978
492.8205	0.002548
493.0431	0.003561
493.2657	0.003055
493.4882	0.003308
493.7108	0.002633
493.9334	0.003033
494.1561	0.003645
494.3787	0.002738
494.6013	0.003477
494.8240	0.003012
495.0466	0.002042
495.2693	0.002590
495.4920	0.002696
495.7147	0.003245
495.9374	0.002422
496.1601	0.002865
496.3829	0.002970
496.6056	0.003603
496.8284	0.003434
497.0511	0.003160
497.2739	0.001725
497.4967	0.001978
497.7195	0.001894
497.9423	0.002105
498.1652	0.003012
498.3880	0.002907
498.6109	0.002759
498.8337	0.002084
499.0566	0.002021
499.2795	0.003097
499.5024	0.003076
499.7253	0.004426
499.9482	0.003434
500.1712	0.002084
500.3941	0.001050
500.6171	0.002675
500.8400	0.001704
501.0630	0.003983
501.2860	0.001198
501.5090	0.002780
501.7320	0.002569
501.9551	0.002105
502.1781	0.002548
502.4012	0.002548
502.6242	0.001999
502.8473	0.002422
503.0704	0.002527
503.2935	0.001704
503.5166	0.002506
503.7397	0.002675
503.9628	0.001894
504.1860	0.002210
504.4092	0.001577
504.6323	0.001240
504.8555	0.003308
505.0787	0.002379
505.3019	0.001261
505.5251	0.002928
505.7483	0.002907
505.9716	0.001261
506.1948	0.001071
506.4181	0.002633
506.6414	0.001493
506.8647	0.002548
507.0880	0.001746
507.3113	0.002485
507.5346	0.002358
507.7579	0.002422
507.9813	0.002084
508.2046	0.002337
508.4280	0.002400
508.6514	0.003329
508.8748	0.002780
509.0982	0.001620
509.3216	0.001936
509.5450	0.001957
509.7685	0.002147
509.9919	0.001092
510.2154	0.001535
510.4388	0.002422
510.6623	0.003266
510.8858	0.002569
511.1093	0.002801
511.3329	0.002949
511.5564	0.002084
511.7799	0.002548
512.0035	0.002506
512.2270	0.003097
512.4506	0.002548
512.6742	0.002611
512.8978	0.002422
513.1214	0.000860
513.3451	0.001915
513.5687	0.003118
513.7923	0.001219
514.0160	0.002337
514.2397	0.000522
514.4634	0.002358
514.6871	0.002042
514.9108	0.002210
515.1345	0.001493
515.3582	0.001535
515.5819	0.002232
515.8057	0.002358
516.0295	0.002042
516.2532	0.002991
516.4770	0.002527
516.7008	0.003519
516.9246	0.002548
517.1485	0.003371
517.3723	0.003033
517.5961	0.002210
517.8200	0.002358
518.0439	0.003202
518.2677	0.001409
518.4916	0.002189
518.7155	0.002548
518.9395	0.002021
519.1634	0.001936
519.3873	0.002274
519.6113	0.003076
519.8352	0.002464
520.0592	0.002021
520.2832	0.001704
520.5072	0.002738
520.7312	0.001303
520.9552	0.002822
521.1792	0.002021
521.4033	0.001134
521.6273	0.001810
521.8514	0.002485
522.0755	0.002506
522.2996	0.002422
522.5237	0.003139
522.7478	0.003033
522.9719	0.001577
523.1960	0.003012
523.4202	0.002126
523.6443	0.003287
523.8685	0.002506
524.0927	0.003519
524.3169	0.001852
524.5411	0.003202
524.7653	0.002358
524.9895	0.001831
525.2138	0.003033
525.4380	0.003033
525.6623	0.003709
525.8865	0.003688
526.1108	0.002928
526.3351	0.003835
526.5594	0.002590
526.7837	0.003814
527.0081	0.003540
527.2324	0.003012
527.4568	0.003371
527.6811	0.003202
527.9055	0.003434
528.1299	0.003202
528.3543	0.001725
528.5787	0.004152
528.8031	0.004806
529.0276	0.003329
529.2520	0.003434
529.4765	0.003983
529.7009	0.004490
529.9254	0.003772
530.1499	0.004363
530.3744	0.004279
530.5989	0.002422
530.8234	0.003055
531.0480	0.002506
531.2725	0.004342
531.4971	0.004447
531.7217	0.004511
531.9462	0.002147
532.1708	0.004827
532.3954	0.002717
532.6200	0.005355
532.8447	0.004279
533.0693	0.004363
533.2940	0.005714
533.5186	0.004891
533.7433	0.004300
533.9680	0.006262
534.1927	0.004658
534.4174	0.005270
534.6421	0.005798
534.8668	0.006368
535.0916	0.005144
535.3163	0.006832
535.5411	0.006663
535.7659	0.004743
535.9907	0.006726
536.2155	0.007212
536.4403	0.006536
536.6651	0.006621
536.8899	0.005988
537.1148	0.006726
537.3396	0.008330
537.5645	0.007549
537.7894	0.005840
538.0143	0.007739
538.2392	0.007001
538.4641	0.007338
538.6890	0.007887
538.9139	0.007950
539.1389	0.008647
539.3638	0.007908
539.5888	0.007697
539.8138	0.009090
540.0388	0.008963
540.2638	0.007676
540.4888	0.008562
540.7138	0.007782
540.9389	0.008541
541.1639	0.007845
541.3890	0.007993
541.6140	0.007296
541.8391	0.009111
542.0642	0.008858
542.2893	0.009449
542.5144	0.010272
542.7396	0.010335
542.9647	0.009090
543.1899	0.008963
543.4150	0.009850
543.6402	0.011200
543.8654	0.009723
544.0906	0.011242
544.3158	0.011327
544.5410	0.010377
544.7662	0.011327
544.9915	0.011559
545.2167	0.011728
545.4420	0.010863
545.6673	0.011411
545.8926	0.011285
546.1179	0.011010
546.3432	0.010018
546.5685	0.009934
546.7938	0.011306
547.0192	0.010166
547.2445	0.013226
547.4699	0.013521
547.6953	0.012698
547.9206	0.015442
548.1460	0.016708
548.3715	0.016455
548.5969	0.014745
548.8223	0.013627
549.0478	0.013226
549.2732	0.012234
549.4987	0.013521
549.7242	0.015315
549.9496	0.014197
550.1751	0.014429
550.4007	0.014176
550.6262	0.013015
550.8517	0.015421
551.0773	0.014956
551.3028	0.013606
551.5284	0.014239
551.7540	0.014851
551.9796	0.015716
552.2052	0.015400
552.4308	0.017995
552.6564	0.017679
552.8820	0.017214
553.1077	0.018797
553.3333	0.017489
553.5590	0.017742
553.7847	0.018734
554.0104	0.018692
554.2361	0.017995
554.4618	0.017299
554.6875	0.019261
554.9132	0.016455
555.1390	0.019472
555.3648	0.019346
555.5905	0.020570
555.8163	0.018122
556.0421	0.019536
556.2679	0.020654
556.4937	0.020781
556.7195	0.018734
556.9454	0.019472
557.1712	0.020844
557.3971	0.020211
557.6230	0.019747
557.8488	0.019937
558.0747	0.021034
558.3006	0.019937
558.5266	0.020654
558.7525	0.019219
558.9784	0.019578
559.2044	0.019641
559.4303	0.019979
559.6563	0.022849
559.8823	0.023630
560.1083	0.022722
560.3343	0.024727
560.5603	0.026732
560.7863	0.026099
561.0124	0.027280
561.2384	0.028568
561.4645	0.028103
561.6905	0.025676
561.9166	0.027301
562.1427	0.026774
562.3688	0.028040
562.5949	0.026753
562.8211	0.027913
563.0472	0.026858
563.2733	0.028082
563.4995	0.026310
563.7257	0.028103
563.9519	0.028293
564.1781	0.029433
564.4043	0.029749
564.6305	0.031775
564.8567	0.029538
565.0829	0.030889
565.3092	0.033294
565.5355	0.031079
565.7617	0.029855
565.9880	0.031902
566.2143	0.032577
566.4406	0.033337
566.6669	0.034202
566.8932	0.035067
567.1196	0.035320
567.3459	0.041799
567.5723	0.042854
567.7987	0.044415
568.0250	0.043255
568.2514	0.045724
568.4778	0.047623
568.7043	0.051611
568.9307	0.055199
569.1571	0.058406
569.3836	0.059926
569.6100	0.068578
569.8365	0.074887
570.0630	0.077314
570.2895	0.079488
570.5160	0.079931
570.7425	0.082442
570.9690	0.088435
571.1956	0.095040
571.4221	0.097362
571.6487	0.101772
571.8752	0.103397
572.1018	0.107491
572.3284	0.107491
572.5550	0.100084
572.7816	0.091938
573.0082	0.091158
573.2349	0.097024
573.4615	0.110825
573.6882	0.119182
573.9149	0.116375
574.1415	0.124668
574.3682	0.129311
574.5949	0.133194
574.8216	0.137161
575.0484	0.134143
575.2751	0.139335
575.5018	0.137520
575.7286	0.130957
575.9554	0.123993
576.1821	0.124584
576.4089	0.126167
576.6357	0.132666
576.8626	0.141170
577.0894	0.145855
577.3162	0.150055
577.5431	0.151912
577.7699	0.171263
577.9968	0.194919
578.2237	0.190782
578.4505	0.179535
578.6774	0.168498
578.9044	0.155963
579.1313	0.149569
579.3582	0.151827
579.5851	0.160078
579.8121	0.163729
580.0391	0.161049
580.2660	0.164151
580.4930	0.163096
580.7200	0.157251
580.9470	0.159783
581.1741	0.188398
581.4011	0.234127
581.6281	0.259366
581.8552	0.256411
582.0822	0.248751
582.3093	0.242167
582.5364	0.221423
582.7635	0.207221
582.9906	0.188862
583.2177	0.177256
583.4449	0.162315
583.6720	0.153431
583.8991	0.144673
584.1263	0.148535
584.3535	0.154549
584.5807	0.155372
584.8079	0.161239
585.0351	0.177467
585.2623	0.186393
585.4895	0.188060
585.7167	0.187364
585.9440	0.182489
586.1713	0.170482
586.3985	0.158327
586.6258	0.155647
586.8531	0.158875
587.0804	0.168498
587.3077	0.176939
587.5350	0.182236
587.7624	0.178290
587.9897	0.172402
588.2171	0.162653
588.4445	0.159952
588.6718	0.157061
588.8992	0.150456
589.1266	0.137625
589.3540	0.131316
589.5815	0.127602
589.8089	0.124816
590.0363	0.127391
590.2638	0.123740
590.4913	0.122368
590.7187	0.113020
590.9462	0.107744
591.1737	0.102764
591.4012	0.102468
591.6288	0.107428
591.8563	0.105655
592.0838	0.101772
592.3114	0.108884
592.5389	0.124394
592.7665	0.143893
592.9941	0.159572
593.2217	0.164235
593.4493	0.162969
593.6769	0.161281
593.9046	0.153515
594.1322	0.148345
594.3598	0.136380
594.5875	0.134903
594.8152	0.142500
595.0429	0.153937
595.2705	0.159044
595.4983	0.151701
595.7260	0.147185
595.9537	0.136169
596.1814	0.125913
596.4092	0.122136
596.6369	0.116270
596.8647	0.110297
597.0925	0.113695
597.3203	0.120448
597.5481	0.119773
597.7759	0.118443
598.0037	0.116734
598.2315	0.109601
598.4594	0.112239
598.6872	0.124732
598.9151	0.140706
599.1430	0.148852
599.3709	0.147839
599.5988	0.142162
599.8267	0.141614
600.0546	0.142690
600.2825	0.150772
600.5105	0.151215
600.7384	0.145665
600.9664	0.148092
601.1944	0.147944
601.4223	0.143745
601.6503	0.138343
601.8783	0.134776
602.1064	0.138068
602.3344	0.134481
602.5624	0.132265
602.7905	0.135030
603.0185	0.138322
603.2466	0.142289
603.4747	0.149464
603.7028	0.153389
603.9309	0.146446
604.1590	0.139862
604.3871	0.134375
604.6152	0.130999
604.8434	0.124689
605.0715	0.121060
605.2997	0.129079
605.5279	0.132540
605.7561	0.138279
605.9843	0.137731
606.2125	0.138533
606.4407	0.131780
606.6689	0.124352
606.8972	0.126082
607.1254	0.125027
607.3537	0.128045
607.5819	0.127053
607.8102	0.124267
608.0385	0.122431
608.2668	0.119372
608.4951	0.120342
608.7235	0.113336
608.9518	0.118042
609.1801	0.114012
609.4085	0.109643
609.6369	0.106056
609.8653	0.109981
610.0936	0.117261
610.3220	0.122263
610.5505	0.117071
610.7789	0.113843
611.0073	0.112555
611.2357	0.108673
611.4642	0.112619
611.6927	0.110888
611.9211	0.114096
612.1496	0.107259
612.3781	0.104811
612.6066	0.102806
612.8351	0.103017
613.0637	0.103481
613.2922	0.101181
613.5208	0.098733
613.7493	0.103080
613.9779	0.102279
614.2065	0.101118
614.4351	0.103017
614.6637	0.100675
614.8923	0.100801
615.1209	0.103207
615.3495	0.104262
615.5782	0.104642
615.8068	0.106394
616.0355	0.103608
616.2642	0.100696
616.4929	0.093120
616.7216	0.089912
616.9503	0.089807
617.1790	0.089026
617.4077	0.088203
617.6365	0.089617
617.8652	0.089912
618.0940	0.086747
618.3227	0.085987
618.5515	0.083835
618.7803	0.078116
619.0091	0.074909
619.2379	0.073621
619.4667	0.072777
619.6956	0.070561
619.9244	0.074845
620.1533	0.079572
620.3821	0.079045
620.6110	0.075584
620.8399	0.068430
621.0688	0.063619
621.2977	0.060179
621.5266	0.057921
621.7556	0.061509
621.9845	0.066109
622.2135	0.067143
622.4424	0.069338
622.6714	0.069211
622.9004	0.069443
623.1294	0.073832
623.3584	0.071363
623.5874	0.072777
623.8164	0.068557
624.0454	0.068599
624.2745	0.070161
624.5035	0.074022
624.7326	0.073368
624.9617	0.074634
625.1908	0.067227
625.4199	0.068704
625.6490	0.066658
625.8781	0.063914
626.1072	0.062416
626.3364	0.061593
626.5655	0.057816
626.7947	0.056993
627.0238	0.056444
627.2530	0.058343
627.4822	0.058195
627.7114	0.057647
627.9406	0.055494
628.1698	0.055199
628.3991	0.045597
628.6283	0.046167
628.8576	0.048699
629.0868	0.047539
629.3161	0.051717
629.5454	0.049206
629.7747	0.054123
630.0040	0.049543
630.2333	0.049353
630.4626	0.048847
630.6920	0.046652
630.9213	0.045914
631.1507	0.044289
631.3801	0.044226
631.6094	0.041925
631.8388	0.042558
632.0682	0.042010
632.2976	0.042369
632.5271	0.039351
632.7565	0.038085
632.9859	0.036671
633.2154	0.036819
633.4448	0.037916
633.6743	0.037578
633.9038	0.034666
634.1333	0.037051
634.3628	0.033801
634.5923	0.033949
634.8218	0.032619
635.0514	0.033105
635.2809	0.034497
635.5105	0.033358
635.7400	0.034751
635.9696	0.034877
636.1992	0.034350
636.4288	0.037726
636.6584	0.036354
636.8880	0.036755
637.1177	0.035848
637.3473	0.035299
637.5770	0.036544
637.8066	0.033337
638.0363	0.034392
638.2660	0.034223
638.4957	0.034518
638.7254	0.033484
638.9551	0.036692
639.1848	0.033105
639.4145	0.031543
639.6443	0.032588
639.8740	0.031044
640.1038	0.030114
640.3336	0.031337
640.5633	0.028329
640.7931	0.030430
641.0229	0.028137
641.2528	0.028993
641.4826	0.029129
641.7124	0.027842
641.9423	0.025784
642.1721	0.026185
642.4020	0.025370
642.6319	0.023837
642.8617	0.024742
643.0916	0.024699
643.3216	0.026803
643.5515	0.024832
643.7814	0.025220
644.0113	0.023912
644.2413	0.023171
644.4712	0.022274
644.7012	0.023043
644.9312	0.021401
645.1612	0.024211
645.3912	0.022405
645.6212	0.022037
645.8512	0.021964
646.0812	0.022118
646.3113	0.020273
646.5413	0.021720
646.7714	0.020300
647.0015	0.019577
647.2316	0.019006
647.4616	0.018632
647.6918	0.020312
647.9219	0.022093
648.1520	0.024755
648.3821	0.023838
648.6123	0.026584
648.8424	0.026705
649.0726	0.027372
649.3028	0.029275
649.5329	0.029796
649.7631	0.028603
649.9933	0.027033
650.2236	0.025384
650.4538	0.022819
650.6840	0.024442
650.9143	0.021937
651.1445	0.022670
651.3748	0.022577
651.6051	0.022928
651.8354	0.024303
652.0657	0.026262
652.2960	0.023748
652.5263	0.028009
652.7566	0.026881
652.9870	0.027008
653.2173	0.027509
653.4477	0.025886
653.6780	0.026253
653.9084	0.025503
654.1388	0.027691
654.3692	0.027114
654.5996	0.028749
654.8300	0.034179
655.0605	0.047276
655.2909	0.129646
655.5213	0.396073
655.7518	0.786803
655.9823	1.000000
656.2128	1.000000
656.4433	1.000000
656.6738	1.000000
656.9043	0.894574
657.1348	0.710002
657.3653	0.573202
657.5959	0.484778
657.8264	0.429272
658.0570	0.389405
658.2875	0.357679
658.5181	0.321080
658.7487	0.300764
658.9793	0.284813
659.2099	0.236802
659.4406	0.168214
659.6712	0.097945
659.9018	0.058329
660.1325	0.035440
660.3632	0.027973
660.5938	0.023221
660.8245	0.020520
661.0552	0.021473
661.2859	0.019769
661.5166	0.018227
661.7474	0.017804
661.9781	0.018175
662.2088	0.018803
662.4396	0.015968
662.6704	0.018779
662.9011	0.018893
663.1319	0.017630
663.3627	0.017178
663.5935	0.016780
663.8243	0.018137
664.0552	0.018858
664.2860	0.018841
664.5168	0.017918
664.7477	0.018861
664.9786	0.017824
665.2094	0.021376
665.4403	0.019654
665.6712	0.022025
665.9021	0.018239
666.1330	0.017754
666.3640	0.018343
666.5949	0.018520
666.8259	0.018012
667.0568	0.018061
667.2878	0.017091
667.5188	0.017577
667.7497	0.016669
667.9807	0.016722
668.2117	0.016804
668.4428	0.018248
668.6738	0.015695
668.9048	0.019325
669.1359	0.016961
669.3669	0.017658
669.5980	0.017362
669.8291	0.016813
670.0602	0.017974
670.2913	0.017742
670.5224	0.019029
670.7535	0.018586
670.9846	0.019198
671.2157	0.018945
671.4469	0.020359
671.6781	0.024579
671.9092	0.024959
672.1404	0.026795
672.3716	0.028504
672.6028	0.029834
672.8340	0.029264
673.0652	0.027723
673.2964	0.023376
673.5277	0.024980
673.7589	0.025149
673.9902	0.024706
674.2214	0.022828
674.4527	0.021118
674.6840	0.022954
674.9153	0.023081
675.1466	0.022427
675.3779	0.023334
675.6093	0.021308
675.8406	0.021287
676.0719	0.021730
676.3033	0.019810
676.5347	0.020359
676.7661	0.018818
676.9974	0.018312
677.2288	0.019325
677.4602	0.019578
677.6917	0.023355
677.9231	0.023039
678.1545	0.023060
678.3860	0.022933
678.6174	0.024685
678.8489	0.024199
679.0804	0.027365
679.3119	0.026014
679.5434	0.028589
679.7749	0.030340
680.0064	0.029053
680.2379	0.027892
680.4694	0.027934
680.7010	0.029137
680.9325	0.026394
681.1641	0.028821
681.3957	0.027745
681.6273	0.030382
681.8589	0.029201
682.0905	0.027512
682.3221	0.025170
682.5537	0.024811
682.7854	0.025128
683.0170	0.025276
683.2487	0.025676
683.4803	0.025634
683.7120	0.026225
683.9437	0.025444
684.1754	0.028673
684.4071	0.027977
684.6388	0.031522
684.8705	0.029095
685.1023	0.030973
685.3340	0.035173
685.5658	0.038190
685.7975	0.035953
686.0293	0.037367
686.2611	0.035130
686.4929	0.035595
686.7247	0.035806
686.9565	0.036797
687.1883	0.036481
687.4202	0.037009
687.6520	0.034793
687.8838	0.034940
688.1157	0.033949
688.3476	0.032134
688.5795	0.031079
688.8114	0.029770
689.0433	0.030340
689.2752	0.029918
689.5071	0.029053
689.7390	0.031881
689.9710	0.030657
690.2029	0.028356
690.4349	0.027407
690.6669	0.026795
690.8988	0.029538
691.1308	0.030952
691.3628	0.030593
691.5948	0.028631
691.8269	0.031248
692.0589	0.031079
692.2909	0.031311
692.5230	0.031923
692.7550	0.032218
692.9871	0.031881
693.2192	0.032493
693.4513	0.033083
693.6834	0.029306
693.9155	0.030214
694.1476	0.029011
694.3797	0.029707
694.6119	0.028103
694.8440	0.027512
695.0762	0.029327
695.3083	0.028842
695.5405	0.026753
695.7727	0.024157
696.0049	0.024368
696.2371	0.024284
696.4693	0.024642
696.7016	0.030551
696.9338	0.033105
697.1660	0.032725
697.3983	0.032387
697.6306	0.032556
697.8628	0.028568
698.0951	0.032092
698.3274	0.031163
698.5597	0.030910
698.7920	0.031100
699.0243	0.030256
699.2567	0.029137
699.4890	0.028082
699.7214	0.027154
699.9537	0.027745
700.1861	0.026457
700.4185	0.024727
700.6509	0.026668
700.8833	0.024621
701.1157	0.023608
701.3481	0.022216
701.5806	0.022511
701.8130	0.023693
702.0454	0.024959
702.2779	0.023946
702.5104	0.025887
702.7429	0.026647
702.9753	0.025212
703.2078	0.024220
703.4403	0.023714
703.6729	0.023102
703.9054	0.022743
704.1379	0.021182
704.3705	0.023144
704.6030	0.023102
704.8356	0.020760
705.0682	0.021182
705.3008	0.020950
705.5334	0.018481
705.7660	0.020570
705.9986	0.020127
706.2312	0.022638
706.4638	0.026183
706.6965	0.027280
706.9291	0.028040
707.1618	0.030150
707.3945	0.032387
707.6272	0.031311
707.8599	0.031163
708.0926	0.030509
708.3253	0.029897
708.5580	0.030783
708.7907	0.029222
709.0235	0.031775
709.2562	0.028314
709.4890	0.026267
709.7217	0.028652
709.9545	0.028230
710.1873	0.027745
710.4201	0.026373
710.6529	0.028610
710.8857	0.029116
711.1186	0.024980
711.3514	0.025845
711.5842	0.026478
711.8171	0.025402
712.0500	0.022891
712.2828	0.023693
712.5157	0.023207
712.7486	0.024769
712.9815	0.025655
713.2144	0.024115
713.4474	0.025571
713.6803	0.027745
713.9132	0.028947
714.1462	0.029285
714.3791	0.029243
714.6121	0.030403
714.8451	0.027491
715.0781	0.028926
715.3111	0.029137
715.5441	0.028209
715.7771	0.026352
716.0102	0.028356
716.2432	0.022764
716.4762	0.025170
716.7093	0.024263
716.9424	0.024052
717.1754	0.023060
717.4085	0.023904
717.6416	0.020380
717.8747	0.021941
718.1078	0.024263
718.3410	0.022448
718.5741	0.020992
718.8072	0.021055
719.0404	0.023271
719.2736	0.023566
719.5067	0.023756
719.7399	0.023039
719.9731	0.023967
720.2063	0.025064
720.4395	0.022110
720.6727	0.023081
720.9060	0.023250
721.1392	0.024220
721.3725	0.024980
721.6057	0.023482
721.8390	0.024474
722.0723	0.023946
722.3055	0.024220
722.5388	0.023376
722.7721	0.024220
723.0055	0.022574
723.2388	0.021836
723.4721	0.023355
723.7055	0.022574
723.9388	0.023777
724.1722	0.023904
724.4056	0.022300
724.6389	0.021266
724.8723	0.023102
725.1057	0.025022
725.3391	0.025845
725.5726	0.027470
725.8060	0.027829
726.0394	0.028061
726.2729	0.030741
726.5063	0.027745
726.7398	0.028757
726.9733	0.024875
727.2068	0.024959
727.4403	0.025845
727.6738	0.027027
727.9073	0.026816
728.1408	0.025655
728.3743	0.028314
728.6079	0.029285
728.8414	0.029412
729.0750	0.027365
729.3086	0.028420
729.5421	0.029960
729.7757	0.031374
730.0093	0.029707
730.2429	0.030657
730.4766	0.031775
730.7102	0.032915
730.9438	0.034624
731.1775	0.035004
731.4111	0.035363
731.6448	0.035848
731.8785	0.035426
732.1122	0.033843
732.3458	0.036164
732.5795	0.037241
732.8133	0.034983
733.0470	0.036143
733.2807	0.036418
733.5145	0.036186
733.7482	0.036755
733.9820	0.038169
734.2157	0.041630
734.4495	0.044289
734.6833	0.043888
734.9171	0.042073
735.1509	0.039393
735.3847	0.036565
735.6185	0.041102
735.8524	0.039393
736.0862	0.039900
736.3201	0.039203
736.5539	0.041419
736.7878	0.037663
737.0217	0.039836
737.2556	0.041356
737.4895	0.038760
737.7234	0.037473
737.9573	0.037409
738.1912	0.033316
738.4252	0.034962
738.6591	0.035236
738.8931	0.034265
739.1271	0.037114
739.3610	0.039815
739.5950	0.039182
739.8290	0.036080
740.0630	0.036987
740.2970	0.036143
740.5310	0.034434
740.7651	0.032260
740.9991	0.031944
741.2332	0.031205
741.4672	0.029623
741.7013	0.028335
741.9354	0.025086
742.1695	0.027027
742.4036	0.029243
742.6377	0.029137
742.8718	0.028757
743.1059	0.028356
743.3400	0.027660
743.5742	0.024875
743.8083	0.025086
744.0425	0.023862
744.2767	0.025170
744.5108	0.023841
744.7450	0.023756
744.9792	0.025402
745.2134	0.023018
745.4477	0.022764
745.6819	0.024706
745.9161	0.023693
746.1504	0.023039
746.3846	0.022237
746.6189	0.021625
746.8532	0.021688
747.0874	0.024094
747.3217	0.026922
747.5560	0.026225
747.7903	0.024769
748.0247	0.024790
748.2590	0.025909
748.4933	0.021604
748.7277	0.023292
748.9620	0.024790
749.1964	0.024727
749.4308	0.025782
749.6652	0.027956
749.8995	0.029496
750.1339	0.030868
750.3684	0.032661
750.6028	0.035974
750.8372	0.032936
751.0717	0.031606
751.3061	0.031163
751.5406	0.032514
751.7750	0.034160
752.0095	0.033105
752.2440	0.033759
752.4785	0.031184
752.7130	0.031606
752.9475	0.029939
753.1820	0.029728
753.4166	0.028441
753.6511	0.033653
753.8856	0.034202
754.1202	0.035236
754.3548	0.031965
754.5894	0.033231
754.8239	0.031754
755.0585	0.036333
755.2931	0.034265
755.5278	0.034054
755.7624	0.034624
755.9970	0.032577
756.2317	0.036840
756.4663	0.040701
756.7010	0.040364
756.9356	0.043255
757.1703	0.042263
757.4050	0.045365
757.6397	0.048045
757.8744	0.049206
758.1091	0.050176
758.3438	0.046441
758.5786	0.044795
758.8133	0.044183
759.0481	0.044880
759.2828	0.047665
759.5176	0.045935
759.7524	0.049121
759.9872	0.048995
760.2220	0.048720
760.4568	0.051168
760.6916	0.050683
760.9264	0.050999
761.1613	0.050683
761.3961	0.049564
761.6310	0.046230
761.8658	0.041229
762.1007	0.042347
762.3356	0.042769
762.5705	0.039245
762.8054	0.039921
763.0403	0.040554
763.2752	0.039541
763.5101	0.040807
763.7450	0.040132
763.9800	0.042685
764.2149	0.042664
764.4499	0.045091
764.6849	0.049227
764.9198	0.048509
765.1548	0.047264
765.3898	0.046716
765.6248	0.043804
765.8599	0.042812
766.0949	0.043339
766.3299	0.038528
766.5650	0.036861
766.8000	0.033337
767.0351	0.034835
767.2701	0.031100
767.5052	0.031501
767.7403	0.030825
767.9754	0.033674
768.2105	0.034392
768.4456	0.037198
768.6808	0.039013
768.9159	0.037051
769.1510	0.038760
769.3862	0.036882
769.6214	0.036418
769.8565	0.036207
770.0917	0.036608
770.3269	0.034793
770.5621	0.039309
770.7973	0.039435
771.0325	0.039562
771.2677	0.039478
771.5030	0.038211
771.7382	0.036017
771.9735	0.035067
772.2087	0.033695
772.4440	0.034751
772.6793	0.033294
772.9146	0.033717
773.1499	0.034012
773.3852	0.032809
773.6205	0.031501
773.8558	0.031058
774.0911	0.030783
774.3265	0.027048
774.5618	0.026732
774.7972	0.026626
775.0326	0.026563
775.2679	0.022089
775.5033	0.023271
775.7387	0.021393
775.9741	0.021308
776.2095	0.022891
776.4450	0.020042
776.6804	0.021920
776.9158	0.019578
777.1513	0.020338
777.3868	0.019873
777.6222	0.019177
777.8577	0.021182
778.0932	0.020380
778.3287	0.021920
778.5642	0.022427
778.7997	0.024431
779.0352	0.023777
779.2707	0.024769
779.5063	0.029665
779.7418	0.027702
779.9774	0.023988
780.2130	0.026225
780.4485	0.023397
780.6841	0.022596
780.9197	0.024453
781.1553	0.024579
781.3909	0.031205
781.6265	0.028757
781.8622	0.029179
782.0978	0.028546
782.3335	0.026900
782.5691	0.028378
782.8048	0.027111
783.0405	0.027787
783.2761	0.028314
783.5118	0.028378
783.7475	0.027850
783.9832	0.026816
784.2190	0.026647
784.4547	0.024094
784.6904	0.022701
784.9262	0.024495
785.1619	0.023777
785.3977	0.023904
785.6335	0.023714
785.8692	0.023988
786.1050	0.023524
786.3408	0.023946
786.5766	0.023714
786.8124	0.022511
787.0483	0.021962
787.2841	0.022321
787.5199	0.024136
787.7558	0.023714
787.9917	0.025740
788.2275	0.023925
788.4634	0.023630
788.6993	0.025064
788.9352	0.027322
789.1711	0.024980
789.4070	0.025824
789.6429	0.023397
789.8789	0.022954
790.1148	0.021920
790.3507	0.021751
790.5867	0.021519
790.8227	0.020464
791.0586	0.019979
791.2946	0.020000
791.5306	0.019683
791.7666	0.020549
792.0026	0.018649
792.2387	0.017320
792.4747	0.018987
792.7107	0.016982
792.9468	0.017953
793.1828	0.018523
793.4189	0.017383
793.6550	0.019515
793.8910	0.020781
794.1271	0.026858
794.3632	0.025360
794.5993	0.025761
794.8355	0.026563
795.0716	0.024474
795.3077	0.025107
795.5439	0.025508
795.7800	0.024832
796.0162	0.022005
796.2523	0.019557
796.4885	0.020211
796.7247	0.017658
796.9609	0.016349
797.1971	0.017383
797.4333	0.019198
797.6695	0.018354
797.9058	0.019641
798.1420	0.020464
798.3783	0.018586
798.6145	0.018333
798.8508	0.019683
799.0871	0.018924
799.3233	0.018375
799.5596	0.018269
799.7959	0.017489
800.0322	0.015716
800.2686	0.016054
800.5049	0.017109
800.7412	0.015885
800.9776	0.015737
801.2139	0.016391
801.4503	0.016940
801.6867	0.014555
801.9230	0.014366
802.1594	0.014302
802.3958	0.013057
802.6322	0.012509
802.8686	0.013732
803.1051	0.014471
803.3415	0.014534
803.5779	0.015568
803.8144	0.014007
804.0508	0.014555
804.2873	0.015421
804.5238	0.015442
804.7603	0.013353
804.9968	0.014513
805.2333	0.014281
805.4698	0.014133
805.7063	0.013648
805.9428	0.017468
806.1794	0.017615
806.4159	0.018248
806.6525	0.020591
806.8890	0.020042
807.1256	0.020738
807.3622	0.018797
807.5988	0.018333
807.8354	0.019683
808.0720	0.018734
808.3086	0.017911
808.5452	0.019092
808.7818	0.019135
809.0185	0.018185
809.2551	0.017235
809.4918	0.017151
809.7284	0.015210
809.9651	0.017700
810.2018	0.015400
810.4385	0.014049
810.6752	0.016117
810.9119	0.014155
811.1486	0.013986
811.3853	0.016560
811.6221	0.015885
811.8588	0.013817
812.0956	0.013901
812.3323	0.012129
812.5691	0.012487
812.8059	0.012002
813.0427	0.011833
813.2795	0.011474
813.5163	0.012635
813.7531	0.014598
813.9899	0.016328
814.2267	0.016201
814.4636	0.014619
814.7004	0.013142
814.9373	0.014302
815.1742	0.013585
815.4110	0.012888
815.6479	0.012255
815.8848	0.012403
816.1217	0.011369
816.3586	0.011833
816.5955	0.010504
816.8324	0.011221
817.0694	0.012255
817.3063	0.012424
817.5433	0.011496
817.7802	0.012023
818.0172	0.012846
818.2542	0.012487
818.4912	0.011263
818.7282	0.011200
818.9652	0.009322
819.2022	0.010757
819.4392	0.010103
819.6762	0.009807
819.9133	0.009955
820.1503	0.011010
820.3874	0.011559
820.6244	0.012783
820.8615	0.013142
821.0986	0.012656
821.3357	0.012825
821.5727	0.012720
821.8099	0.013036
822.0470	0.011939
822.2841	0.010947
822.5212	0.011031
822.7584	0.010356
822.9955	0.009892
823.2327	0.008626
823.4698	0.008837
823.7070	0.009238
823.9442	0.008794
824.1814	0.008900
824.4186	0.009174
824.6558	0.009069
824.8930	0.008668
825.1302	0.009702
825.3675	0.010609
825.6047	0.010863
825.8419	0.010799
826.0792	0.011390
826.3165	0.011052
826.5537	0.010251
826.7910	0.009976
827.0283	0.011285
827.2656	0.012129
827.5029	0.012783
827.7402	0.010082
827.9776	0.009027
828.2149	0.009681
828.4522	0.011158
828.6896	0.010187
828.9270	0.011749
829.1643	0.011749
829.4017	0.009871
829.6391	0.010272
829.8765	0.009807
830.1139	0.009385
830.3513	0.009027
830.5887	0.008267
830.8261	0.008457
831.0636	0.007359
831.3010	0.007486
831.5385	0.007359
831.7759	0.006558
832.0134	0.006051
832.2509	0.007444
832.4884	0.006262
832.7259	0.004954
832.9634	0.008056
833.2009	0.008098
833.4384	0.006916
833.6759	0.006916
833.9135	0.008647
834.1510	0.008647
834.3886	0.008436
834.6261	0.007950
834.8637	0.009364
835.1013	0.009660
835.3389	0.007571
835.5765	0.007676
835.8141	0.008668
836.0517	0.007887
836.2893	0.007402
836.5269	0.008161
836.7646	0.007549
837.0022	0.006663
837.2399	0.005840
837.4775	0.006895
837.7152	0.005418
837.9529	0.006262
838.1906	0.005545
838.4283	0.006093
838.6660	0.005988
838.9037	0.004046
839.1414	0.004637
839.3791	0.006558
839.6169	0.005439
839.8546	0.005988
840.0924	0.004827
840.3302	0.005671
840.5679	0.005861
840.8057	0.007381
841.0435	0.004827
841.2813	0.005291
841.5191	0.006009
841.7569	0.003645
841.9947	0.005249
842.2326	0.004912
842.4704	0.004785
842.7082	0.004447
842.9461	0.004447
843.1840	0.003730
843.4218	0.004384
843.6597	0.004764
843.8976	0.003709
844.1355	0.003434
844.3734	0.004194
844.6113	0.005102
844.8492	0.005988
845.0872	0.004933
845.3251	0.004785
845.5631	0.005165
845.8010	0.005376
846.0390	0.006009
846.2770	0.003983
846.5149	0.004025
846.7529	0.003202
846.9909	0.003814
847.2289	0.006220
847.4669	0.002844
847.7050	0.003983
847.9430	0.004068
848.1810	0.004068
848.4191	0.004173
848.6571	0.003983
848.8952	0.003498
849.1333	0.004975
849.3713	0.004975
849.6094	0.002822
849.8475	0.003983
850.0856	0.003413
850.3237	0.003667
850.5619	0.002886
850.8000	0.003561
851.0381	0.002569
851.2763	0.003751
851.5144	0.004553
851.7526	0.004785
851.9908	0.005207
852.2289	0.005017
852.4671	0.004975
852.7053	0.007127
852.9435	0.006895
853.1817	0.008562
853.4200	0.010145
853.6582	0.012466
853.8964	0.010609
854.1347	0.010820
854.3729	0.010335
854.6112	0.009807
854.8495	0.011643
855.0877	0.014429
855.3260	0.011116
855.5643	0.009069
855.8026	0.010272
856.0409	0.012129
856.2792	0.010799
856.5176	0.009470
856.7559	0.010187
856.9942	0.009554
857.2326	0.008963
857.4710	0.008942
857.7093	0.008984
857.9477	0.008921
858.1861	0.008140
858.4245	0.007676
858.6629	0.007001
858.9013	0.009027
859.1397	0.007170
859.3781	0.008520
859.6166	0.006726
859.8550	0.006325
860.0935	0.006536
860.3319	0.006114
860.5704	0.006157
860.8089	0.004447
861.0473	0.007486
861.2858	0.006304
861.5243	0.004574
861.7628	0.005355
862.0013	0.006009
862.2399	0.005502
862.4784	0.004975
862.7169	0.005925
862.9555	0.005059
863.1940	0.005397
863.4326	0.006030
863.6712	0.006811
863.9098	0.004110
864.1483	0.005144
864.3869	0.005376
864.6255	0.003856
864.8642	0.004405
865.1028	0.005650
865.3414	0.005735
865.5800	0.005798
865.8187	0.002717
866.0573	0.003329
866.2960	0.002569
866.5347	0.004363
866.7733	0.003477
867.0120	0.003730
867.2507	0.004764
867.4894	0.003055
867.7281	0.004869
867.9669	0.005270
868.2056	0.004025
868.4443	0.005418
868.6831	0.003772
868.9218	0.004996
869.1606	0.002970
869.3993	0.004426
869.6381	0.003181
869.8769	0.004975
870.1157	0.003350
870.3545	0.003962
870.5933	0.004806
870.8321	0.004194
871.0709	0.004236
871.3097	0.004152
871.5486	0.002400
871.7874	0.002844
872.0263	0.004490
872.2651	0.003751
872.5040	0.004827
872.7429	0.002485
872.9818	0.003287
873.2207	0.004658
873.4596	0.002801
873.6985	0.005355
873.9374	0.003772
874.1763	0.003899
874.4153	0.002801
874.6542	0.005228
874.8932	0.004595
875.1321	0.004279
875.3711	0.004722
875.6101	0.003941
875.8491	0.002844
876.0880	0.004975
876.3270	0.004785
876.5661	0.004975
876.8051	0.005080
877.0441	0.003730
877.2831	0.004616
877.5222	0.005249
877.7612	0.004637
878.0003	0.005207
878.2393	0.005629
878.4784	0.005714
878.7175	0.006347
878.9566	0.005587
879.1957	0.005967
879.4348	0.005270
879.6739	0.005502
879.9130	0.005650
880.1521	0.005735
880.3913	0.006959
880.6304	0.006642
880.8696	0.006684
881.1087	0.007866
881.3479	0.005038
881.5871	0.006726
881.8262	0.004131
882.0654	0.003772
882.3046	0.003181
882.5438	0.003603
882.7831	0.004912
883.0223	0.005840
883.2615	0.004152
883.5007	0.004511
883.7400	0.005249
883.9792	0.003603
884.2185	0.005608
884.4578	0.004131
884.6971	0.004574
884.9363	0.005756
885.1756	0.003856
885.4149	0.005439
885.6542	0.004764
885.8936	0.005798
886.1329	0.004363
886.3722	0.006452
886.6116	0.005439
886.8509	0.005587
887.0903	0.004279
887.3296	0.003160
887.5690	0.004300
887.8084	0.005228
888.0478	0.005882
888.2872	0.005925
888.5266	0.004321
888.7660	0.003920
889.0054	0.003878
889.2448	0.003392
889.4843	0.004701
889.7237	0.005228
889.9632	0.004173
890.2026	0.005249
890.4421	0.003413
890.6816	0.003223
890.9211	0.004679
891.1606	0.005038
891.4001	0.003287
891.6396	0.004405
891.8791	0.004806
892.1186	0.003456
892.3581	0.003477
892.5977	0.004616
892.8372	0.005017
893.0768	0.003540
893.3163	0.003434
893.5559	0.003139
893.7955	0.005587
894.0351	0.003878
894.2747	0.002485
894.5143	0.003266
894.7539	0.004194
894.9935	0.002886
895.2331	0.003477
895.4727	0.004532
895.7124	0.004553
895.9520	0.003962
896.1917	0.002696
896.4314	0.002105
896.6710	0.004236
896.9107	0.004046
897.1504	0.002801
897.3901	0.003350
897.6298	0.004068
897.8695	0.004679
898.1092	0.003477
898.3489	0.004553
898.5887	0.003519
898.8284	0.003371
899.0682	0.003076
899.3079	0.003223
899.5477	0.003645
899.7875	0.003350
900.0272	0.002928
900.2670	0.003878
900.5068	0.001915
900.7466	0.003477
900.9864	0.003941
901.2263	0.003941
901.4661	0.003582
901.7059	0.004257
901.9458	0.003329
902.1856	0.004532
902.4255	0.003624
902.6654	0.004046
902.9052	0.002928
903.1451	0.003160
903.3850	0.002611
903.6249	0.004152
903.8648	0.002316
904.1047	0.003202
904.3446	0.003983
904.5846	0.003202
904.8245	0.003139
905.0644	0.003730
905.3044	0.004553
905.5444	0.003498
905.7843	0.003033
906.0243	0.005439
906.2643	0.004468
906.5043	0.002633
906.7443	0.003730
906.9843	0.003899
907.2243	0.002970
907.4643	0.003519
907.7043	0.003962
907.9444	0.004405
908.1844	0.004194
908.4245	0.002696
908.6645	0.003012
908.9046	0.001746
909.1447	0.002042
909.3847	0.003856
909.6248	0.002865
909.8649	0.002675
910.1050	0.002379
910.3452	0.003181
910.5853	0.003245
910.8254	0.002654
911.0655	0.002274
911.3057	0.002548
911.5458	0.002844
911.7860	0.003434
912.0262	0.003688
912.2663	0.005059
912.5065	0.003603
912.7467	0.002759
912.9869	0.002696
913.2271	0.002168
913.4673	0.002928
913.7075	0.002316
913.9478	0.002506
914.1880	0.002105
914.4283	0.001493
914.6685	0.003624
914.9088	0.001810
915.1490	0.003139
915.3893	0.001198
915.6296	0.001366
915.8699	0.001831
916.1102	0.002548
916.3505	0.003561
916.5908	0.002759
916.8311	0.001535
917.0714	0.002970
917.3118	0.003624
917.5521	0.003688
917.7925	0.003434
918.0328	0.003582
918.2732	0.003097
918.5136	0.003055
918.7539	0.001641
918.9943	0.003308
919.2347	0.002295
919.4751	0.002780
919.7155	0.002717
919.9560	0.003835
920.1964	0.002464
920.4368	0.002295
920.6773	0.002633
920.9177	0.002422
921.1582	0.001831
921.3986	0.002675
921.6391	0.002316
921.8796	0.003033
922.1201	0.002147
922.3606	0.002822
922.6011	0.002274
922.8416	0.002042
923.0821	0.001683
923.3226	0.002358
923.5631	0.001704
923.8037	0.001831
924.0442	0.002633
924.2848	0.001978
924.5254	0.001282
924.7659	0.002633
925.0065	0.002506
925.2471	0.002928
925.4877	0.000881
925.7283	0.001852
925.9689	0.002633
926.2095	0.002844
926.4501	0.000586
926.6908	0.002569
926.9314	0.001936
927.1720	0.001873
927.4127	0.001725
927.6533	0.002928
927.8940	0.001535
928.1347	0.002590
928.3754	0.001303
928.6161	0.001936
928.8568	0.003202
929.0975	0.001535
929.3382	0.002042
929.5789	0.001261
929.8196	0.000944
930.0604	0.002485
930.3011	0.001662
930.5419	0.001282
930.7826	0.001176
931.0234	0.001936
931.2642	0.002907
931.5049	0.002379
931.7457	0.000860
931.9865	0.002738
932.2273	-0.000132
932.4681	0.002527
932.7089	0.001556
932.9498	0.002569
933.1906	0.001176
933.4314	0.002084
933.6723	0.000860
933.9131	0.002928
934.1540	0.003223
934.3949	0.001725
934.6358	0.001746
934.8766	0.001599
935.1175	0.000944
935.3584	0.000691
935.5993	0.000881
935.8403	0.001662
936.0812	0.000311
936.3221	0.001915
936.5630	0.000691
936.8040	0.001894
937.0449	0.001345
937.2859	0.000923
937.5269	-0.000026
937.7678	0.000797
938.0088	-0.000385
938.2498	0.000459
938.4908	0.001387
938.7318	0.001746
938.9728	0.001746
939.2138	0.001641
939.4549	0.001240
939.6959	0.000311
939.9369	0.000923
940.1780	0.000797
940.4190	0.002611
940.6601	0.000248
940.9012	0.001366
941.1422	0.001071
941.3833	0.001092
941.6244	0.000586
941.8655	0.002274
942.1066	0.001451
942.3477	0.001725
942.5889	0.000375
942.8300	0.000227
943.0711	0.000902
943.3123	0.001873
943.5534	0.000037
943.7946	0.000016
944.0357	0.000353
944.2769	0.002527
944.5181	0.000332
944.7593	0.001430
945.0005	-0.001377
945.2417	0.000142
945.4829	0.002295
945.7241	0.001366
945.9653	0.001240
946.2066	-0.000364
946.4478	0.000754
946.6891	0.001514
946.9303	0.000501
947.1716	0.001113
947.4128	0.000353
947.6541	0.000353
947.8954	0.000227
948.1367	0.001324
948.3780	0.002443
948.6193	0.001599
948.8606	-0.000702
949.1019	0.001071
949.3433	0.001409
949.5846	0.002105
949.8259	0.000037
950.0673	0.000733
950.3086	0.000818
950.5500	0.001282
950.7914	0.001240
951.0327	0.002379
951.2741	-0.000364
951.5155	0.001662
951.7569	0.000396
951.9983	0.001746
952.2398	0.001514
952.4812	0.001535
952.7226	0.000628
952.9640	0.000691
953.2055	0.002147
953.4469	0.001050
953.6884	0.002210
953.9299	0.000564
954.1713	0.001198
954.4128	0.002464
954.6543	-0.000195
954.8958	-0.000280
955.1373	0.000058
955.3788	0.002654
955.6203	0.000311
955.8618	0.001324
956.1034	0.001451
956.3449	0.000818
956.5865	0.002443
956.8280	0.000290
957.0696	0.000944
957.3111	0.000480
957.5527	0.000733
957.7943	0.001113
958.0359	0.000733
958.2775	0.002084
958.5191	-0.000364
958.7607	0.001071
959.0023	0.000628
959.2439	0.001324
959.4856	0.000037
959.7272	0.000396
959.9688	0.000353
960.2105	-0.000026
960.4522	-0.000575
960.6938	0.002844
960.9355	-0.000955
961.1772	0.000733
961.4189	0.000185
961.6606	0.001113
961.9023	0.002400
962.1440	0.000269
962.3857	0.001282
962.6274	0.001029
962.8692	-0.000997
963.1109	-0.000385
963.3527	-0.000955
963.5944	0.000332
963.8362	0.000543
964.0779	0.000839
964.3197	0.001409
964.5615	0.001176
964.8033	-0.001145
965.0451	-0.000195
965.2869	-0.000090
965.5287	-0.000807
965.7705	0.000353
966.0123	0.000564
966.2542	-0.000280
966.4960	0.001092
966.7379	0.000100
966.9797	0.000712
967.2216	0.000417
967.4634	-0.000934
967.7053	-0.000533
967.9472	0.000058
968.1891	-0.000596
968.4310	0.000987
968.6729	0.001282
968.9148	-0.000195
969.1567	-0.001630
969.3987	0.000522
969.6406	-0.000216
969.8825	-0.000132
970.1245	-0.000659
970.3664	0.001261
970.6084	-0.000659
970.8504	-0.000301
971.0923	0.000691
971.3343	0.000269
971.5763	0.000522
971.8183	0.000923
972.0603	-0.000596
972.3023	0.000691
972.5443	-0.000237
972.7864	0.000480
973.0284	0.000353
973.2704	0.000185
973.5125	-0.000702
973.7545	0.000607
973.9966	0.000628
974.2387	-0.001588
974.4807	0.000965
974.7228	0.001577
974.9649	0.000501
975.2070	0.001029
975.4491	-0.000702
975.6912	0.000016
975.9333	-0.000892
976.1755	0.000797
976.4176	0.001092
976.6597	0.000206
976.9019	-0.000259
977.1440	0.000311
977.3862	0.000142
977.6283	0.001261
977.8705	0.000375
978.1127	-0.000216
978.3549	0.001155
978.5971	0.001198
978.8393	0.000754
979.0815	-0.000069
979.3237	-0.000659
979.5659	-0.000069
979.8082	0.000712
980.0504	0.000586
980.2926	0.001556
980.5349	0.000142
980.7771	0.000206
981.0194	-0.001145
981.2617	0.000016
981.5040	-0.000744
981.7462	0.000965
981.9885	0.001831
982.2308	-0.000512
982.4731	0.000607
982.7155	-0.000174
982.9578	-0.000385
983.2001	0.000058
983.4424	0.001683
983.6848	-0.000575
983.9271	-0.000765
984.1695	0.000185
984.4118	0.000353
984.6542	0.000290
984.8966	0.000649
985.1390	-0.000090
985.3814	0.000543
985.6238	-0.000301
985.8662	0.000164
986.1086	0.000142
986.3510	0.001535
986.5934	-0.000090
986.8358	0.000206
987.0783	0.000564
987.3207	-0.000153
987.5632	0.001008
987.8056	-0.000364
988.0481	0.000733
988.2906	0.000396
988.5331	-0.000216
988.7756	0.000543
989.0180	0.000417
989.2605	0.000628
989.5031	-0.000955
989.7456	-0.000491
989.9881	0.000037
990.2306	-0.000681
990.4732	-0.001124
990.7157	-0.000744
990.9582	0.000353
991.2008	-0.000090
991.4434	-0.000955
991.6859	0.000164
991.9285	-0.000153
992.1711	0.000353
992.4137	-0.000005
992.6563	0.000353
992.8989	-0.000870
993.1415	0.000417
993.3841	0.000290
993.6267	-0.000427
993.8694	0.000797
994.1120	0.001894
994.3547	-0.000174
994.5973	0.000417
994.8400	-0.000870
995.0826	0.000776
995.3253	0.000860
995.5680	-0.000237
995.8107	-0.000723
996.0534	-0.000448
996.2961	0.000037
996.5388	-0.000427
996.7815	-0.001166
997.0242	0.001092
997.2670	0.000332
997.5097	-0.000427
997.7524	-0.000195
997.9952	0.000164
998.2379	0.000058
998.4807	-0.000280
998.7235	-0.000090
998.9662	0.000353
999.2090	-0.000681
999.4518	0.000079
999.6946	-0.000512
999.9374	-0.000659
1000.1802	0.001324
1000.4230	0.000987
1000.6659	0.000290
1000.9087	0.000438
1001.1515	0.001219
1001.3944	-0.001166
1001.6372	-0.000512
1001.8801	-0.000491
1002.1230	0.001155
1002.3658	-0.000765
1002.6087	0.000121
1002.8516	0.000142
1003.0945	-0.000575
1003.3374	-0.000892
1003.5803	-0.000237
1003.8232	-0.000617
1004.0661	0.001071
1004.3091	-0.001187
1004.5520	0.000628
1004.7949	0.000100
1005.0379	0.000944
1005.2808	0.000037
1005.5238	0.000269
1005.7667	0.000290
1006.0097	0.001261
1006.2527	0.000501
1006.4957	-0.001588
1006.7387	-0.000491
1006.9817	0.000142
1007.2247	-0.001145
1007.4677	0.001008
1007.7107	0.000353
1007.9538	0.000923
1008.1968	-0.000047
1008.4398	0.000164
1008.6829	0.001430
1008.9259	-0.000448
1009.1690	0.000396
1009.4121	0.001282
1009.6551	-0.000385
1009.8982	-0.000216
1010.1413	0.000121
1010.3844	0.001472
1010.6275	0.000185
1010.8706	0.000881
1011.1137	0.000839
1011.3568	-0.000512
1011.6000	-0.000174
1011.8431	-0.001546
1012.0863	-0.000892
1012.3294	0.000522
1012.5726	0.000290
1012.8157	-0.001039
1013.0589	-0.001250
1013.3021	-0.000069
1013.5452	-0.001799
1013.7884	-0.000195
1014.0316	0.001113
1014.2748	0.000058
1014.5180	-0.000153
1014.7613	-0.000259
1015.0045	0.000058
1015.2477	0.000269
1015.4909	0.000501
1015.7342	0.000860
1015.9774	0.000079
1016.2207	-0.000870
1016.4640	-0.001103
1016.7072	0.001071
1016.9505	0.000670
1017.1938	-0.000702
1017.4371	0.001366
1017.6804	0.000543
1017.9237	-0.000533
1018.1670	0.000480
1018.4103	-0.000596
1018.6536	-0.000406
1018.8969	-0.000301
1019.1403	-0.001039
1019.3836	0.000564
1019.6270	-0.000280
1019.8703	-0.000427
1020.1137	0.000818
1020.3571	-0.000090
1020.6004	-0.000216
1020.8438	0.000733
1021.0872	0.000860
1021.3306	-0.000554
1021.5740	0.000269
1021.8174	-0.001293
1022.0608	-0.000069
1022.3042	-0.002749
1022.5477	-0.000343
1022.7911	-0.000828
1023.0345	0.000037
