# Wavelength (nm)	Intensity (a.u.)
197.7802	0.000137
197.9842	0.000053
198.1882	-0.000686
198.3922	0.000411
198.5963	0.000116
198.8003	-0.000833
199.0044	0.002458
199.2085	-0.000053
199.4126	0.000095
199.6168	-0.000011
199.8209	0.000707
200.0251	-0.000601
200.2292	-0.000285
200.4334	0.000264
200.6376	0.001002
200.8418	-0.000432
201.0461	0.001340
201.2503	0.001002
201.4546	0.001888
201.6589	0.001171
201.8631	0.000475
202.0674	-0.000306
202.2718	0.001318
202.4761	0.001276
202.6805	0.000707
202.8848	-0.000264
203.0892	0.000264
203.2936	-0.000728
203.4980	0.001804
203.7024	-0.000686
203.9069	0.000686
204.1113	-0.000897
204.3158	-0.000960
204.5203	-0.000011
204.7248	-0.000728
204.9293	0.000011
205.1338	-0.000390
205.3384	-0.000454
205.5430	-0.001150
205.7475	0.000095
205.9521	0.001508
206.1567	0.000580
206.3614	0.000369
206.5660	-0.000559
206.7706	0.000601
206.9753	-0.001340
207.1800	0.000074
207.3847	0.000939
207.5894	0.000074
207.7941	-0.000011
207.9989	0.000053
208.2036	0.000770
208.4084	-0.001065
208.6132	0.001107
208.8180	-0.000285
209.0228	0.000264
209.2276	0.001550
209.4325	-0.000306
209.6373	-0.000200
209.8422	-0.000285
210.0471	-0.000812
210.2520	0.000496
210.4569	-0.000348
210.6618	0.000432
210.8668	-0.000285
211.0718	0.000601
211.2767	0.000854
211.4817	0.000475
211.6867	0.000011
211.8918	0.000770
212.0968	-0.001213
212.3018	0.000580
212.5069	-0.000306
212.7120	0.000622
212.9171	-0.000200
213.1222	0.000243
213.3273	-0.000137
213.5325	-0.000475
213.7376	0.000580
213.9428	-0.000264
214.1480	0.000580
214.3532	-0.000095
214.5584	-0.001361
214.7636	-0.000053
214.9689	0.000264
215.1741	-0.000200
215.3794	-0.000137
215.5847	0.001466
215.7900	0.000918
215.9953	0.000285
216.2007	0.000601
216.4060	-0.000327
216.6114	-0.000221
216.8168	0.001213
217.0222	0.001023
217.2276	0.000749
217.4330	0.000643
217.6384	0.000496
217.8439	0.000664
218.0494	0.001466
218.2548	0.000264
218.4603	0.000369
218.6659	0.000981
218.8714	-0.000285
219.0769	0.000770
219.2825	-0.001150
219.4881	0.000095
219.6936	0.000011
219.8992	-0.000601
220.1049	0.001445
220.3105	0.001318
220.5161	-0.000243
220.7218	0.000580
220.9275	0.001171
221.1332	0.002036
221.3389	-0.000707
221.5446	0.000243
221.7503	0.000833
221.9561	0.001171
222.1618	-0.001171
222.3676	0.000032
222.5734	0.000327
222.7792	0.001213
222.9850	0.000833
223.1909	0.000095
223.3967	0.000095
223.6026	0.001846
223.8085	0.000032
224.0144	0.000264
224.2203	-0.000411
224.4262	-0.000559
224.6322	-0.000116
224.8381	-0.000496
225.0441	0.000770
225.2501	-0.000032
225.4561	0.001276
225.6621	0.001445
225.8681	-0.001487
226.0742	0.000770
226.2802	0.000601
226.4863	-0.001086
226.6924	0.000622
226.8985	-0.000200
227.1046	0.000137
227.3107	0.001825
227.5169	-0.000327
227.7230	0.000074
227.9292	-0.000749
228.1354	0.000306
228.3416	0.001466
228.5478	0.000369
228.7541	-0.000770
228.9603	0.000454
229.1666	-0.000285
229.3729	0.000833
229.5791	0.001466
229.7855	-0.000686
229.9918	-0.000137
230.1981	0.001171
230.4045	-0.000517
230.6108	0.001614
230.8172	-0.000580
231.0236	0.000011
231.2300	0.000369
231.4364	0.000200
231.6429	0.000179
231.8493	-0.000411
232.0558	0.000116
232.2623	-0.000200
232.4688	0.000622
232.6753	0.001297
232.8818	-0.000791
233.0884	-0.001023
233.2949	0.001234
233.5015	0.000643
233.7081	-0.000221
233.9147	0.001846
234.1213	-0.000264
234.3279	0.000074
234.5346	-0.000285
234.7413	0.000116
234.9479	-0.000833
235.1546	0.000074
235.3613	0.000812
235.5680	0.000306
235.7748	0.001593
235.9815	0.000032
236.1883	0.000981
236.3951	0.001361
236.6018	-0.000833
236.8087	0.000981
237.0155	-0.000770
237.2223	-0.000243
237.4292	0.000306
237.6360	0.001107
237.8429	-0.000369
238.0498	0.001698
238.2567	-0.000875
238.4636	-0.000074
238.6706	-0.000496
238.8775	0.000538
239.0845	0.000643
239.2915	0.001318
239.4985	0.000053
239.7055	0.002120
239.9125	0.000622
240.1195	0.000095
240.3266	0.000643
240.5337	0.001255
240.7407	0.001086
240.9478	0.000432
241.1549	-0.001276
241.3621	0.000918
241.5692	-0.000939
241.7764	0.001065
241.9835	0.000432
242.1907	0.000137
242.3979	-0.000053
242.6051	0.001023
242.8124	0.000454
243.0196	0.000960
243.2269	0.000854
243.4341	0.000981
243.6414	0.000221
243.8487	0.002352
244.0560	-0.000285
244.2634	-0.000200
244.4707	0.001656
244.6781	-0.000707
244.8854	0.000179
245.0928	0.000432
245.3002	0.000728
245.5076	0.000601
245.7151	-0.001002
245.9225	0.000095
246.1300	-0.000221
246.3375	0.000475
246.5449	0.001508
246.7524	0.000770
246.9600	0.000664
247.1675	-0.000074
247.3750	0.000749
247.5826	0.000243
247.7902	0.000053
247.9978	0.001023
248.2054	-0.001234
248.4130	-0.000918
248.6206	0.000221
248.8283	0.001424
249.0359	-0.000032
249.2436	0.001129
249.4513	0.001635
249.6590	-0.001150
249.8667	0.000749
250.0745	0.000158
250.2822	0.000200
250.4900	0.000306
250.6978	0.000454
250.9056	0.002057
251.1134	-0.000137
251.3212	0.001318
251.5290	0.002141
251.7369	-0.000411
251.9447	0.001276
252.1526	0.000833
252.3605	0.000264
252.5684	0.002183
252.7763	0.000580
252.9843	0.001466
253.1922	0.000158
253.4002	0.000622
253.6082	0.000601
253.8162	-0.001107
254.0242	0.000137
254.2322	0.001023
254.4402	-0.000179
254.6483	0.000306
254.8564	-0.000897
255.0644	0.000538
255.2725	-0.001129
255.4806	-0.000074
255.6888	-0.000221
255.8969	0.002436
256.1051	0.000686
256.3132	-0.000580
256.5214	-0.000011
256.7296	0.000981
256.9378	-0.000454
257.1460	0.001044
257.3543	-0.000095
257.5625	0.000812
257.7708	-0.000559
257.9791	0.001719
258.1874	0.000327
258.3957	0.000812
258.6040	0.000749
258.8124	0.002036
259.0207	0.001023
259.2291	0.000749
259.4375	0.000264
259.6459	0.001255
259.8543	0.000791
260.0627	0.000833
260.2711	-0.000643
260.4796	0.001487
260.6881	0.000221
260.8965	-0.000348
261.1050	-0.000454
261.3135	-0.000306
261.5221	-0.000875
261.7306	0.001002
261.9392	0.001276
262.1477	0.000833
262.3563	-0.000095
262.5649	0.000074
262.7735	-0.000032
262.9822	0.001150
263.1908	-0.000580
263.3995	-0.000306
263.6081	0.001023
263.8168	0.001698
264.0255	-0.000854
264.2342	0.000327
264.4429	0.000643
264.6517	0.000432
264.8604	-0.000285
265.0692	0.000221
265.2780	0.000327
265.4868	0.000264
265.6956	0.000580
265.9044	0.002162
266.1133	-0.000243
266.3221	0.000390
266.5310	-0.000095
266.7399	-0.000348
266.9488	0.000327
267.1577	0.000749
267.3666	-0.000306
267.5755	-0.000432
267.7845	0.000306
267.9935	0.000432
268.2024	0.000643
268.4114	0.001572
268.6205	0.000496
268.8295	0.000116
269.0385	-0.000749
269.2476	0.001656
269.4566	0.000854
269.6657	0.000643
269.8748	0.000032
270.0839	0.000137
270.2931	0.000285
270.5022	-0.000664
270.7114	-0.000791
270.9205	0.001340
271.1297	0.000264
271.3389	-0.000496
271.5481	-0.000559
271.7573	-0.000770
271.9666	-0.000749
272.1758	0.000369
272.3851	-0.000475
272.5944	0.000475
272.8037	0.001930
273.0130	0.000875
273.2223	0.000348
273.4316	-0.000032
273.6410	-0.000897
273.8504	0.001023
274.0597	-0.000791
274.2691	0.001698
274.4785	0.001424
274.6880	0.000074
274.8974	-0.000728
275.1069	0.002268
275.3163	0.000327
275.5258	0.000728
275.7353	-0.000264
275.9448	0.001719
276.1543	0.000601
276.3639	0.000939
276.5734	-0.000158
276.7830	-0.000854
276.9926	0.000411
277.2022	0.000538
277.4118	0.000875
277.6214	0.000601
277.8310	0.000454
278.0407	0.000749
278.2503	-0.000411
278.4600	0.001297
278.6697	-0.000791
278.8794	0.000432
279.0891	-0.000601
279.2989	0.001065
279.5086	0.000306
279.7184	0.001213
279.9281	-0.000770
280.1379	-0.000707
280.3477	-0.000032
280.5576	0.000011
280.7674	-0.000158
280.9772	0.000032
281.1871	-0.000791
281.3970	0.000011
281.6069	-0.001614
281.8168	0.000664
282.0267	0.000348
282.2366	0.000369
282.4466	0.000032
282.6565	0.000179
282.8665	-0.000538
283.0765	0.000348
283.2865	-0.000116
283.4965	0.001614
283.7065	0.000369
283.9166	0.000749
284.1266	-0.000179
284.3367	0.000960
284.5468	0.000707
284.7569	0.001107
284.9670	-0.000074
285.1771	0.000137
285.3873	0.000179
285.5974	0.000095
285.8076	0.000897
286.0178	0.001361
286.2280	0.000158
286.4382	0.000918
286.6484	0.000960
286.8587	0.001614
287.0689	0.001340
287.2792	-0.000559
287.4895	-0.000116
287.6998	0.000369
287.9101	0.000918
288.1204	0.000728
288.3308	0.000686
288.5411	0.000960
288.7515	0.000032
288.9619	0.000918
289.1723	0.000897
289.3827	0.000095
289.5931	0.001107
289.8035	0.000475
290.0140	0.000517
290.2245	-0.000770
290.4349	0.000875
290.6454	0.001340
290.8559	0.002289
291.0665	-0.000918
291.2770	0.001192
291.4875	-0.000327
291.6981	0.000116
291.9087	0.001255
292.1193	0.000875
292.3299	0.000032
292.5405	0.001044
292.7511	0.000707
292.9618	0.000116
293.1724	-0.000264
293.3831	-0.000580
293.5938	-0.000770
293.8045	0.000875
294.0152	0.000812
294.2260	-0.000707
294.4367	0.000622
294.6475	-0.000221
294.8582	0.000454
295.0690	-0.000011
295.2798	-0.000390
295.4906	-0.000306
295.7015	-0.000791
295.9123	0.000179
296.1232	0.001192
296.3340	0.001171
296.5449	-0.000264
296.7558	0.000707
296.9667	0.000939
297.1777	0.000116
297.3886	0.001593
297.5995	-0.000264
297.8105	-0.000369
298.0215	0.000601
298.2325	0.000074
298.4435	-0.000348
298.6545	0.001107
298.8656	0.000327
299.0766	0.001403
299.2877	0.000622
299.4988	-0.000496
299.7099	0.000749
299.9210	0.000327
300.1321	-0.000580
300.3432	0.000664
300.5544	-0.000243
300.7655	0.001171
300.9767	0.002078
301.1879	0.000897
301.3991	0.000770
301.6103	0.001002
301.8215	0.000538
302.0328	0.001698
302.2441	-0.000116
302.4553	0.000749
302.6666	0.001213
302.8779	0.002120
303.0892	0.001761
303.3006	-0.000475
303.5119	-0.000728
303.7233	0.001761
303.9346	0.001234
304.1460	0.000074
304.3574	0.000095
304.5688	0.001129
304.7803	0.000770
304.9917	0.000200
305.2031	0.000116
305.4146	0.000285
305.6261	0.000327
305.8376	0.001044
306.0491	0.001445
306.2606	0.001318
306.4722	-0.000137
306.6837	0.001424
306.8953	0.001951
307.1069	0.000812
307.3184	-0.000285
307.5301	0.001297
307.7417	-0.000264
307.9533	-0.000095
308.1650	-0.000601
308.3766	0.000875
308.5883	0.001107
308.8000	0.001740
309.0117	-0.000348
309.2234	0.000981
309.4351	0.000475
309.6469	0.002247
309.8586	0.000517
310.0704	0.000939
310.2822	-0.000686
310.4940	0.001382
310.7058	-0.000960
310.9176	0.001424
311.1295	0.000116
311.3413	0.001993
311.5532	0.001234
311.7651	0.000432
311.9770	0.000664
312.1889	0.000875
312.4008	-0.000664
312.6127	0.000960
312.8247	-0.000496
313.0366	-0.000179
313.2486	0.000095
313.4606	0.000011
313.6726	0.000411
313.8846	0.000053
314.0967	0.000643
314.3087	0.000200
314.5208	0.000580
314.7328	0.001129
314.9449	0.001677
315.1570	0.000074
315.3692	0.000074
315.5813	0.000369
315.7934	-0.000116
316.0056	0.000496
316.2177	0.000622
316.4299	0.001213
316.6421	-0.000390
316.8543	-0.001234
317.0666	-0.000243
317.2788	0.000411
317.4911	-0.000095
317.7033	0.000601
317.9156	-0.001234
318.1279	-0.000517
318.3402	-0.000981
318.5525	0.000854
318.7649	0.000664
318.9772	0.000116
319.1896	0.000601
319.4019	0.001846
319.6143	0.000095
319.8267	-0.001107
320.0392	0.001318
320.2516	0.001107
320.4640	0.000517
320.6765	0.000454
320.8890	-0.000095
321.1014	-0.000053
321.3139	-0.000538
321.5265	0.000601
321.7390	0.000538
321.9515	0.000517
322.1641	0.000306
322.3766	0.001340
322.5892	-0.000243
322.8018	0.001002
323.0144	0.000179
323.2270	0.001572
323.4397	-0.000749
323.6523	0.001023
323.8650	0.000306
324.0777	0.000622
324.2904	-0.000475
324.5031	0.000791
324.7158	0.000011
324.9285	0.001023
325.1412	0.000918
325.3540	0.001086
325.5668	0.000137
325.7796	0.001129
325.9924	-0.000749
326.2052	0.000538
326.4180	0.000158
326.6308	-0.000179
326.8437	-0.000897
327.0566	0.000580
327.2694	0.000664
327.4823	0.000622
327.6952	0.000327
327.9082	0.000918
328.1211	0.000095
328.3340	0.001466
328.5470	0.000454
328.7600	0.000728
328.9730	-0.000243
329.1860	0.001698
329.3990	-0.001761
329.6120	0.001107
329.8251	-0.000707
330.0381	0.001508
330.2512	0.001065
330.4643	0.001846
330.6774	0.000327
330.8905	0.000475
331.1036	-0.000981
331.3167	0.001065
331.5299	-0.000475
331.7431	0.001213
331.9562	-0.000454
332.1694	0.001234
332.3826	0.001002
332.5959	0.000559
332.8091	0.000095
333.0223	-0.000960
333.2356	-0.000854
333.4489	0.001466
333.6622	0.001445
333.8755	0.000200
334.0888	0.000306
334.3021	-0.000517
334.5154	-0.000137
334.7288	-0.000327
334.9422	-0.000918
335.1555	0.000559
335.3689	0.000179
335.5823	0.000643
335.7958	-0.001171
336.0092	0.001424
336.2227	0.000116
336.4361	-0.000264
336.6496	-0.000454
336.8631	0.001023
337.0766	0.000116
337.2901	0.001234
337.5036	0.000939
337.7172	0.000812
337.9307	0.001023
338.1443	0.001340
338.3579	0.000496
338.5715	0.000264
338.7851	-0.000686
338.9987	0.001129
339.2124	0.000496
339.4260	0.002500
339.6397	0.000179
339.8533	0.000707
340.0670	0.001234
340.2807	0.000221
340.4945	-0.000095
340.7082	0.001065
340.9219	0.000158
341.1357	0.000454
341.3495	0.000200
341.5633	0.001635
341.7771	-0.000770
341.9909	0.000011
342.2047	0.000454
342.4185	0.001044
342.6324	-0.000032
342.8463	0.002036
343.0601	0.000601
343.2740	0.000264
343.4879	-0.000306
343.7019	0.001129
343.9158	0.000770
344.1297	0.001318
344.3437	0.001529
344.5577	0.001171
344.7717	-0.000243
344.9857	-0.000981
345.1997	-0.000053
345.4137	0.001255
345.6277	-0.000306
345.8418	0.001972
346.0559	-0.000432
346.2699	0.000221
346.4840	-0.001276
346.6981	0.000770
346.9123	0.000981
347.1264	0.000095
347.3406	-0.000095
347.5547	-0.000200
347.7689	-0.000517
347.9831	0.000348
348.1973	0.000074
348.4115	0.002204
348.6257	-0.000137
348.8400	0.000074
349.0542	-0.000053
349.2685	-0.000496
349.4828	0.000981
349.6971	0.000158
349.9114	0.000939
350.1257	0.000897
350.3400	-0.000116
350.5544	0.001888
350.7687	0.000306
350.9831	0.000411
351.1975	0.000833
351.4119	-0.000053
351.6263	0.000369
351.8407	-0.000306
352.0552	-0.000496
352.2696	-0.000011
352.4841	-0.000095
352.6986	0.001550
352.9131	-0.000221
353.1276	0.001171
353.3421	0.000601
353.5566	0.000749
353.7712	-0.000664
353.9858	-0.001171
354.2003	0.000411
354.4149	0.000686
354.6295	-0.000411
354.8441	0.000960
355.0588	0.000707
355.2734	-0.000601
355.4881	0.000749
355.7027	0.001276
355.9174	-0.000960
356.1321	0.000496
356.3468	-0.000264
356.5615	0.000327
356.7763	0.000918
356.9910	0.000559
357.2058	0.000580
357.4206	0.000854
357.6353	0.001150
357.8501	0.000158
358.0650	0.000411
358.2798	0.000390
358.4946	0.001382
358.7095	0.001044
358.9243	0.000348
359.1392	0.000791
359.3541	0.000074
359.5690	0.001023
359.7839	0.000538
359.9989	0.000897
360.2138	0.000074
360.4288	0.001424
360.6438	-0.001086
360.8587	0.001213
361.0737	0.001466
361.2888	0.001023
361.5038	-0.000348
361.7188	0.001150
361.9339	0.001318
362.1489	-0.000053
362.3640	0.000243
362.5791	-0.000348
362.7942	-0.000454
363.0093	0.000770
363.2245	0.000833
363.4396	-0.000517
363.6548	-0.000179
363.8699	0.000137
364.0851	0.001740
364.3003	0.000327
364.5155	-0.000580
364.7308	0.001677
364.9460	0.000981
365.1612	0.001213
365.3765	0.000243
365.5918	0.000053
365.8071	0.000306
366.0224	0.001361
366.2377	-0.001234
366.4530	0.001192
366.6684	0.001466
366.8837	0.000411
367.0991	0.000918
367.3145	0.000918
367.5299	0.001171
367.7453	0.001255
367.9607	0.000622
368.1761	0.001677
368.3916	-0.000285
368.6070	0.001065
368.8225	-0.000939
369.0380	0.000686
369.2535	0.000179
369.4690	0.000749
369.6845	0.000221
369.9001	-0.000264
370.1156	0.000749
370.3312	0.000833
370.5468	-0.000243
370.7624	0.000327
370.9780	-0.000854
371.1936	0.000200
371.4092	0.000306
371.6249	0.000897
371.8405	0.000221
372.0562	-0.000643
372.2719	-0.000011
372.4876	0.001508
372.7033	0.000664
372.9190	0.000686
373.1348	0.000475
373.3505	0.000897
373.5663	-0.000559
373.7820	-0.000348
373.9978	0.000454
374.2136	0.001150
374.4294	0.001023
374.6453	0.000918
374.8611	0.000348
375.0770	0.000432
375.2928	-0.000221
375.5087	0.000749
375.7246	0.000686
375.9405	0.000728
376.1564	-0.000264
376.3724	-0.000643
376.5883	-0.000137
376.8043	0.001719
377.0203	-0.000116
377.2362	0.001044
377.4522	0.000875
377.6682	0.000053
377.8843	0.000454
378.1003	0.001572
378.3164	0.001213
378.5324	0.001255
378.7485	0.000517
378.9646	0.000053
379.1807	-0.000622
379.3968	0.000074
379.6129	0.000538
379.8291	0.001086
380.0452	0.000981
380.2614	0.001255
380.4776	0.000411
380.6938	0.001297
380.9100	0.000559
381.1262	0.002605
381.3424	-0.001318
381.5587	-0.000095
381.7749	0.000032
381.9912	0.000348
382.2075	0.000074
382.4238	0.001550
382.6401	0.000622
382.8564	-0.001065
383.0728	-0.000728
383.2891	0.000496
383.5055	0.000749
383.7219	0.001065
383.9382	-0.000221
384.1546	0.001192
384.3711	-0.000011
384.5875	-0.000369
384.8039	-0.000011
385.0204	0.002120
385.2368	0.001213
385.4533	0.001888
385.6698	-0.000095
385.8863	0.000285
386.1028	-0.000411
386.3194	0.001002
386.5359	0.001255
386.7525	0.001593
386.9690	0.000411
387.1856	0.001487
387.4022	0.001234
387.6188	0.000454
387.8355	0.000812
388.0521	0.001361
388.2687	0.000749
388.4854	0.000939
388.7021	0.000559
388.9188	0.001761
389.1355	0.000032
389.3522	0.000939
389.5689	-0.000074
389.7856	0.001086
390.0024	0.001593
390.2192	0.001129
390.4359	0.000622
390.6527	0.001867
390.8695	0.000411
391.0863	0.003365
391.3032	0.001276
391.5200	0.000158
391.7369	0.000137
391.9537	0.001656
392.1706	0.000707
392.3875	0.002310
392.6044	0.000454
392.8213	0.002183
393.0383	0.001677
393.2552	0.002436
393.4722	0.002711
393.6891	0.002204
393.9061	0.002120
394.1231	0.001698
394.3401	0.002837
394.5572	0.002626
394.7742	0.002099
394.9912	0.002183
395.2083	0.001783
395.4254	0.002669
395.6425	0.002795
395.8596	0.003639
396.0767	0.002500
396.2938	0.003913
396.5109	0.004546
396.7281	0.003955
396.9453	0.003238
397.1624	0.004884
397.3796	0.003934
397.5968	0.003428
397.8140	0.003365
398.0313	0.004356
398.2485	0.004419
398.4658	0.005052
398.6830	0.004926
398.9003	0.005432
399.1176	0.005411
399.3349	0.006445
399.5522	0.004989
399.7696	0.003681
399.9869	0.003555
400.2043	0.004947
400.4216	0.004926
400.6390	0.006761
400.8564	0.005559
401.0738	0.006909
401.2912	0.004293
401.5087	0.005094
401.7261	0.007267
401.9436	0.005559
402.1610	0.004841
402.3785	0.006381
402.5960	0.005685
402.8135	0.006318
403.0310	0.007752
403.2486	0.006803
403.4661	0.005580
403.6837	0.008554
403.9013	0.006255
404.1189	0.007309
404.3365	0.007162
404.5541	0.006529
404.7717	0.007499
404.9893	0.008006
405.2070	0.009419
405.4246	0.008195
405.6423	0.008681
405.8600	0.007984
406.0777	0.007288
406.2954	0.008174
406.5131	0.008681
406.7309	0.008322
406.9486	0.006571
407.1664	0.008027
407.3842	0.008892
407.6020	0.008828
407.8198	0.010157
408.0376	0.008533
408.2554	0.009778
408.4733	0.008069
408.6911	0.009440
408.9090	0.009271
409.1269	0.009735
409.3448	0.008892
409.5627	0.010874
409.7806	0.010790
409.9985	0.009883
410.2165	0.009588
410.4344	0.009925
410.6524	0.009440
410.8704	0.009967
411.0884	0.010790
411.3064	0.009546
411.5244	0.010221
411.7424	0.011613
411.9605	0.009018
412.1785	0.012182
412.3966	0.010368
412.6147	0.011760
412.8328	0.011043
413.0509	0.012625
413.2690	0.011718
413.4871	0.011339
413.7053	0.011908
413.9234	0.011381
414.1416	0.011402
414.3598	0.011275
414.5780	0.011655
414.7962	0.009335
415.0144	0.012457
415.2326	0.012309
415.4509	0.012836
415.6692	0.012900
415.8874	0.012182
416.1057	0.012225
416.3240	0.011908
416.5423	0.013195
416.7606	0.011128
416.9790	0.013322
417.1973	0.013532
417.4157	0.011908
417.6341	0.012752
417.8524	0.012330
418.0708	0.013132
418.2893	0.013617
418.5077	0.013870
418.7261	0.012330
418.9446	0.013068
419.1630	0.012879
419.3815	0.013722
419.6000	0.014672
419.8185	0.013322
420.0370	0.014946
420.2555	0.012836
420.4741	0.015157
420.6926	0.015094
420.9112	0.013617
421.1298	0.016781
421.3483	0.016275
421.5669	0.016043
421.7856	0.018933
422.0042	0.016001
422.2228	0.018553
422.4415	0.016844
422.6601	0.017625
422.8788	0.017857
423.0975	0.016254
423.3162	0.016697
423.5349	0.017266
423.7536	0.016380
423.9724	0.016929
424.1911	0.015684
424.4099	0.016823
424.6287	0.014714
424.8475	0.017688
425.0663	0.015431
425.2851	0.016865
425.5039	0.016633
425.7228	0.018595
425.9416	0.017182
426.1605	0.016001
426.3793	0.017498
426.5982	0.015009
426.8171	0.014861
427.0361	0.014967
427.2550	0.015705
427.4739	0.019165
427.6929	0.017435
427.9118	0.017667
428.1308	0.015304
428.3498	0.016718
428.5688	0.015536
428.7878	0.017013
429.0068	0.014208
429.2259	0.018827
429.4449	0.017477
429.6640	0.019334
429.8831	0.019945
430.1022	0.019840
430.3213	0.019924
430.5404	0.020958
430.7595	0.020937
430.9787	0.019924
431.1978	0.018237
431.4170	0.017498
431.6362	0.018701
431.8553	0.015937
432.0745	0.016676
432.2938	0.017646
432.5130	0.016275
432.7322	0.018068
432.9515	0.013406
433.1707	0.015178
433.3900	0.016190
433.6093	0.018068
433.8286	0.020135
434.0479	0.019903
434.2673	0.020283
434.4866	0.018848
434.7059	0.017984
434.9253	0.017435
435.1447	0.015347
435.3641	0.016570
435.5835	0.018384
435.8029	0.017646
436.0223	0.019017
436.2418	0.018321
436.4612	0.018659
436.6807	0.019207
436.9001	0.018532
437.1196	0.015853
437.3391	0.017857
437.5586	0.018026
437.7782	0.017119
437.9977	0.017709
438.2173	0.017857
438.4368	0.019397
438.6564	0.018827
438.8760	0.020726
439.0956	0.020135
439.3152	0.019566
439.5348	0.019291
439.7545	0.018532
439.9741	0.018616
440.1938	0.018553
440.4135	0.016507
440.6331	0.018026
440.8528	0.018068
441.0725	0.019777
441.2923	0.019650
441.5120	0.022772
441.7318	0.023890
441.9515	0.022076
442.1713	0.022287
442.3911	0.020684
442.6109	0.020810
442.8307	0.020199
443.0505	0.019165
443.2703	0.022118
443.4902	0.021844
443.7101	0.023384
443.9299	0.022667
444.1498	0.021907
444.3697	0.019692
444.5896	0.021970
444.8095	0.020135
445.0295	0.021211
445.2494	0.021338
445.4694	0.021127
445.6894	0.018068
445.9093	0.021190
446.1293	0.019988
446.3493	0.020114
446.5694	0.020009
446.7894	0.021148
447.0094	0.019840
447.2295	0.019650
447.4496	0.020409
447.6696	0.020177
447.8897	0.020072
448.1098	0.019291
448.3300	0.019608
448.5501	0.018300
448.7702	0.020093
448.9904	0.019355
449.2106	0.019017
449.4307	0.019165
449.6509	0.019777
449.8711	0.019228
450.0914	0.017625
450.3116	0.016950
450.5318	0.018574
450.7521	0.018701
450.9724	0.017055
451.1926	0.017119
451.4129	0.018258
451.6332	0.018216
451.8535	0.017751
452.0739	0.017751
452.2942	0.016380
452.5146	0.015157
452.7349	0.017245
452.9553	0.016528
453.1757	0.016254
453.3961	0.015979
453.6165	0.015832
453.8369	0.014988
454.0574	0.014376
454.2778	0.016359
454.4983	0.014672
454.7188	0.013406
454.9393	0.013237
455.1597	0.015283
455.3803	0.015452
455.6008	0.015157
455.8213	0.016338
456.0419	0.015473
456.2624	0.015494
456.4830	0.013722
456.7036	0.013427
456.9242	0.013722
457.1448	0.014418
457.3654	0.014883
457.5860	0.014503
457.8067	0.014608
458.0274	0.014629
458.2480	0.014861
458.4687	0.015536
458.6894	0.015326
458.9101	0.016212
459.1308	0.014587
459.3516	0.015515
459.5723	0.016739
459.7931	0.014651
460.0138	0.013596
460.2346	0.012879
460.4554	0.014651
460.6762	0.012942
460.8970	0.012752
461.1178	0.012836
461.3387	0.012668
461.5595	0.011444
461.7804	0.013638
462.0013	0.011908
462.2222	0.011908
462.4431	0.009862
462.6640	0.010748
462.8849	0.011592
463.1059	0.009989
463.3268	0.012035
463.5478	0.012014
463.7687	0.011718
463.9897	0.012752
464.2107	0.012942
464.4317	0.011824
464.6528	0.013364
464.8738	0.013322
465.0948	0.013849
465.3159	0.011782
465.5370	0.011887
465.7581	0.013680
465.9792	0.011993
466.2003	0.012225
466.4214	0.010199
466.6425	0.010537
466.8637	0.011022
467.0848	0.010052
467.3060	0.010853
467.5272	0.010263
467.7484	0.010242
467.9696	0.009546
468.1908	0.007541
468.4120	0.009461
468.6333	0.008364
468.8545	0.007689
469.0758	0.011085
469.2970	0.008554
469.5183	0.007710
469.7396	0.007984
469.9610	0.009440
470.1823	0.007689
470.4036	0.008681
470.6250	0.008048
470.8463	0.008807
471.0677	0.007267
471.2891	0.007225
471.5105	0.005917
471.7319	0.007394
471.9533	0.005305
472.1748	0.008090
472.3962	0.007331
472.6177	0.007478
472.8391	0.007584
473.0606	0.007626
473.2821	0.007183
473.5036	0.007035
473.7251	0.007774
473.9467	0.008828
474.1682	0.005769
474.3898	0.005643
474.6113	0.006951
474.8329	0.007288
475.0545	0.008385
475.2761	0.008575
475.4977	0.008153
475.7193	0.006719
475.9410	0.007563
476.1626	0.007373
476.3843	0.005179
476.6060	0.007056
476.8277	0.005917
477.0494	0.005769
477.2711	0.005833
477.4928	0.007204
477.7145	0.005580
477.9363	0.007288
478.1580	0.006107
478.3798	0.008132
478.6016	0.005917
478.8234	0.007288
479.0452	0.004926
479.2670	0.006761
479.4888	0.005769
479.7107	0.006044
479.9325	0.007584
480.1544	0.004926
480.3763	0.006571
480.5982	0.004926
480.8201	0.005495
481.0420	0.004187
481.2639	0.005474
481.4859	0.005348
481.7078	0.004040
481.9298	0.006993
482.1517	0.006212
482.3737	0.006044
482.5957	0.005516
482.8177	0.006086
483.0398	0.004441
483.2618	0.003976
483.4838	0.004673
483.7059	0.005411
483.9280	0.003365
484.1501	0.005769
484.3721	0.005242
484.5943	0.005474
484.8164	0.005495
485.0385	0.005137
485.2606	0.004061
485.4828	0.006508
485.7050	0.010410
485.9271	0.015136
486.1493	0.015769
486.3715	0.015136
486.5937	0.011676
486.8160	0.009398
487.0382	0.008533
487.2605	0.006845
487.4827	0.006613
487.7050	0.006571
487.9273	0.003597
488.1496	0.004651
488.3719	0.004124
488.5942	0.004736
488.8165	0.002795
489.0389	0.004441
489.2612	0.003976
489.4836	0.003512
489.7060	0.002943
489.9284	0.004757
490.1508	0.003871
490.3732	0.004778
490.5956	0.003259
490.8180	0.003491
491.0405	0.003280
491.2630	0.003618
491.4854	0.003744
491.7079	0.003934
491.9304	0.003322
492.1529	0.004314
492.3755	0.003006
492.5980	0.004947
492.8205	0.003618
493.0431	0.003006
493.2657	0.002605
493.4882	0.003533
493.7108	0.002542
493.9334	0.001761
494.1561	0.004061
494.3787	0.004398
494.6013	0.003555
494.8240	0.004230
495.0466	0.001930
495.2693	0.004377
495.4920	0.002500
495.7147	0.003787
495.9374	0.002605
496.1601	0.002943
496.3829	0.002795
496.6056	0.003428
496.8284	0.003069
497.0511	0.004061
497.2739	0.003365
497.4967	0.003112
497.7195	0.001930
497.9423	0.003048
498.1652	0.003744
498.3880	0.003934
498.6109	0.003322
498.8337	0.002542
499.0566	0.004398
499.2795	0.003006
499.5024	0.002141
499.7253	0.002584
499.9482	0.001846
500.1712	0.005896
500.3941	0.002964
500.6171	0.002690
500.8400	0.002563
501.0630	0.003112
501.2860	0.001867
501.5090	0.003027
501.7320	0.000622
501.9551	0.003470
502.1781	0.002310
502.4012	0.002837
502.6242	0.003322
502.8473	0.003660
503.0704	0.003027
503.2935	0.003196
503.5166	0.003069
503.7397	0.003723
503.9628	0.003027
504.1860	0.004208
504.4092	0.002795
504.6323	0.002774
504.8555	0.002352
505.0787	0.002458
505.3019	0.002036
505.5251	0.002268
505.7483	0.000875
505.9716	0.002647
506.1948	0.001761
506.4181	0.002669
506.6414	0.003428
506.8647	0.003533
507.0880	0.001361
507.3113	0.002352
507.5346	0.002078
507.7579	0.002247
507.9813	0.002479
508.2046	0.002521
508.4280	0.001951
508.6514	0.003407
508.8748	0.002774
509.0982	0.002120
509.3216	0.001930
509.5450	0.001825
509.7685	0.003407
509.9919	0.002901
510.2154	0.002922
510.4388	0.001487
510.6623	0.000264
510.8858	0.003555
511.1093	0.001888
511.3329	0.001909
511.5564	0.003154
511.7799	0.002669
512.0035	0.003133
512.2270	0.003597
512.4506	0.000728
512.6742	0.000875
512.8978	0.000960
513.1214	0.003702
513.3451	0.001487
513.5687	0.003196
513.7923	0.001276
514.0160	0.003702
514.2397	0.002774
514.4634	0.001593
514.6871	0.001192
514.9108	0.002289
515.1345	0.001614
515.3582	0.001993
515.5819	0.002858
515.8057	0.002943
516.0295	0.002479
516.2532	0.002436
516.4770	0.003322
516.7008	0.003090
516.9246	0.001424
517.1485	0.002394
517.3723	0.002204
517.5961	0.002352
517.8200	0.003365
518.0439	0.003808
518.2677	0.002837
518.4916	0.001888
518.7155	0.003723
518.9395	0.002289
519.1634	0.001550
519.3873	0.003555
519.6113	0.003048
519.8352	0.002732
520.0592	0.003154
520.2832	0.001783
520.5072	0.003723
520.7312	0.000158
520.9552	0.002964
521.1792	0.001424
521.4033	0.003449
521.6273	0.002626
521.8514	0.001951
522.0755	0.002078
522.2996	0.003196
522.5237	0.002458
522.7478	0.004293
522.9719	0.003976
523.1960	0.003322
523.4202	0.003090
523.6443	0.004230
523.8685	0.003217
524.0927	0.003112
524.3169	0.002415
524.5411	0.003322
524.7653	0.002858
524.9895	0.003133
525.2138	0.003280
525.4380	0.003555
525.6623	0.001740
525.8865	0.003576
526.1108	0.002795
526.3351	0.001951
526.5594	0.001276
526.7837	0.004799
527.0081	0.003006
527.2324	0.004082
527.4568	0.002647
527.6811	0.003407
527.9055	0.002879
528.1299	0.003238
528.3543	0.003428
528.5787	0.004082
528.8031	0.003470
529.0276	0.003998
529.2520	0.004799
529.4765	0.003618
529.7009	0.003386
529.9254	0.005242
530.1499	0.003386
530.3744	0.002584
530.5989	0.004841
530.8234	0.005643
531.0480	0.004651
531.2725	0.004905
531.4971	0.003112
531.7217	0.004862
531.9462	0.003829
532.1708	0.004293
532.3954	0.003976
532.6200	0.004061
532.8447	0.003892
533.0693	0.005495
533.2940	0.003829
533.5186	0.005390
533.7433	0.002732
533.9680	0.005938
534.1927	0.006761
534.4174	0.005432
534.6421	0.005495
534.8668	0.005390
535.0916	0.006719
535.3163	0.005326
535.5411	0.006255
535.7659	0.005917
535.9907	0.005537
536.2155	0.006592
536.4403	0.004040
536.6651	0.007394
536.8899	0.005305
537.1148	0.007900
537.3396	0.006402
537.5645	0.007837
537.7894	0.007900
538.0143	0.007499
538.2392	0.006402
538.4641	0.008744
538.6890	0.007225
538.9139	0.007520
539.1389	0.007689
539.3638	0.008849
539.5888	0.007816
539.8138	0.008828
540.0388	0.009039
540.2638	0.009166
540.4888	0.007668
540.7138	0.009440
540.9389	0.007668
541.1639	0.008427
541.3890	0.008533
541.6140	0.009651
541.8391	0.008575
542.0642	0.009461
542.2893	0.007499
542.5144	0.009356
542.7396	0.010642
542.9647	0.010664
543.1899	0.010938
543.4150	0.011191
543.6402	0.009313
543.8654	0.009208
544.0906	0.011655
544.3158	0.010664
544.5410	0.011064
544.7662	0.013659
544.9915	0.012752
545.2167	0.013153
545.4420	0.013026
545.6673	0.010938
545.8926	0.009756
546.1179	0.010199
546.3432	0.011845
546.5685	0.011191
546.7938	0.012225
547.0192	0.013195
547.2445	0.011507
547.4699	0.013891
547.6953	0.014629
547.9206	0.013891
548.1460	0.016190
548.3715	0.016676
548.5969	0.015009
548.8223	0.016212
549.0478	0.013448
549.2732	0.014376
549.4987	0.013680
549.7242	0.015262
549.9496	0.014503
550.1751	0.014461
550.4007	0.015262
550.6262	0.014672
550.8517	0.014756
551.0773	0.013596
551.3028	0.014798
551.5284	0.013870
551.7540	0.013849
551.9796	0.018490
552.2052	0.015790
552.4308	0.017456
552.6564	0.017984
552.8820	0.019270
553.1077	0.014946
553.3333	0.019988
553.5590	0.018616
553.7847	0.019566
554.0104	0.019418
554.2361	0.018469
554.4618	0.018574
554.6875	0.018300
554.9132	0.017667
555.1390	0.018701
555.3648	0.018659
555.5905	0.020620
555.8163	0.018680
556.0421	0.020831
556.2679	0.021844
556.4937	0.020979
556.7195	0.019165
556.9454	0.018405
557.1712	0.018511
557.3971	0.018996
557.6230	0.020114
557.8488	0.022013
558.0747	0.021000
558.3006	0.022646
558.5266	0.020620
558.7525	0.020367
558.9784	0.019545
559.2044	0.020684
559.4303	0.021127
559.6563	0.022013
559.8823	0.020874
560.1083	0.023405
560.3343	0.023806
560.5603	0.025029
560.7863	0.026084
561.0124	0.026865
561.2384	0.028404
561.4645	0.027160
561.6905	0.028341
561.9166	0.028151
562.1427	0.026590
562.3688	0.027329
562.5949	0.026527
562.8211	0.025957
563.0472	0.025915
563.2733	0.026590
563.4995	0.027350
563.7257	0.027940
563.9519	0.029860
564.1781	0.030324
564.4043	0.030535
564.6305	0.029944
564.8567	0.032708
565.0829	0.032919
565.3092	0.033235
565.5355	0.031231
565.7617	0.030978
565.9880	0.033066
566.2143	0.031780
566.4406	0.033636
566.6669	0.032834
566.8932	0.034374
567.1196	0.035556
567.3459	0.041104
567.5723	0.041610
567.7987	0.044268
568.0250	0.044711
568.2514	0.046926
568.4778	0.048719
568.7043	0.051145
568.9307	0.053444
569.1571	0.058992
569.3836	0.061081
569.6100	0.068084
569.8365	0.076164
570.0630	0.078611
570.2895	0.084264
570.5160	0.079940
570.7425	0.081121
570.9690	0.087682
571.1956	0.095065
571.4221	0.097723
571.6487	0.099727
571.8752	0.102765
572.1018	0.109283
572.3284	0.109768
572.5550	0.104199
572.7816	0.095128
573.0082	0.087260
573.2349	0.099621
573.4615	0.109663
573.6882	0.117932
573.9149	0.124809
574.1415	0.125610
574.3682	0.132909
574.5949	0.135103
574.8216	0.137656
575.0484	0.138542
575.2751	0.143372
575.5018	0.135694
575.7286	0.129597
575.9554	0.124788
576.1821	0.125885
576.4089	0.128838
576.6357	0.132867
576.8626	0.142128
577.0894	0.147317
577.3162	0.146284
577.5431	0.154342
577.7699	0.170100
577.9968	0.200561
578.2237	0.192925
578.4505	0.178854
578.6774	0.168792
578.9044	0.160248
579.1313	0.152422
579.3582	0.150735
579.5851	0.156536
579.8121	0.162906
580.0391	0.164531
580.2660	0.168328
580.4930	0.165607
580.7200	0.163307
580.9470	0.160565
581.1741	0.196216
581.4011	0.233765
581.6281	0.255429
581.8552	0.261062
582.0822	0.255387
582.3093	0.243194
582.5364	0.223576
582.7635	0.205392
582.9906	0.189845
583.2177	0.177525
583.4449	0.164299
583.6720	0.156430
583.8991	0.147127
584.1263	0.147338
584.3535	0.157000
584.5807	0.151346
584.8079	0.168644
585.0351	0.176998
585.2623	0.187672
585.4895	0.192186
585.7167	0.187124
585.9440	0.179487
586.1713	0.171049
586.3985	0.163434
586.6258	0.154637
586.8531	0.159173
587.0804	0.170733
587.3077	0.179783
587.5350	0.181618
587.7624	0.184107
587.9897	0.172758
588.2171	0.164425
588.4445	0.160523
588.6718	0.154574
588.8992	0.148456
589.1266	0.140989
589.3540	0.132593
589.5815	0.131348
589.8089	0.129471
590.0363	0.125547
590.2638	0.122256
590.4913	0.117826
590.7187	0.112405
590.9462	0.112975
591.1737	0.106098
591.4012	0.103861
591.6288	0.101731
591.8563	0.104136
592.0838	0.099031
592.3114	0.106751
592.5389	0.123290
592.7665	0.147402
592.9941	0.156894
593.2217	0.160101
593.4493	0.164615
593.6769	0.159911
593.9046	0.152422
594.1322	0.149427
594.3598	0.138099
594.5875	0.138267
594.8152	0.145609
595.0429	0.156072
595.2705	0.158498
595.4983	0.151304
595.7260	0.147338
595.9537	0.136432
596.1814	0.132129
596.4092	0.120632
596.6369	0.114979
596.8647	0.111203
597.0925	0.112764
597.3203	0.120294
597.5481	0.120991
597.7759	0.119809
598.0037	0.115928
598.2315	0.111561
598.4594	0.110127
598.6872	0.121391
598.9151	0.142339
599.1430	0.150671
599.3709	0.145714
599.5988	0.144195
599.8267	0.141769
600.0546	0.146178
600.2825	0.149385
600.5105	0.148583
600.7384	0.147802
600.9664	0.146157
601.1944	0.152106
601.4223	0.145841
601.6503	0.137086
601.8783	0.134913
602.1064	0.132129
602.3344	0.131960
602.5624	0.133310
602.7905	0.134344
603.0185	0.139343
603.2466	0.146262
603.4747	0.152971
603.7028	0.153203
603.9309	0.146579
604.1590	0.140841
604.3871	0.134323
604.6152	0.131011
604.8434	0.124640
605.0715	0.122341
605.2997	0.126813
605.5279	0.131876
605.7561	0.137803
605.9843	0.141157
606.2125	0.138120
606.4407	0.132530
606.6689	0.125610
606.8972	0.124535
607.1254	0.125336
607.3537	0.129682
607.5819	0.128079
607.8102	0.129028
608.0385	0.125167
608.2668	0.122045
608.4951	0.116687
608.7235	0.116160
608.9518	0.113671
609.1801	0.110106
609.4085	0.105570
609.6369	0.104600
609.8653	0.107806
610.0936	0.120020
610.3220	0.119219
610.5505	0.117320
610.7789	0.116687
611.0073	0.112827
611.2357	0.107996
611.4642	0.112110
611.6927	0.107110
611.9211	0.111814
612.1496	0.109431
612.3781	0.105212
612.6066	0.104621
612.8351	0.103650
613.0637	0.102153
613.2922	0.103355
613.5208	0.101288
613.7493	0.102300
613.9779	0.103798
614.2065	0.103861
614.4351	0.101583
614.6637	0.100444
614.8923	0.101942
615.1209	0.098904
615.3495	0.102532
615.5782	0.106055
615.8068	0.102743
616.0355	0.099600
616.2642	0.096921
616.4929	0.093546
616.7216	0.090993
616.9503	0.087344
617.1790	0.090740
617.4077	0.087112
617.6365	0.089179
617.8652	0.088146
618.0940	0.087513
618.3227	0.085931
618.5515	0.080741
618.7803	0.075468
619.0091	0.073801
619.2379	0.073485
619.4667	0.070320
619.6956	0.070510
619.9244	0.075130
620.1533	0.079919
620.3821	0.079222
620.6110	0.076143
620.8399	0.072894
621.0688	0.066186
621.2977	0.060617
621.5266	0.058908
621.7556	0.060638
621.9845	0.067726
622.2135	0.066945
622.4424	0.068021
622.6714	0.067915
622.9004	0.069308
623.1294	0.068991
623.3584	0.075552
623.5874	0.071670
623.8164	0.072409
624.0454	0.071502
624.2745	0.069540
624.5035	0.072683
624.7326	0.073147
624.9617	0.072577
625.1908	0.069624
625.4199	0.067683
625.6490	0.066144
625.8781	0.065490
626.1072	0.062494
626.3364	0.060933
626.5655	0.059604
626.7947	0.056820
627.0238	0.057157
627.2530	0.056039
627.4822	0.056250
627.7114	0.058549
627.9406	0.051778
628.1698	0.053233
628.3991	0.049246
628.6283	0.046799
628.8576	0.047242
629.0868	0.050744
629.3161	0.049921
629.5454	0.052221
629.7747	0.051482
630.0040	0.050196
630.2333	0.049246
630.4626	0.048002
630.6920	0.046652
630.9213	0.046483
631.1507	0.044774
631.3801	0.043551
631.6094	0.042327
631.8388	0.042770
632.0682	0.042053
632.2976	0.041884
632.5271	0.037075
632.7565	0.038889
632.9859	0.036800
633.2154	0.037138
633.4448	0.038340
633.6743	0.035281
633.9038	0.035408
634.1333	0.037285
634.3628	0.035851
634.5923	0.033151
634.8218	0.033109
635.0514	0.032539
635.2809	0.033509
635.5105	0.034543
635.7400	0.034965
635.9696	0.034606
636.1992	0.036294
636.4288	0.037560
636.6584	0.036484
636.8880	0.037581
637.1177	0.035957
637.3473	0.035450
637.5770	0.035028
637.8066	0.033151
638.0363	0.033657
638.2660	0.035872
638.4957	0.036146
638.7254	0.034775
638.9551	0.033657
639.1848	0.033742
639.4145	0.034248
639.6443	0.029768
639.8740	0.030517
640.1038	0.031008
640.3336	0.031985
640.5633	0.029292
640.7931	0.029733
641.0229	0.028205
641.2528	0.028407
641.4826	0.028393
641.7124	0.026149
641.9423	0.025621
642.1721	0.025469
642.4020	0.023743
642.6319	0.025424
642.8617	0.024939
643.0916	0.024264
643.3216	0.023854
643.5515	0.023730
643.7814	0.024337
644.0113	0.026038
644.2413	0.023749
644.4712	0.021816
644.7012	0.024457
644.9312	0.022011
645.1612	0.021731
645.3912	0.023466
645.6212	0.023135
645.8512	0.023163
646.0812	0.021949
646.3113	0.020171
646.5413	0.019537
646.7714	0.020442
647.0015	0.020120
647.2316	0.018928
647.4616	0.019640
647.6918	0.021144
647.9219	0.022257
648.1520	0.023841
648.3821	0.026166
648.6123	0.025514
648.8424	0.026364
649.0726	0.026128
649.3028	0.026166
649.5329	0.028583
649.7631	0.027331
649.9933	0.026530
650.2236	0.025454
650.4538	0.025158
650.6840	0.025317
650.9143	0.025045
651.1445	0.022678
651.3748	0.023714
651.6051	0.023867
651.8354	0.023674
652.0657	0.025038
652.2960	0.026967
652.5263	0.026691
652.7566	0.025778
652.9870	0.025737
653.2173	0.025451
653.4477	0.025977
653.6780	0.026216
653.9084	0.028756
654.1388	0.026461
654.3692	0.027099
654.5996	0.030740
654.8300	0.032070
655.0605	0.046337
655.2909	0.133298
655.5213	0.393134
655.7518	0.787143
655.9823	1.000000
656.2128	1.000000
656.4433	1.000000
656.6738	1.000000
656.9043	0.889443
657.1348	0.706623
657.3653	0.577880
657.5959	0.491926
657.8264	0.427069
658.0570	0.388210
658.2875	0.354926
658.5181	0.317027
658.7487	0.304963
658.9793	0.285657
659.2099	0.235779
659.4406	0.164557
659.6712	0.103430
659.9018	0.058113
660.1325	0.037629
660.3632	0.027290
660.5938	0.023207
660.8245	0.021185
661.0552	0.018866
661.2859	0.017346
661.5166	0.020047
661.7474	0.017898
661.9781	0.018206
662.2088	0.016295
662.4396	0.017544
662.6704	0.018258
662.9011	0.018754
663.1319	0.018292
663.3627	0.018453
663.5935	0.016727
663.8243	0.018314
664.0552	0.016669
664.2860	0.018353
664.5168	0.016515
664.7477	0.017506
664.9786	0.020154
665.2094	0.019284
665.4403	0.020392
665.6712	0.020086
665.9021	0.018582
666.1330	0.020177
666.3640	0.018100
666.5949	0.019436
666.8259	0.018042
667.0568	0.018684
667.2878	0.017772
667.5188	0.018135
667.7497	0.017206
667.9807	0.017587
668.2117	0.017755
668.4428	0.017266
668.6738	0.015832
668.9048	0.016929
669.1359	0.017562
669.3669	0.016739
669.5980	0.018131
669.8291	0.018216
670.0602	0.017330
670.2913	0.017076
670.5224	0.016064
670.7535	0.016887
670.9846	0.018300
671.2157	0.019144
671.4469	0.022266
671.6781	0.023996
671.9092	0.026358
672.1404	0.026105
672.3716	0.027919
672.6028	0.030366
672.8340	0.028067
673.0652	0.027666
673.2964	0.025894
673.5277	0.025472
673.7589	0.024987
673.9902	0.025156
674.2214	0.021338
674.4527	0.020705
674.6840	0.021781
674.9153	0.022287
675.1466	0.021338
675.3779	0.022456
675.6093	0.021422
675.8406	0.021865
676.0719	0.021190
676.3033	0.021148
676.5347	0.021042
676.7661	0.020367
676.9974	0.018026
677.2288	0.018764
677.4602	0.020663
677.6917	0.021865
677.9231	0.023110
678.1545	0.022856
678.3860	0.022899
678.6174	0.024333
678.8489	0.026274
679.0804	0.024418
679.3119	0.028615
679.5434	0.028974
679.7749	0.027413
680.0064	0.031611
680.2379	0.028995
680.4694	0.028299
680.7010	0.028869
680.9325	0.027308
681.1641	0.027877
681.3957	0.030577
681.6273	0.029691
681.8589	0.028679
682.0905	0.028489
682.3221	0.025873
682.5537	0.026590
682.7854	0.025198
683.0170	0.025177
683.2487	0.025725
683.4803	0.026569
683.7120	0.027835
683.9437	0.024650
684.1754	0.027603
684.4071	0.029776
684.6388	0.031801
684.8705	0.032117
685.1023	0.034543
685.3340	0.034796
685.5658	0.036273
685.7975	0.037939
686.0293	0.037961
686.2611	0.036505
686.4929	0.036020
686.7247	0.034395
686.9565	0.035556
687.1883	0.037391
687.4202	0.038087
687.6520	0.036674
687.8838	0.031105
688.1157	0.032729
688.3476	0.033066
688.5795	0.032033
688.8114	0.031970
689.0433	0.027624
689.2752	0.028489
689.5071	0.030725
689.7390	0.028215
689.9710	0.027940
690.2029	0.027540
690.4349	0.026991
690.6669	0.027012
690.8988	0.028489
691.1308	0.030134
691.3628	0.030071
691.5948	0.032159
691.8269	0.031801
692.0589	0.029058
692.2909	0.027666
692.5230	0.033636
692.7550	0.032117
692.9871	0.030746
693.2192	0.031674
693.4513	0.034185
693.6834	0.032096
693.9155	0.030894
694.1476	0.030535
694.3797	0.028510
694.6119	0.027877
694.8440	0.026654
695.0762	0.029607
695.3083	0.028341
695.5405	0.028067
695.7727	0.024650
696.0049	0.025346
696.2371	0.023510
696.4693	0.027624
696.7016	0.028383
696.9338	0.030957
697.1660	0.033636
697.3983	0.031084
697.6306	0.032581
697.8628	0.031358
698.0951	0.031105
698.3274	0.032012
698.5597	0.029776
698.7920	0.032518
699.0243	0.030008
699.2567	0.029776
699.4890	0.028383
699.7214	0.029080
699.9537	0.027518
700.1861	0.025008
700.4185	0.025641
700.6509	0.025304
700.8833	0.025346
701.1157	0.023679
701.3481	0.022034
701.5806	0.024038
701.8130	0.023616
702.0454	0.024797
702.2779	0.023785
702.5104	0.023742
702.7429	0.025029
702.9753	0.023996
703.2078	0.024228
703.4403	0.024734
703.6729	0.023089
703.9054	0.024818
704.1379	0.022456
704.3705	0.024143
704.6030	0.024249
704.8356	0.021970
705.0682	0.020135
705.3008	0.019988
705.5334	0.020114
705.7660	0.020494
705.9986	0.019798
706.2312	0.022160
706.4638	0.024523
706.6965	0.026865
706.9291	0.029733
707.1618	0.030219
707.3945	0.031948
707.6272	0.032940
707.8599	0.030535
708.0926	0.029016
708.3253	0.032518
708.5580	0.029755
708.7907	0.029818
709.0235	0.029396
709.2562	0.027075
709.4890	0.028742
709.7217	0.028383
709.9545	0.027518
710.1873	0.025873
710.4201	0.028847
710.6529	0.029396
710.8857	0.027919
711.1186	0.026358
711.3514	0.024439
711.5842	0.025852
711.8171	0.024122
712.0500	0.025050
712.2828	0.023363
712.5157	0.022646
712.7486	0.024439
712.9815	0.025578
713.2144	0.025156
713.4474	0.026232
713.6803	0.028172
713.9132	0.026590
714.1462	0.029776
714.3791	0.027413
714.6121	0.028869
714.8451	0.025683
715.0781	0.029607
715.3111	0.027540
715.5441	0.030240
715.7771	0.026590
716.0102	0.025768
716.2432	0.024797
716.4762	0.024650
716.7093	0.023721
716.9424	0.024207
717.1754	0.023996
717.4085	0.023848
717.6416	0.023299
717.8747	0.021253
718.1078	0.024692
718.3410	0.023215
718.5741	0.023025
718.8072	0.021169
719.0404	0.024797
719.2736	0.024207
719.5067	0.026232
719.7399	0.024354
719.9731	0.024375
720.2063	0.024396
720.4395	0.022856
720.6727	0.025936
720.9060	0.023384
721.1392	0.022856
721.3725	0.024249
721.6057	0.023131
721.8390	0.023278
722.0723	0.023658
722.3055	0.023700
722.5388	0.023067
722.7721	0.021591
723.0055	0.023025
723.2388	0.021738
723.4721	0.021506
723.7055	0.022856
723.9388	0.021738
724.1722	0.023321
724.4056	0.021886
724.6389	0.021781
724.8723	0.022751
725.1057	0.025430
725.3391	0.025135
725.5726	0.028088
725.8060	0.026527
726.0394	0.027434
726.2729	0.028594
726.5063	0.027202
726.7398	0.028805
726.9733	0.026147
727.2068	0.027877
727.4403	0.025472
727.6738	0.026232
727.9073	0.027624
728.1408	0.028531
728.3743	0.028046
728.6079	0.026548
728.8414	0.027455
729.0750	0.028383
729.3086	0.028278
729.5421	0.030029
729.7757	0.030662
730.0093	0.031716
730.2429	0.029037
730.4766	0.029206
730.7102	0.032455
730.9438	0.035134
731.1775	0.034543
731.4111	0.036484
731.6448	0.034796
731.8785	0.037032
732.1122	0.034395
732.3458	0.031548
732.5795	0.033235
732.8133	0.034817
733.0470	0.036020
733.2807	0.035281
733.5145	0.034290
733.7482	0.038066
733.9820	0.037792
734.2157	0.040028
734.4495	0.043994
734.6833	0.041926
734.9171	0.040429
735.1509	0.042011
735.3847	0.040619
735.6185	0.037792
735.8524	0.039796
736.0862	0.038868
736.3201	0.039416
736.5539	0.040597
736.7878	0.038214
737.0217	0.041104
737.2556	0.042032
737.4895	0.038150
737.7234	0.037665
737.9573	0.036146
738.1912	0.033678
738.4252	0.032666
738.6591	0.034564
738.8931	0.034417
739.1271	0.038614
739.3610	0.038446
739.5950	0.037096
739.8290	0.038003
740.0630	0.037496
740.2970	0.034079
740.5310	0.033952
740.7651	0.031674
740.9991	0.030894
741.2332	0.030915
741.4672	0.028172
741.7013	0.026611
741.9354	0.026527
742.1695	0.029058
742.4036	0.029248
742.6377	0.028404
742.8718	0.029122
743.1059	0.025704
743.3400	0.025725
743.5742	0.024439
743.8083	0.024333
744.0425	0.024628
744.2767	0.024207
744.5108	0.024607
744.7450	0.023468
744.9792	0.025536
745.2134	0.023785
745.4477	0.025071
745.6819	0.024101
745.9161	0.023110
746.1504	0.023742
746.3846	0.022688
746.6189	0.023848
746.8532	0.021211
747.0874	0.025831
747.3217	0.024101
747.5560	0.028046
747.7903	0.025346
748.0247	0.027097
748.2590	0.024249
748.4933	0.023426
748.7277	0.022899
748.9620	0.025029
749.1964	0.026063
749.4308	0.027033
749.6652	0.027286
749.8995	0.032771
750.1339	0.032581
750.3684	0.031991
750.6028	0.035450
750.8372	0.033235
751.0717	0.031780
751.3061	0.030788
751.5406	0.031970
751.7750	0.033657
752.0095	0.032096
752.2440	0.030999
752.4785	0.030324
752.7130	0.030577
752.9475	0.029375
753.1820	0.029375
753.4166	0.029860
753.6511	0.032771
753.8856	0.034417
754.1202	0.033784
754.3548	0.032012
754.5894	0.030451
754.8239	0.034817
755.0585	0.032476
755.2931	0.034417
755.5278	0.036357
755.7624	0.033847
755.9970	0.037370
756.2317	0.036948
756.4663	0.038636
756.7010	0.041947
756.9356	0.043783
757.1703	0.044310
757.4050	0.046757
757.6397	0.046863
757.8744	0.049183
758.1091	0.048044
758.3438	0.046905
758.5786	0.043108
758.8133	0.043973
759.0481	0.045091
759.2828	0.045639
759.5176	0.046188
759.7524	0.050955
759.9872	0.047896
760.2220	0.050618
760.4568	0.052073
760.6916	0.052685
760.9264	0.053149
761.1613	0.050850
761.3961	0.048635
761.6310	0.045871
761.8658	0.043023
762.1007	0.041969
762.3356	0.039775
762.5705	0.041357
762.8054	0.039121
763.0403	0.040513
763.2752	0.040956
763.5101	0.042285
763.7450	0.040492
763.9800	0.042580
764.2149	0.043298
764.4499	0.045913
764.6849	0.046293
764.9198	0.048888
765.1548	0.047369
765.3898	0.048171
765.6248	0.045576
765.8599	0.043762
766.0949	0.040977
766.3299	0.041631
766.5650	0.036695
766.8000	0.035809
767.0351	0.031948
767.2701	0.032138
767.5052	0.028278
767.7403	0.032413
767.9754	0.031970
768.2105	0.034691
768.4456	0.035830
768.6808	0.040260
768.9159	0.040851
769.1510	0.040766
769.3862	0.037750
769.6214	0.035830
769.8565	0.036674
770.0917	0.035197
770.3269	0.037560
770.5621	0.038150
770.7973	0.038361
771.0325	0.041420
771.2677	0.039564
771.5030	0.038678
771.7382	0.036062
771.9735	0.035387
772.2087	0.033446
772.4440	0.032750
772.6793	0.034353
772.9146	0.032792
773.1499	0.032096
773.3852	0.030176
773.6205	0.030746
773.8558	0.030725
774.0911	0.030999
774.3265	0.028932
774.5618	0.027160
774.7972	0.024797
775.0326	0.023194
775.2679	0.024671
775.5033	0.022224
775.7387	0.022856
775.9741	0.023890
776.2095	0.023194
776.4450	0.021106
776.6804	0.020684
776.9158	0.020241
777.1513	0.021443
777.3868	0.021633
777.6222	0.019418
777.8577	0.018469
778.0932	0.020494
778.3287	0.020156
778.5642	0.022224
778.7997	0.022181
779.0352	0.023742
779.2707	0.026822
779.5063	0.025831
779.7418	0.025873
779.9774	0.024080
780.2130	0.023700
780.4485	0.022582
780.6841	0.022055
780.9197	0.024565
781.1553	0.027392
781.3909	0.029438
781.6265	0.029944
781.8622	0.028215
782.0978	0.028974
782.3335	0.026822
782.5691	0.027582
782.8048	0.028953
783.0405	0.027961
783.2761	0.026886
783.5118	0.027877
783.7475	0.028742
783.9832	0.029670
784.2190	0.027244
784.4547	0.026506
784.6904	0.023911
784.9262	0.024586
785.1619	0.025029
785.3977	0.024375
785.6335	0.023321
785.8692	0.025683
786.1050	0.022983
786.3408	0.023363
786.5766	0.022371
786.8124	0.022899
787.0483	0.021949
787.2841	0.022540
787.5199	0.024481
787.7558	0.024249
787.9917	0.022646
788.2275	0.024418
788.4634	0.027118
788.6993	0.026654
788.9352	0.026696
789.1711	0.023827
789.4070	0.025683
789.6429	0.023067
789.8789	0.022856
790.1148	0.021970
790.3507	0.020663
790.5867	0.022878
790.8227	0.021084
791.0586	0.019988
791.2946	0.020241
791.5306	0.020409
791.7666	0.020072
792.0026	0.017203
792.2387	0.020009
792.4747	0.020051
792.7107	0.018490
792.9468	0.016697
793.1828	0.018089
793.4189	0.019734
793.6550	0.019017
793.8910	0.022624
794.1271	0.026569
794.3632	0.028447
794.5993	0.026970
794.8355	0.026822
795.0716	0.025451
795.3077	0.026147
795.5439	0.026506
795.7800	0.024987
796.0162	0.022013
796.2523	0.019080
796.4885	0.018637
796.7247	0.017498
796.9609	0.017541
797.1971	0.017372
797.4333	0.019650
797.6695	0.018532
797.9058	0.020409
798.1420	0.018806
798.3783	0.019460
798.6145	0.017857
798.8508	0.018848
799.0871	0.018891
799.3233	0.016802
799.5596	0.019291
799.7959	0.018764
800.0322	0.015431
800.2686	0.016359
800.5049	0.014693
800.7412	0.015431
800.9776	0.015874
801.2139	0.015051
801.4503	0.016064
801.6867	0.015579
801.9230	0.015094
802.1594	0.015600
802.3958	0.013659
802.6322	0.013153
802.8686	0.015347
803.1051	0.015030
803.3415	0.016064
803.5779	0.015642
803.8144	0.015621
804.0508	0.015262
804.2873	0.014840
804.5238	0.015072
804.7603	0.014693
804.9968	0.015558
805.2333	0.014946
805.4698	0.014861
805.7063	0.012984
805.9428	0.018216
806.1794	0.018342
806.4159	0.019671
806.6525	0.020578
806.8890	0.020452
807.1256	0.017604
807.3622	0.017667
807.5988	0.020768
807.8354	0.017330
808.0720	0.018574
808.3086	0.018490
808.5452	0.019629
808.7818	0.018047
809.0185	0.018469
809.2551	0.017688
809.4918	0.018574
809.7284	0.017119
809.9651	0.016465
810.2018	0.016106
810.4385	0.016296
810.6752	0.016633
810.9119	0.015262
811.1486	0.016697
811.3853	0.014418
811.6221	0.014060
811.8588	0.012942
812.0956	0.013786
812.3323	0.014144
812.5691	0.012879
812.8059	0.012309
813.0427	0.012731
813.2795	0.009967
813.5163	0.011317
813.7531	0.014165
813.9899	0.015600
814.2267	0.015790
814.4636	0.015410
814.7004	0.013933
814.9373	0.015199
815.1742	0.014440
815.4110	0.012351
815.6479	0.010727
815.8848	0.012309
816.1217	0.011824
816.3586	0.012077
816.5955	0.010874
816.8324	0.012140
817.0694	0.012900
817.3063	0.013511
817.5433	0.011149
817.7802	0.011613
818.0172	0.012161
818.2542	0.010664
818.4912	0.011402
818.7282	0.010727
818.9652	0.009208
819.2022	0.010431
819.4392	0.011634
819.6762	0.010326
819.9133	0.010431
820.1503	0.010642
820.3874	0.010938
820.6244	0.011803
820.8615	0.013765
821.0986	0.013596
821.3357	0.011170
821.5727	0.010874
821.8099	0.011676
822.0470	0.011191
822.2841	0.009735
822.5212	0.011571
822.7584	0.011043
822.9955	0.010664
823.2327	0.010115
823.4698	0.012056
823.7070	0.009081
823.9442	0.007921
824.1814	0.009714
824.4186	0.009377
824.6558	0.009904
824.8930	0.009398
825.1302	0.008934
825.3675	0.010242
825.6047	0.010157
825.8419	0.009630
826.0792	0.010685
826.3165	0.011043
826.5537	0.010832
826.7910	0.010537
827.0283	0.011254
827.2656	0.011360
827.5029	0.011655
827.7402	0.010579
827.9776	0.011001
828.2149	0.011296
828.4522	0.008385
828.6896	0.009651
828.9270	0.009060
829.1643	0.012014
829.4017	0.009630
829.6391	0.010516
829.8765	0.011170
830.1139	0.008596
830.3513	0.009967
830.5887	0.006550
830.8261	0.007056
831.0636	0.006634
831.3010	0.006149
831.5385	0.007373
831.7759	0.005748
832.0134	0.006972
832.2509	0.006234
832.4884	0.005116
832.7259	0.006888
832.9634	0.007288
833.2009	0.007731
833.4384	0.008006
833.6759	0.007605
833.9135	0.007162
834.1510	0.009166
834.3886	0.009883
834.6261	0.009208
834.8637	0.008892
835.1013	0.010115
835.3389	0.009271
835.5765	0.008322
835.8141	0.007309
836.0517	0.009124
836.2893	0.007689
836.5269	0.007309
836.7646	0.007225
837.0022	0.006529
837.2399	0.005495
837.4775	0.007415
837.7152	0.005980
837.9529	0.006571
838.1906	0.006655
838.4283	0.006086
838.6660	0.005390
838.9037	0.007077
839.1414	0.004019
839.3791	0.006255
839.6169	0.006487
839.8546	0.006234
840.0924	0.006613
840.3302	0.006571
840.5679	0.005453
840.8057	0.006740
841.0435	0.006149
841.2813	0.004905
841.5191	0.005664
841.7569	0.005432
841.9947	0.004736
842.2326	0.004630
842.4704	0.003744
842.7082	0.005390
842.9461	0.003533
843.1840	0.005664
843.4218	0.005369
843.6597	0.003744
843.8976	0.005200
844.1355	0.003660
844.3734	0.005284
844.6113	0.006339
844.8492	0.004588
845.0872	0.006339
845.3251	0.003154
845.5631	0.005727
845.8010	0.005495
846.0390	0.004651
846.2770	0.004251
846.5149	0.004905
846.7529	0.003133
846.9909	0.003765
847.2289	0.003217
847.4669	0.004293
847.7050	0.004757
847.9430	0.004989
848.1810	0.005263
848.4191	0.004968
848.6571	0.003365
848.8952	0.004377
849.1333	0.003491
849.3713	0.003955
849.6094	0.004715
849.8475	0.004715
850.0856	0.003808
850.3237	0.003555
850.5619	0.005769
850.8000	0.004251
851.0381	0.002415
851.2763	0.003702
851.5144	0.004736
851.7526	0.003998
851.9908	0.004208
852.2289	0.005200
852.4671	0.006065
852.7053	0.006149
852.9435	0.008090
853.1817	0.009630
853.4200	0.010917
853.6582	0.012203
853.8964	0.011571
854.1347	0.010980
854.3729	0.010621
854.6112	0.011866
854.8495	0.010221
855.0877	0.011739
855.3260	0.009799
855.5643	0.010896
855.8026	0.009714
856.0409	0.009925
856.2792	0.010178
856.5176	0.010874
856.7559	0.010263
856.9942	0.008470
857.2326	0.007520
857.4710	0.008765
857.7093	0.009967
857.9477	0.009313
858.1861	0.007415
858.4245	0.006487
858.6629	0.008385
858.9013	0.006719
859.1397	0.006698
859.3781	0.008238
859.6166	0.007731
859.8550	0.007204
860.0935	0.006508
860.3319	0.006698
860.5704	0.005495
860.8089	0.005706
861.0473	0.004862
861.2858	0.005980
861.5243	0.004947
861.7628	0.005495
862.0013	0.003597
862.2399	0.005052
862.4784	0.006191
862.7169	0.004483
862.9555	0.004884
863.1940	0.005854
863.4326	0.005179
863.6712	0.007626
863.9098	0.005179
864.1483	0.005559
864.3869	0.005685
864.6255	0.006719
864.8642	0.005664
865.1028	0.006381
865.3414	0.005411
865.5800	0.005179
865.8187	0.004293
866.0573	0.003597
866.2960	0.004715
866.5347	0.004082
866.7733	0.004145
867.0120	0.005685
867.2507	0.005348
867.4894	0.005221
867.7281	0.003512
867.9669	0.004377
868.2056	0.004504
868.4443	0.005052
868.6831	0.004377
868.9218	0.003744
869.1606	0.004778
869.3993	0.004630
869.6381	0.004441
869.8769	0.003787
870.1157	0.003449
870.3545	0.003955
870.5933	0.004082
870.8321	0.005917
871.0709	0.004673
871.3097	0.005179
871.5486	0.003597
871.7874	0.004082
872.0263	0.004989
872.2651	0.004989
872.5040	0.004462
872.7429	0.005073
872.9818	0.004377
873.2207	0.004335
873.4596	0.004525
873.6985	0.003850
873.9374	0.004082
874.1763	0.004694
874.4153	0.005094
874.6542	0.005284
874.8932	0.005010
875.1321	0.004588
875.3711	0.005390
875.6101	0.007183
875.8491	0.006128
876.0880	0.005200
876.3270	0.004799
876.5661	0.004293
876.8051	0.004989
877.0441	0.004525
877.2831	0.004567
877.5222	0.004841
877.7612	0.005305
878.0003	0.005495
878.2393	0.007077
878.4784	0.004483
878.7175	0.005812
878.9566	0.004905
879.1957	0.007035
879.4348	0.006487
879.6739	0.004989
879.9130	0.007394
880.1521	0.007921
880.3913	0.006655
880.6304	0.006613
880.8696	0.006065
881.1087	0.006381
881.3479	0.006655
881.5871	0.006318
881.8262	0.005305
882.0654	0.005516
882.3046	0.004884
882.5438	0.005495
882.7831	0.003955
883.0223	0.004799
883.2615	0.005242
883.5007	0.004968
883.7400	0.004462
883.9792	0.004019
884.2185	0.005706
884.4578	0.005516
884.6971	0.003871
884.9363	0.004398
885.1756	0.004609
885.4149	0.005896
885.6542	0.004968
885.8936	0.005643
886.1329	0.006423
886.3722	0.005580
886.6116	0.005601
886.8509	0.005348
887.0903	0.004884
887.3296	0.005326
887.5690	0.003660
887.8084	0.004630
888.0478	0.005622
888.2872	0.004694
888.5266	0.004082
888.7660	0.003217
889.0054	0.004609
889.2448	0.005411
889.4843	0.004926
889.7237	0.004419
889.9632	0.003175
890.2026	0.003597
890.4421	0.003829
890.6816	0.004082
890.9211	0.003322
891.1606	0.005980
891.4001	0.004799
891.6396	0.004441
891.8791	0.004103
892.1186	0.004208
892.3581	0.003892
892.5977	0.004419
892.8372	0.003787
893.0768	0.003871
893.3163	0.003407
893.5559	0.004293
893.7955	0.002542
894.0351	0.003344
894.2747	0.002985
894.5143	0.003723
894.7539	0.003048
894.9935	0.004483
895.2331	0.003787
895.4727	0.006086
895.7124	0.003618
895.9520	0.005474
896.1917	0.003301
896.4314	0.005242
896.6710	0.004208
896.9107	0.004082
897.1504	0.004208
897.3901	0.003555
897.6298	0.003765
897.8695	0.002901
898.1092	0.004145
898.3489	0.004673
898.5887	0.004124
898.8284	0.003871
899.0682	0.002711
899.3079	0.004124
899.5477	0.002183
899.7875	0.004757
900.0272	0.002436
900.2670	0.003702
900.5068	0.003196
900.7466	0.003470
900.9864	0.002837
901.2263	0.002858
901.4661	0.002732
901.7059	0.002922
901.9458	0.004082
902.1856	0.004525
902.4255	0.003090
902.6654	0.003829
902.9052	0.002837
903.1451	0.003090
903.3850	0.002647
903.6249	0.003069
903.8648	0.003787
904.1047	0.003301
904.3446	0.003913
904.5846	0.005052
904.8245	0.005580
905.0644	0.006023
905.3044	0.003449
905.5444	0.003913
905.7843	0.004968
906.0243	0.004377
906.2643	0.003976
906.5043	0.003259
906.7443	0.004040
906.9843	0.004799
907.2243	0.003322
907.4643	0.004884
907.7043	0.004356
907.9444	0.003576
908.1844	0.001972
908.4245	0.003639
908.6645	0.003470
908.9046	0.003871
909.1447	0.002943
909.3847	0.002626
909.6248	0.003048
909.8649	0.001951
910.1050	0.003069
910.3452	0.003154
910.5853	0.004061
910.8254	0.004208
911.0655	0.002268
911.3057	0.003069
911.5458	0.003217
911.7860	0.003533
912.0262	0.003027
912.2663	0.003850
912.5065	0.002816
912.7467	0.003301
912.9869	0.003217
913.2271	0.004441
913.4673	0.002964
913.7075	0.002943
913.9478	0.002774
914.1880	0.003976
914.4283	0.002036
914.6685	0.003259
914.9088	0.001867
915.1490	0.002879
915.3893	0.004293
915.6296	0.002626
915.8699	0.002943
916.1102	0.002922
916.3505	0.002289
916.5908	0.003365
916.8311	0.002479
917.0714	0.004124
917.3118	0.003006
917.5521	0.005221
917.7925	0.004630
918.0328	0.004546
918.2732	0.005495
918.5136	0.004525
918.7539	0.003365
918.9943	0.004504
919.2347	0.002289
919.4751	0.003660
919.7155	0.002964
919.9560	0.002943
920.1964	0.002690
920.4368	0.004230
920.6773	0.002479
920.9177	0.002247
921.1582	0.002247
921.3986	0.002310
921.6391	0.001382
921.8796	0.004251
922.1201	0.002120
922.3606	0.002415
922.6011	0.003871
922.8416	0.003576
923.0821	0.003217
923.3226	0.002479
923.5631	0.003491
923.8037	0.003681
924.0442	0.001614
924.2848	0.002204
924.5254	0.002183
924.7659	0.002162
925.0065	0.003006
925.2471	0.002310
925.4877	0.002415
925.7283	0.002078
925.9689	0.002099
926.2095	0.003006
926.4501	0.002626
926.6908	0.002626
926.9314	0.001466
927.1720	0.001993
927.4127	0.001888
927.6533	0.002774
927.8940	0.001213
928.1347	0.001340
928.3754	0.001065
928.6161	0.001318
928.8568	0.001930
929.0975	0.001550
929.3382	0.001276
929.5789	0.002922
929.8196	0.001255
930.0604	0.002226
930.3011	0.002099
930.5419	0.002563
930.7826	0.003681
931.0234	0.001107
931.2642	0.001403
931.5049	0.000411
931.7457	0.002436
931.9865	0.002394
932.2273	0.002120
932.4681	0.002985
932.7089	0.001825
932.9498	0.001635
933.1906	0.001635
933.4314	0.002858
933.6723	0.003555
933.9131	0.001993
934.1540	0.001234
934.3949	0.002352
934.6358	0.001783
934.8766	0.001656
935.1175	0.001972
935.3584	-0.000158
935.5993	0.002753
935.8403	0.001550
936.0812	0.000981
936.3221	0.001804
936.5630	0.001804
936.8040	0.002183
937.0449	0.000285
937.2859	0.000369
937.5269	0.000559
937.7678	0.001276
938.0088	0.001023
938.2498	0.001508
938.4908	0.000770
938.7318	0.000833
938.9728	0.001529
939.2138	0.000664
939.4549	0.001993
939.6959	0.000032
939.9369	0.002436
940.1780	0.001340
940.4190	0.000770
940.6601	0.000960
940.9012	0.001930
941.1422	0.001719
941.3833	0.000622
941.6244	-0.000306
941.8655	0.002162
942.1066	0.000918
942.3477	0.002563
942.5889	0.001107
942.8300	0.002479
943.0711	0.001150
943.3123	0.001593
943.5534	0.001276
943.7946	0.001361
944.0357	0.000622
944.2769	0.001698
944.5181	-0.000221
944.7593	0.001656
945.0005	0.001065
945.2417	0.000854
945.4829	0.000664
945.7241	0.001677
945.9653	0.001656
946.2066	0.001065
946.4478	0.001698
946.6891	0.001656
946.9303	0.003238
947.1716	0.000812
947.4128	0.000981
947.6541	0.001276
947.8954	-0.000770
948.1367	0.001698
948.3780	-0.000074
948.6193	0.000707
948.8606	0.000686
949.1019	-0.000538
949.3433	0.000454
949.5846	0.001572
949.8259	0.002036
950.0673	0.001783
950.3086	0.001340
950.5500	0.001677
950.7914	0.000812
951.0327	0.000643
951.2741	0.001466
951.5155	0.001276
951.7569	0.000559
951.9983	0.001192
952.2398	0.000496
952.4812	0.002141
952.7226	0.001023
952.9640	0.001107
953.2055	0.000664
953.4469	0.000285
953.6884	0.002289
953.9299	0.000770
954.1713	0.000622
954.4128	0.001951
954.6543	0.000095
954.8958	0.000348
955.1373	0.001044
955.3788	0.001255
955.6203	0.001107
955.8618	0.001002
956.1034	0.001361
956.3449	0.000390
956.5865	0.000939
956.8280	0.000960
957.0696	0.001361
957.3111	0.000791
957.5527	0.000327
957.7943	0.001171
958.0359	0.001255
958.2775	0.000707
958.5191	0.001086
958.7607	0.000833
959.0023	0.001951
959.2439	0.000264
959.4856	0.000749
959.7272	0.002120
959.9688	0.000728
960.2105	0.000939
960.4522	0.001192
960.6938	0.001361
960.9355	-0.000011
961.1772	0.001107
961.4189	0.000538
961.6606	0.000179
961.9023	0.000158
962.1440	0.001361
962.3857	-0.000475
962.6274	0.001150
962.8692	0.002036
963.1109	0.001445
963.3527	0.002226
963.5944	0.001192
963.8362	-0.000158
964.0779	0.000939
964.3197	-0.000285
964.5615	-0.000158
964.8033	0.000770
965.0451	0.000601
965.2869	0.000538
965.5287	0.000960
965.7705	0.000454
966.0123	0.000643
966.2542	-0.000011
966.4960	0.001107
966.7379	0.001297
966.9797	0.000517
967.2216	0.000496
967.4634	0.000791
967.7053	0.000496
967.9472	-0.000032
968.1891	0.000432
968.4310	0.000939
968.6729	-0.000327
968.9148	0.002352
969.1567	0.001698
969.3987	0.000432
969.6406	0.000538
969.8825	0.000770
970.1245	0.001276
970.3664	0.000369
970.6084	0.000369
970.8504	-0.000306
971.0923	-0.001276
971.3343	-0.000264
971.5763	0.000833
971.8183	0.000432
972.0603	0.000454
972.3023	0.000918
972.5443	0.000770
972.7864	0.000116
973.0284	0.001150
973.2704	-0.000074
973.5125	0.000221
973.7545	0.001993
973.9966	0.000264
974.2387	0.000707
974.4807	0.000264
974.7228	-0.000095
974.9649	0.000348
975.2070	0.001804
975.4491	0.001107
975.6912	0.001403
975.9333	0.001382
976.1755	0.000728
976.4176	0.000116
976.6597	0.001572
976.9019	0.000327
977.1440	0.000960
977.3862	0.000369
977.6283	0.001234
977.8705	-0.000664
978.1127	0.000411
978.3549	-0.000306
978.5971	0.002542
978.8393	0.001761
979.0815	0.000918
979.3237	0.000411
979.5659	0.002078
979.8082	0.000707
980.0504	0.001550
980.2926	0.000833
980.5349	0.001466
980.7771	0.000285
981.0194	0.000981
981.2617	-0.000095
981.5040	0.000559
981.7462	0.000243
981.9885	0.000221
982.2308	0.000074
982.4731	0.000411
982.7155	0.001086
982.9578	0.001276
983.2001	0.001107
983.4424	0.000538
983.6848	0.001276
983.9271	0.000496
984.1695	0.000264
984.4118	0.001466
984.6542	0.002183
984.8966	-0.000601
985.1390	0.001065
985.3814	0.000517
985.6238	0.000749
985.8662	0.001192
986.1086	-0.000411
986.3510	0.002226
986.5934	0.000327
986.8358	0.000918
987.0783	0.000960
987.3207	0.001255
987.5632	0.000221
987.8056	0.000348
988.0481	0.000432
988.2906	-0.000432
988.5331	0.000264
988.7756	-0.000179
989.0180	-0.000285
989.2605	0.001635
989.5031	0.000348
989.7456	-0.000095
989.9881	0.000707
990.2306	0.001867
990.4732	0.001951
990.7157	0.000601
990.9582	-0.000221
991.2008	0.000475
991.4434	0.001487
991.6859	-0.000221
991.9285	0.000221
992.1711	0.000221
992.4137	-0.000243
992.6563	0.000032
992.8989	-0.000812
993.1415	0.001023
993.3841	0.001129
993.6267	-0.000095
993.8694	0.000158
994.1120	0.001171
994.3547	-0.001002
994.5973	0.001340
994.8400	0.001002
995.0826	-0.000327
995.3253	0.000749
995.5680	0.001255
995.8107	-0.000137
996.0534	0.000327
996.2961	0.000707
996.5388	0.000643
996.7815	0.000749
997.0242	0.000243
997.2670	-0.000559
997.5097	0.001171
997.7524	0.001276
997.9952	0.002162
998.2379	0.000221
998.4807	-0.000116
998.7235	-0.000264
998.9662	0.000643
999.2090	-0.000137
999.4518	0.000348
999.6946	-0.000200
999.9374	0.001129
1000.1802	0.000454
1000.4230	-0.000454
1000.6659	0.000454
1000.9087	0.000200
1001.1515	0.001255
1001.3944	-0.000116
1001.6372	0.000158
1001.8801	0.000601
1002.1230	0.001318
1002.3658	0.000601
1002.6087	0.000221
1002.8516	0.000390
1003.0945	0.001086
1003.3374	-0.000032
1003.5803	0.000221
1003.8232	-0.000011
1004.0661	0.000559
1004.3091	0.000664
1004.5520	0.000264
1004.7949	0.001635
1005.0379	0.000981
1005.2808	0.000643
1005.5238	-0.000116
1005.7667	0.000728
1006.0097	0.000897
1006.2527	0.000011
1006.4957	0.000306
1006.7387	0.000939
1006.9817	0.001382
1007.2247	0.001993
1007.4677	0.000327
1007.7107	0.000095
1007.9538	-0.000095
1008.1968	-0.000875
1008.4398	0.000285
1008.6829	0.000643
1008.9259	0.001318
1009.1690	0.000854
1009.4121	0.000032
1009.6551	0.000791
1009.8982	-0.000221
1010.1413	0.000496
1010.3844	0.000432
1010.6275	0.001192
1010.8706	0.000559
1011.1137	-0.000643
1011.3568	-0.000411
1011.6000	0.000011
1011.8431	0.001129
1012.0863	0.000158
1012.3294	0.000432
1012.5726	-0.001107
1012.8157	0.002310
1013.0589	0.000053
1013.3021	0.001129
1013.5452	0.001593
1013.7884	0.000707
1014.0316	0.001255
1014.2748	0.000854
1014.5180	-0.000348
1014.7613	-0.000221
1015.0045	0.000074
1015.2477	0.000221
1015.4909	-0.000285
1015.7342	0.000285
1015.9774	0.001529
1016.2207	0.001086
1016.4640	-0.000496
1016.7072	0.001213
1016.9505	-0.000475
1017.1938	0.000643
1017.4371	0.001150
1017.6804	0.000306
1017.9237	-0.000179
1018.1670	0.000074
1018.4103	0.000496
1018.6536	0.001065
1018.8969	-0.001192
1019.1403	0.000032
1019.3836	-0.000812
1019.6270	-0.000179
1019.8703	-0.000707
1020.1137	-0.000939
1020.3571	-0.001044
1020.6004	0.000749
1020.8438	0.000517
1021.0872	0.001171
1021.3306	0.000158
1021.5740	0.000496
1021.8174	-0.000411
1022.0608	0.001487
1022.3042	-0.000264
1022.5477	0.000707
1022.7911	-0.000686
1023.0345	0.000833
