# Wavelength	Intensity diff (sample - DMSO)
197.780200 0.000211
197.984200 -0.000573
198.188200 -0.001062
198.392200 -0.000210
198.596300 -0.000430
198.800300 -0.000113
199.004400 -0.000432
199.208500 -0.000415
199.412600 -0.000151
199.616800 -0.000591
199.820900 0.000513
200.025100 -0.000948
200.229200 0.000873
200.433400 -0.001087
200.637600 0.000102
200.841800 -0.000844
201.046100 -0.000412
201.250300 -0.000689
201.454600 -0.000548
201.658900 -0.001227
201.863100 -0.000485
202.067400 -0.000375
202.271800 -0.001153
202.476100 0.000249
202.680500 -0.000352
202.884800 -0.001030
203.089200 -0.001115
203.293600 -0.000257
203.498000 -0.000267
203.702400 0.000391
203.906900 -0.000341
204.111300 0.000549
204.315800 0.000524
204.520300 -0.000540
204.724800 0.000278
204.929300 0.000015
205.133800 -0.000886
205.338400 0.000046
205.543000 -0.000946
205.747500 -0.000168
205.952100 0.000074
206.156700 -0.000440
206.361400 0.001102
206.566000 0.000292
206.770600 -0.000042
206.975300 0.000236
207.180000 -0.000194
207.384700 -0.000299
207.589400 0.000566
207.794100 -0.000390
207.998900 -0.000465
208.203600 -0.001683
208.408400 -0.000136
208.613200 -0.000376
208.818000 0.000486
209.022800 0.000117
209.227600 -0.000559
209.432500 -0.000707
209.637300 -0.000999
209.842200 0.000299
210.047100 0.000324
210.252000 0.000003
210.456900 -0.000520
210.661800 -0.000703
210.866800 -0.000074
211.071800 -0.000790
211.276700 -0.000391
211.481700 -0.000260
211.686700 0.000580
211.891800 -0.000299
212.096800 -0.001272
212.301800 -0.001097
212.506900 -0.000900
212.712000 -0.000548
212.917100 -0.001371
213.122200 -0.000021
213.327300 -0.001132
213.532500 0.000278
213.737600 -0.000161
213.942800 0.000510
214.148000 0.000659
214.353200 0.000376
214.558400 -0.000654
214.763600 -0.001677
214.968900 -0.000320
215.174100 -0.001269
215.379400 0.000953
215.584700 -0.000664
215.790000 -0.000963
215.995300 -0.000608
216.200700 0.000193
216.406000 -0.001484
216.611400 -0.000278
216.816800 -0.000974
217.022200 0.000774
217.227600 -0.000780
217.433000 0.000187
217.638400 -0.001351
217.843900 -0.000738
218.049400 0.000833
218.254800 -0.001887
218.460300 -0.002156
218.665900 0.000140
218.871400 -0.001094
219.076900 -0.001052
219.282500 -0.000735
219.488100 -0.001738
219.693600 -0.000682
219.899200 -0.001047
220.104900 -0.000570
220.310500 0.000485
220.516100 0.000925
220.721800 -0.000305
220.927500 -0.000985
221.133200 -0.000260
221.338900 -0.000161
221.544600 -0.000179
221.750300 -0.001340
221.956100 -0.000495
222.161800 -0.000222
222.367600 -0.000499
222.573400 0.000084
222.779200 0.000770
222.985000 0.001354
223.190900 -0.000292
223.396700 0.000000
223.602600 -0.000123
223.808500 -0.000281
224.014400 -0.000359
224.220300 -0.000978
224.426200 -0.000464
224.632200 -0.000538
224.838100 0.000232
225.044100 0.000208
225.250100 0.000155
225.456100 0.000383
225.662100 0.000686
225.868100 0.000221
226.074200 0.000292
226.280200 -0.000330
226.486300 -0.000270
226.692400 0.001044
226.898500 -0.001098
227.104600 -0.000454
227.310700 -0.000460
227.516900 -0.001213
227.723000 0.000317
227.929200 -0.001850
228.135400 -0.000558
228.341600 -0.001492
228.547800 -0.001019
228.754100 -0.000246
228.960300 0.000383
229.166600 0.000739
229.372900 -0.000981
229.579100 -0.000127
229.785500 0.000074
229.991800 0.000334
230.198100 0.000500
230.404500 -0.000152
230.610800 0.000028
230.817200 0.001041
231.023600 -0.000563
231.230000 -0.000021
231.436400 -0.001100
231.642900 -0.000379
231.849300 0.000243
232.055800 -0.000070
232.262300 -0.001263
232.468800 0.000004
232.675300 0.000197
232.881800 0.000337
233.088400 0.000348
233.294900 -0.000316
233.501500 -0.000436
233.708100 0.000137
233.914700 -0.000504
234.121300 0.000418
234.327900 -0.000651
234.534600 -0.000787
234.741300 -0.001467
234.947900 -0.000190
235.154600 -0.001651
235.361300 -0.000978
235.568000 -0.000584
235.774800 -0.000457
235.981500 0.000574
236.188300 0.000907
236.395100 -0.000025
236.601800 0.000210
236.808700 0.000433
237.015500 -0.000644
237.222300 -0.000141
237.429200 -0.001613
237.636000 -0.000235
237.842900 -0.000025
238.049800 0.000103
238.256700 -0.000735
238.463600 0.000366
238.670600 -0.001628
238.877500 -0.001265
239.084500 0.000155
239.291500 -0.000977
239.498500 0.000503
239.705500 0.000682
239.912500 -0.000257
240.119500 0.000348
240.326600 0.000446
240.533700 0.001715
240.740700 0.000296
240.947800 -0.000553
241.154900 -0.001192
241.362100 -0.000231
241.569200 -0.000334
241.776400 -0.001093
241.983500 -0.001041
242.190700 -0.000790
242.397900 0.000749
242.605100 0.000151
242.812400 -0.001108
243.019600 -0.001420
243.226900 0.000257
243.434100 -0.000049
243.641400 -0.000492
243.848700 -0.000288
244.056000 0.000390
244.263400 0.000383
244.470700 -0.001186
244.678100 -0.000298
244.885400 -0.000717
245.092800 -0.000041
245.300200 -0.000520
245.507600 -0.001663
245.715100 -0.000524
245.922500 -0.000327
246.130000 -0.000006
246.337500 -0.000876
246.544900 -0.000295
246.752400 -0.001487
246.960000 -0.000517
247.167500 -0.001217
247.375000 0.000354
247.582600 0.000321
247.790200 0.000454
247.997800 -0.000298
248.205400 -0.001815
248.413000 0.000179
248.620600 -0.000038
248.828300 -0.000502
249.035900 -0.000697
249.243600 -0.000267
249.451300 -0.001793
249.659000 -0.001301
249.866700 -0.001068
250.074500 -0.000604
250.282200 -0.000088
250.490000 -0.000914
250.697800 -0.000566
250.905600 0.000356
251.113400 -0.000313
251.321200 -0.000070
251.529000 0.000134
251.736900 -0.001044
251.944700 -0.000837
252.152600 -0.001150
252.360500 0.000883
252.568400 0.000022
252.776300 0.000182
252.984300 -0.000443
253.192200 -0.000513
253.400200 -0.000400
253.608200 -0.000697
253.816200 -0.001976
254.024200 -0.000538
254.232200 0.000046
254.440200 0.001354
254.648300 -0.000078
254.856400 -0.001407
255.064400 -0.000756
255.272500 -0.000609
255.480600 -0.001143
255.688800 0.000295
255.896900 -0.000182
256.105100 -0.002071
256.313200 0.000106
256.521400 -0.000148
256.729600 0.000272
256.937800 -0.001621
257.146000 -0.000028
257.354300 0.000784
257.562500 -0.000759
257.770800 0.000608
257.979100 -0.001409
258.187400 -0.000432
258.395700 -0.000876
258.604000 -0.001811
258.812400 -0.000306
259.020700 -0.000735
259.229100 -0.000133
259.437500 0.000232
259.645900 -0.000661
259.854300 0.000092
260.062700 -0.001247
260.271100 -0.000696
260.479600 -0.000454
260.688100 0.000321
260.896500 -0.001090
261.105000 0.000211
261.313500 0.000169
261.522100 -0.001442
261.730600 -0.000226
261.939200 -0.000366
262.147700 -0.000544
262.356300 0.000108
262.564900 0.000201
262.773500 -0.001107
262.982200 -0.001506
263.190800 0.001284
263.399500 -0.000523
263.608100 -0.000563
263.816800 -0.000411
264.025500 -0.000843
264.234200 0.000317
264.442900 -0.000046
264.651700 -0.000355
264.860400 -0.001040
265.069200 -0.000475
265.278000 -0.001312
265.486800 -0.000802
265.695600 0.000537
265.904400 -0.000397
266.113300 -0.001077
266.322100 -0.000246
266.531000 -0.000602
266.739900 -0.000222
266.948800 -0.000847
267.157700 -0.000046
267.366600 -0.000851
267.575500 0.001125
267.784500 0.000486
267.993500 -0.001315
268.202400 -0.000875
268.411400 -0.000274
268.620500 -0.000581
268.829500 -0.000178
269.038500 0.000623
269.247600 -0.000590
269.456600 0.000401
269.665700 -0.000590
269.874800 -0.000080
270.083900 -0.001452
270.293100 0.000468
270.502200 -0.000144
270.711400 -0.000574
270.920500 -0.000235
271.129700 -0.001280
271.338900 -0.000352
271.548100 -0.000179
271.757300 -0.000442
271.966600 -0.001104
272.175800 -0.001448
272.385100 -0.001143
272.594400 -0.000488
272.803700 -0.000830
273.013000 -0.000064
273.222300 -0.001118
273.431600 -0.000826
273.641000 -0.001146
273.850400 0.000331
274.059700 -0.001006
274.269100 -0.000885
274.478500 -0.001523
274.688000 -0.001417
274.897400 -0.000612
275.106900 0.000471
275.316300 -0.000387
275.525800 -0.000812
275.735300 0.000158
275.944800 -0.000273
276.154300 -0.000724
276.363900 -0.000977
276.573400 -0.000709
276.783000 -0.000850
276.992600 -0.000812
277.202200 0.000119
277.411800 0.000672
277.621400 -0.000558
277.831000 -0.000973
278.040700 -0.000390
278.250300 -0.000144
278.460000 0.000098
278.669700 -0.001600
278.879400 0.000492
279.089100 0.000039
279.298900 -0.000496
279.508600 -0.001072
279.718400 -0.000780
279.928100 0.000591
280.137900 -0.001716
280.347700 -0.000010
280.557600 0.000053
280.767400 -0.000514
280.977200 0.000117
281.187100 0.000891
281.397000 -0.000917
281.606900 0.001151
281.816800 -0.000474
282.026700 -0.000246
282.236600 -0.000090
282.446600 -0.000710
282.656500 0.000359
282.866500 -0.000672
283.076500 -0.000144
283.286500 -0.000780
283.496500 -0.000844
283.706500 -0.000832
283.916600 -0.000176
284.126600 0.000742
284.336700 0.000127
284.546800 -0.000764
284.756900 -0.000664
284.967000 -0.000306
285.177100 -0.000720
285.387300 0.000549
285.597400 -0.000340
285.807600 -0.000095
286.017800 -0.001501
286.228000 0.000418
286.438200 -0.000482
286.648400 -0.001044
286.858700 -0.001086
287.068900 -0.000495
287.279200 -0.000292
287.489500 -0.000566
287.699800 -0.000834
287.910100 -0.000028
288.120400 -0.000430
288.330800 0.000203
288.541100 -0.002040
288.751500 -0.000189
288.961900 0.000260
289.172300 0.001023
289.382700 -0.000495
289.593100 0.000486
289.803500 0.001410
290.014000 -0.001185
290.224500 -0.000791
290.434900 0.001434
290.645400 0.000240
290.855900 0.000257
291.066500 -0.000812
291.277000 0.000025
291.487500 -0.000386
291.698100 0.000394
291.908700 0.000208
292.119300 -0.001114
292.329900 -0.000186
292.540500 -0.000532
292.751100 0.000907
292.961800 0.001478
293.172400 -0.001227
293.383100 0.000229
293.593800 -0.000035
293.804500 0.000204
294.015200 -0.000629
294.226000 0.000418
294.436700 0.000478
294.647500 -0.000612
294.858200 0.000018
295.069000 -0.000626
295.279800 0.000556
295.490600 -0.000348
295.701500 -0.000285
295.912300 -0.000806
296.123200 -0.000380
296.334000 -0.000506
296.544900 -0.001409
296.755800 -0.000977
296.966700 -0.000291
297.177700 -0.000852
297.388600 -0.001033
297.599500 0.000289
297.810500 -0.000278
298.021500 -0.000211
298.232500 -0.000218
298.443500 -0.000285
298.654500 -0.001114
298.865600 -0.001480
299.076600 -0.000021
299.287700 0.000675
299.498800 -0.000383
299.709900 -0.000801
299.921000 -0.001354
300.132100 -0.001033
300.343200 -0.001101
300.554400 -0.000627
300.765500 0.000289
300.976700 0.000154
301.187900 -0.000235
301.399100 -0.000057
301.610300 -0.000725
301.821500 -0.001433
302.032800 -0.000727
302.244100 -0.001516
302.455300 -0.001185
302.666600 -0.001435
302.877900 -0.000794
303.089200 0.000345
303.300600 -0.000668
303.511900 -0.000868
303.723300 -0.000555
303.934600 -0.001284
304.146000 -0.000109
304.357400 0.000464
304.568800 -0.000918
304.780300 -0.000716
304.991700 0.000379
305.203100 0.000351
305.414600 -0.000338
305.626100 0.000820
305.837600 -0.000847
306.049100 -0.000397
306.260600 -0.001199
306.472200 0.000510
306.683700 0.000963
306.895300 0.000760
307.106900 -0.001019
307.318400 -0.000777
307.530100 0.000025
307.741700 -0.000130
307.953300 -0.000668
308.165000 0.000595
308.376600 -0.000861
308.588300 -0.001195
308.800000 0.000554
309.011700 -0.001736
309.223400 0.000271
309.435100 -0.000053
309.646900 -0.000175
309.858600 -0.000231
310.070400 -0.000463
310.282200 0.000848
310.494000 -0.001279
310.705800 -0.000703
310.917600 0.000352
311.129500 -0.000217
311.341300 -0.001258
311.553200 -0.000456
311.765100 -0.000362
311.977000 -0.000872
312.188900 -0.000704
312.400800 0.000161
312.612700 0.000057
312.824700 -0.001871
313.036600 0.000707
313.248600 -0.001554
313.460600 0.000679
313.672600 -0.000706
313.884600 -0.000190
314.096700 -0.000169
314.308700 -0.001814
314.520800 0.000313
314.732800 -0.000773
314.944900 -0.000559
315.157000 0.000026
315.369200 0.000383
315.581300 -0.000123
315.793400 0.001003
316.005600 0.000163
316.217700 -0.000801
316.429900 -0.002222
316.642100 -0.001139
316.854300 0.000008
317.066600 -0.002116
317.278800 -0.001407
317.491100 -0.001103
317.703300 -0.001322
317.915600 -0.000618
318.127900 -0.001782
318.340200 0.000257
318.552500 -0.000193
318.764900 0.000468
318.977200 -0.000386
319.189600 -0.000253
319.401900 -0.000948
319.614300 0.000335
319.826700 -0.000695
320.039200 -0.001494
320.251600 -0.000200
320.464000 -0.000238
320.676500 -0.000593
320.889000 0.001097
321.101400 -0.000970
321.313900 -0.000590
321.526500 -0.001518
321.739000 -0.001005
321.951500 -0.000688
322.164100 0.000862
322.376600 -0.001350
322.589200 -0.000959
322.801800 -0.000006
323.014400 -0.000414
323.227000 0.000054
323.439700 -0.000209
323.652300 -0.000699
323.865000 -0.000650
324.077700 0.000131
324.290400 0.000219
324.503100 -0.000045
324.715800 0.000585
324.928500 0.000040
325.141200 0.000318
325.354000 -0.001961
325.566800 -0.000425
325.779600 -0.000756
325.992400 0.001098
326.205200 -0.001022
326.418000 -0.000797
326.630800 -0.000689
326.843700 -0.001823
327.056600 0.000522
327.269400 0.000367
327.482300 -0.000657
327.695200 0.000153
327.908200 -0.000421
328.121100 -0.000013
328.334000 -0.000709
328.547000 -0.002246
328.760000 -0.000055
328.973000 -0.001545
329.186000 -0.000139
329.399000 -0.000285
329.612000 -0.001056
329.825100 -0.000189
330.038100 0.000498
330.251200 -0.000536
330.464300 -0.001483
330.677400 -0.001214
330.890500 -0.002646
331.103600 -0.000579
331.316700 -0.001624
331.529900 -0.000674
331.743100 0.000085
331.956200 -0.000466
332.169400 -0.000164
332.382600 -0.000072
332.595900 -0.001532
332.809100 -0.000694
333.022300 -0.000048
333.235600 0.000248
333.448900 -0.000037
333.662200 -0.000576
333.875500 -0.000442
334.088800 0.000222
334.302100 -0.001151
334.515400 -0.001170
334.728800 -0.000427
334.942200 0.000354
335.155500 0.001060
335.368900 -0.000568
335.582300 0.000547
335.795800 -0.001373
336.009200 -0.001095
336.222700 -0.000856
336.436100 0.000193
336.649600 -0.002048
336.863100 0.000001
337.076600 -0.001288
337.290100 -0.000740
337.503600 -0.000047
337.717200 -0.000283
337.930700 -0.000529
338.144300 -0.001521
338.357900 0.001092
338.571500 0.000780
338.785100 0.000511
338.998700 0.000357
339.212400 -0.000969
339.426000 -0.000480
339.639700 0.000378
339.853300 -0.000268
340.067000 -0.000726
340.280700 0.000864
340.494500 -0.000979
340.708200 0.000923
340.921900 -0.000630
341.135700 0.001469
341.349500 0.000625
341.563300 0.000572
341.777100 -0.001390
341.990900 -0.001176
342.204700 0.000216
342.418500 -0.001037
342.632400 -0.001144
342.846300 -0.000367
343.060100 0.001135
343.274000 -0.000160
343.487900 -0.001088
343.701900 0.000488
343.915800 0.000041
344.129700 -0.001147
344.343700 0.000280
344.557700 -0.000647
344.771700 0.000621
344.985700 -0.001795
345.199700 -0.000208
345.413700 -0.002196
345.627700 0.000066
345.841800 -0.001045
346.055900 -0.000475
346.269900 -0.000669
346.484000 -0.001675
346.698100 0.000857
346.912300 -0.000364
347.126400 -0.001101
347.340600 -0.000644
347.554700 0.000471
347.768900 0.000214
347.983100 -0.001122
348.197300 -0.000416
348.411500 0.000893
348.625700 0.000425
348.840000 -0.000043
349.054200 -0.001003
349.268500 -0.001632
349.482800 -0.000007
349.697100 0.000377
349.911400 0.000180
350.125700 -0.000341
350.340000 -0.000588
350.554400 -0.000746
350.768700 -0.000827
350.983100 0.001118
351.197500 0.001034
351.411900 -0.001738
351.626300 -0.000801
351.840700 -0.000852
352.055200 0.000493
352.269600 -0.000622
352.484100 -0.000774
352.698600 -0.001456
352.913100 0.001354
353.127600 -0.001262
353.342100 -0.000095
353.556600 -0.001195
353.771200 0.000064
353.985800 -0.000254
354.200300 0.000035
354.414900 -0.000053
354.629500 0.000918
354.844100 -0.000601
355.058800 -0.000865
355.273400 0.000131
355.488100 -0.000331
355.702700 0.000637
355.917400 0.000685
356.132100 -0.001483
356.346800 -0.000291
356.561500 -0.000622
356.776300 -0.000362
356.991000 -0.000871
357.205800 -0.001125
357.420600 0.000528
357.635300 -0.000567
357.850100 -0.000291
358.065000 0.000247
358.279800 0.000634
358.494600 -0.000317
358.709500 -0.000323
358.924300 0.000408
359.139200 -0.000186
359.354100 0.000373
359.569000 0.000408
359.783900 -0.000028
359.998900 0.000834
360.213800 -0.000006
360.428800 -0.001567
360.643800 0.000795
360.858700 0.001612
361.073700 -0.001136
361.288800 -0.000992
361.503800 -0.000158
361.718800 0.000933
361.933900 -0.000183
362.148900 -0.000186
362.364000 0.000585
362.579100 -0.001586
362.794200 0.000486
363.009300 -0.000193
363.224500 -0.000218
363.439600 -0.000329
363.654800 -0.001226
363.869900 0.000525
364.085100 -0.000041
364.300300 0.000320
364.515500 -0.000811
364.730800 -0.000840
364.946000 -0.000326
365.161200 -0.000270
365.376500 -0.000956
365.591800 -0.000298
365.807100 0.000982
366.022400 0.000180
366.237700 -0.000344
366.453000 -0.001712
366.668400 -0.000471
366.883700 0.000159
367.099100 0.000624
367.314500 0.000181
367.529900 -0.000340
367.745300 0.000058
367.960700 -0.000013
368.176100 0.000999
368.391600 -0.000428
368.607000 -0.000818
368.822500 -0.001090
369.038000 -0.000523
369.253500 0.000740
369.469000 -0.000539
369.684500 -0.000367
369.900100 -0.000417
370.115600 0.001528
370.331200 0.001756
370.546800 -0.000026
370.762400 -0.000765
370.978000 0.000349
371.193600 0.000385
371.409200 0.000138
371.624900 -0.000420
371.840500 -0.002221
372.056200 0.000068
372.271900 0.000479
372.487600 -0.001408
372.703300 -0.000287
372.919000 0.001522
373.134800 -0.000615
373.350500 0.000765
373.566300 -0.000690
373.782000 0.001050
373.997800 -0.000624
374.213600 0.000442
374.429400 0.000270
374.645300 -0.000156
374.861100 0.000336
375.077000 0.000772
375.292800 0.000783
375.508700 0.001006
375.724600 -0.000128
375.940500 0.000689
376.156400 0.000456
376.372400 -0.000714
376.588300 -0.000004
376.804300 0.000112
377.020300 -0.001051
377.236200 -0.000995
377.452200 -0.000686
377.668200 0.000225
377.884300 0.000053
378.100300 0.001150
378.316400 -0.001452
378.532400 -0.000105
378.748500 -0.000829
378.964600 -0.000165
379.180700 -0.000333
379.396800 -0.000093
379.612900 0.000844
379.829100 0.000589
380.045200 0.001045
380.261400 -0.000565
380.477600 -0.000994
380.693800 0.002251
380.910000 -0.001440
381.126200 0.001960
381.342400 -0.000776
381.558700 0.001816
381.774900 0.001213
381.991200 0.001412
382.207500 0.001088
382.423800 -0.000695
382.640100 -0.000554
382.856400 0.000147
383.072800 0.001771
383.289100 -0.000954
383.505500 -0.001176
383.721900 0.000146
383.938200 0.000423
384.154600 0.001862
384.371100 0.000790
384.587500 0.000638
384.803900 0.000280
385.020400 0.001156
385.236800 0.000396
385.453300 -0.000332
385.669800 0.001522
385.886300 0.000775
386.102800 0.000942
386.319400 0.000181
386.535900 -0.000065
386.752500 -0.000469
386.969000 0.001708
387.185600 0.001772
387.402200 0.000246
387.618800 0.000738
387.835500 0.001164
388.052100 -0.000789
388.268700 0.000569
388.485400 0.000885
388.702100 -0.000676
388.918800 0.001892
389.135500 -0.001109
389.352200 -0.000151
389.568900 0.001220
389.785600 -0.000106
390.002400 0.001381
390.219200 0.001831
390.435900 -0.001073
390.652700 0.001625
390.869500 -0.000675
391.086300 -0.000626
391.303200 0.000253
391.520000 0.001281
391.736900 0.001100
391.953700 0.001984
392.170600 0.000665
392.387500 0.001298
392.604400 -0.000262
392.821300 0.001643
393.038300 0.001135
393.255200 -0.000089
393.472200 0.001239
393.689100 0.000082
393.906100 0.002149
394.123100 0.001608
394.340100 0.001398
394.557200 0.001609
394.774200 0.000539
394.991200 0.001503
395.208300 0.001597
395.425400 0.001743
395.642500 0.000965
395.859600 0.000311
396.076700 0.001042
396.293800 0.001324
396.510900 -0.000319
396.728100 0.000329
396.945300 -0.000389
397.162400 0.001332
397.379600 0.000942
397.596800 0.002232
397.814000 0.000540
398.031300 -0.000797
398.248500 0.000507
398.465800 -0.000510
398.683000 0.002012
398.900300 0.001587
399.117600 0.002065
399.334900 0.000633
399.552200 0.000503
399.769600 0.001568
399.986900 -0.000043
400.204300 0.000910
400.421600 0.001599
400.639000 -0.000032
400.856400 0.000854
401.073800 0.003037
401.291200 0.000675
401.508700 0.001554
401.726100 -0.000736
401.943600 0.001965
402.161000 0.000984
402.378500 0.001586
402.596000 0.000390
402.813500 0.001458
403.031000 -0.000472
403.248600 0.000801
403.466100 0.000893
403.683700 0.000693
403.901300 0.001125
404.118900 0.001659
404.336500 0.001227
404.554100 0.001660
404.771700 0.000616
404.989300 0.001987
405.207000 0.000193
405.424600 0.001446
405.642300 -0.000443
405.860000 -0.000176
406.077700 0.001646
406.295400 -0.000017
406.513100 0.001019
406.730900 0.002560
406.948600 0.000752
407.166400 -0.000620
407.384200 0.000868
407.602000 0.002366
407.819800 0.000910
408.037600 0.000057
408.255400 0.000998
408.473300 0.000717
408.691100 0.000275
408.909000 0.001347
409.126900 0.000984
409.344800 0.000552
409.562700 0.002444
409.780600 -0.000158
409.998500 0.000823
410.216500 0.002549
410.434400 -0.000293
410.652400 0.000646
410.870400 -0.000683
411.088400 0.000056
411.306400 0.000600
411.524400 -0.000067
411.742400 0.001589
411.960500 0.000200
412.178500 0.001076
412.396600 0.002690
412.614700 0.001158
412.832800 0.001548
413.050900 -0.000520
413.269000 0.001118
413.487100 -0.000183
413.705300 0.000771
413.923400 0.001340
414.141600 0.001140
414.359800 0.001422
414.578000 0.000830
414.796200 0.002212
415.014400 -0.000921
415.232600 0.001484
415.450900 0.000267
415.669200 0.002806
415.887400 -0.000837
416.105700 -0.000813
416.324000 0.000113
416.542300 0.000665
416.760600 0.001302
416.979000 0.000988
417.197300 0.001998
417.415700 0.001871
417.634100 0.001544
417.852400 0.000471
418.070800 0.000725
418.289300 -0.000745
418.507700 0.001955
418.726100 0.000334
418.944600 0.000813
419.163000 0.002962
419.381500 0.002312
419.600000 0.000828
419.818500 0.000781
420.037000 0.000834
420.255500 0.000128
420.474100 -0.000533
420.692600 0.000459
420.911200 0.001142
421.129800 -0.000036
421.348300 0.000503
421.566900 0.000798
421.785600 0.000901
422.004200 0.000756
422.222800 0.001516
422.441500 0.000433
422.660100 0.002317
422.878800 0.001055
423.097500 0.002689
423.316200 0.001170
423.534900 0.001968
423.753600 0.002324
423.972400 0.000597
424.191100 0.001570
424.409900 0.000927
424.628700 0.001482
424.847500 0.001433
425.066300 0.000903
425.285100 0.001096
425.503900 0.002204
425.722800 0.001950
425.941600 0.000930
426.160500 0.002287
426.379300 0.000715
426.598200 0.002153
426.817100 0.002216
427.036100 0.000680
427.255000 0.001507
427.473900 -0.000329
427.692900 -0.000753
427.911800 -0.000603
428.130800 0.001683
428.349800 -0.000122
428.568800 -0.000189
428.787800 0.001423
429.006800 0.000882
429.225900 0.000839
429.444900 0.000597
429.664000 0.002259
429.883100 -0.000674
430.102200 0.000188
430.321300 0.000934
430.540400 0.001634
430.759500 0.001859
430.978700 -0.000151
431.197800 0.000616
431.417000 0.002916
431.636200 0.002064
431.855300 0.002679
432.074500 0.001201
432.293800 0.001078
432.513000 0.000709
432.732200 0.000557
432.951500 0.000733
433.170700 -0.001053
433.390000 0.000441
433.609300 -0.001860
433.828600 -0.000200
434.047900 -0.000423
434.267300 0.001080
434.486600 0.002053
434.705900 0.002539
434.925300 -0.001720
435.144700 0.001212
435.364100 -0.000035
435.583500 0.001164
435.802900 0.002370
436.022300 0.000530
436.241800 0.001121
436.461200 0.000784
436.680700 0.001084
436.900100 0.000775
437.119600 0.000510
437.339100 0.000769
437.558600 0.000618
437.778200 0.000520
437.997700 0.001047
438.217300 0.001997
438.436800 0.001520
438.656400 -0.000446
438.876000 0.002521
439.095600 0.003594
439.315200 0.001952
439.534800 0.002036
439.754500 0.002997
439.974100 -0.000259
440.193800 0.000229
440.413500 -0.000970
440.633100 0.001308
440.852800 -0.000305
441.072500 -0.001756
441.292300 -0.001619
441.512000 -0.000947
441.731800 -0.000746
441.951500 0.001031
442.171300 0.000557
442.391100 0.002282
442.610900 -0.000210
442.830700 0.001430
443.050500 0.000636
443.270300 0.001208
443.490200 0.004199
443.710100 0.001604
443.929900 0.001053
444.149800 0.000518
444.369700 0.002180
444.589600 0.003045
444.809500 0.000497
445.029500 -0.000267
445.249400 0.002191
445.469400 0.000179
445.689400 0.002046
445.909300 0.001515
446.129300 -0.000081
446.349300 0.000534
446.569400 0.000476
446.789400 0.000707
447.009400 -0.000970
447.229500 0.002852
447.449600 0.001305
447.669600 0.001919
447.889700 0.001730
448.109800 0.003252
448.330000 0.001658
448.550100 -0.001597
448.770200 0.002043
448.990400 0.000418
449.210600 0.000728
449.430700 0.000692
449.650900 0.000059
449.871100 0.001377
450.091400 0.001751
450.311600 -0.000292
450.531800 0.002689
450.752100 0.001081
450.972400 0.004028
451.192600 0.001767
451.412900 -0.000800
451.633200 0.001214
451.853500 0.001413
452.073900 0.000146
452.294200 0.001060
452.514600 0.000512
452.734900 0.003061
452.955300 0.003201
453.175700 0.002213
453.396100 0.000160
453.616500 0.003320
453.836900 0.000515
454.057400 0.002090
454.277800 0.002821
454.498300 0.001874
454.718800 0.001733
454.939300 0.000927
455.159700 0.001355
455.380300 0.002340
455.600800 0.003368
455.821300 0.002959
456.041900 0.001564
456.262400 0.001210
456.483000 -0.000242
456.703600 0.003054
456.924200 0.001531
457.144800 0.003240
457.365400 0.002101
457.586000 0.000962
457.806700 0.000072
458.027400 0.000738
458.248000 0.002187
458.468700 0.000776
458.689400 0.001986
458.910100 0.001983
459.130800 -0.000373
459.351600 0.002822
459.572300 0.001553
459.793100 0.001388
460.013800 0.001821
460.234600 0.001079
460.455400 0.000686
460.676200 0.002759
460.897000 0.001419
461.117800 0.000200
461.338700 0.000991
461.559500 0.000815
461.780400 0.005530
462.001300 0.001650
462.222200 0.004787
462.443100 0.000531
462.664000 0.001836
462.884900 0.005124
463.105900 0.001804
463.326800 -0.000065
463.547800 -0.000061
463.768700 -0.000897
463.989700 0.000087
464.210700 0.002321
464.431700 0.001375
464.652800 0.000803
464.873800 -0.000322
465.094800 0.001721
465.315900 0.001623
465.537000 0.000240
465.758100 -0.000321
465.979200 0.001074
466.200300 0.002703
466.421400 0.002342
466.642500 0.000735
466.863700 0.000446
467.084800 0.002095
467.306000 0.001880
467.527200 0.000115
467.748400 0.000713
467.969600 -0.000290
468.190800 -0.000737
468.412000 -0.000073
468.633300 0.000943
468.854500 0.000978
469.075800 0.001534
469.297000 0.001463
469.518300 0.001621
469.739600 0.002176
469.961000 0.004951
470.182300 0.001577
470.403600 0.001328
470.625000 0.001071
470.846300 -0.000251
471.067700 0.001665
471.289100 -0.000589
471.510500 0.002576
471.731900 0.001696
471.953300 0.002960
472.174800 0.000269
472.396200 0.002770
472.617700 -0.001143
472.839100 0.000175
473.060600 -0.001020
473.282100 -0.000400
473.503600 0.000715
473.725100 -0.001734
473.946700 0.000044
474.168200 0.000454
474.389800 0.001295
474.611300 -0.000041
474.832900 0.000833
475.054500 0.000962
475.276100 0.000635
475.497700 0.004293
475.719300 0.002805
475.941000 0.001781
476.162600 0.000283
476.384300 0.001609
476.606000 0.002719
476.827700 0.001127
477.049400 0.001137
477.271100 0.001509
477.492800 0.000507
477.714500 0.002405
477.936300 -0.000856
478.158000 0.001577
478.379800 -0.000911
478.601600 0.000681
478.823400 0.000173
479.045200 0.001339
479.267000 0.002185
479.488800 0.000916
479.710700 0.001806
479.932500 0.002323
480.154400 0.000102
480.376300 0.001905
480.598200 -0.000872
480.820100 0.002081
481.042000 0.001083
481.263900 0.001026
481.485900 0.001255
481.707800 0.000010
481.929800 0.000696
482.151700 0.000764
482.373700 0.001724
482.595700 0.002088
482.817700 0.000045
483.039800 0.000642
483.261800 0.000414
483.483800 -0.001189
483.705900 0.002205
483.928000 0.001913
484.150100 0.000395
484.372100 -0.000347
484.594300 0.000296
484.816400 0.002633
485.038500 0.000544
485.260600 0.001184
485.482800 -0.005326
485.705000 -0.017307
485.927100 -0.013063
486.149300 0.002051
486.371500 0.015451
486.593700 0.013408
486.816000 0.006140
487.038200 0.007196
487.260500 0.005675
487.482700 0.007177
487.705000 0.006320
487.927300 0.003088
488.149600 0.001767
488.371900 0.001513
488.594200 0.002072
488.816500 0.002588
489.038900 0.000995
489.261200 -0.000052
489.483600 0.002378
489.706000 0.003106
489.928400 0.001194
490.150800 0.000525
490.373200 0.002029
490.595600 0.001768
490.818000 0.000833
491.040500 0.000647
491.263000 0.002560
491.485400 0.000193
491.707900 -0.000278
491.930400 -0.000574
492.152900 0.002503
492.375500 -0.000392
492.598000 0.000656
492.820500 0.000281
493.043100 -0.000764
493.265700 -0.000170
493.488200 -0.000190
493.710800 0.003531
493.933400 -0.000865
494.156100 0.001894
494.378700 0.001326
494.601300 0.000348
494.824000 -0.000806
495.046600 0.002524
495.269300 0.001406
495.492000 0.000883
495.714700 0.001127
495.937400 0.001044
496.160100 -0.001175
496.382900 0.000181
496.605600 -0.000002
496.828400 0.000579
497.051100 0.001348
497.273900 0.000145
497.496700 0.001121
497.719500 0.001605
497.942300 0.000357
498.165200 0.000323
498.388000 -0.001858
498.610900 0.001750
498.833700 0.000083
499.056600 0.001635
499.279500 0.000980
499.502400 0.000708
499.725300 -0.001044
499.948200 0.001569
500.171200 0.001723
500.394100 0.000548
500.617100 0.001399
500.840000 0.000917
501.063000 0.000439
501.286000 -0.001759
501.509000 0.001900
501.732000 0.001362
501.955100 0.002617
502.178100 0.001583
502.401200 -0.000239
502.624200 0.001078
502.847300 0.002955
503.070400 0.001945
503.293500 0.001503
503.516600 0.003348
503.739700 0.001306
503.962800 0.002641
504.186000 0.002388
504.409200 0.000147
504.632300 0.000998
504.855500 -0.000401
505.078700 0.000153
505.301900 0.000510
505.525100 -0.001256
505.748300 0.000798
505.971600 0.001971
506.194800 -0.000790
506.418100 0.000506
506.641400 0.001618
506.864700 0.002877
507.088000 0.004201
507.311300 0.002819
507.534600 0.001834
507.757900 -0.000807
507.981300 0.000069
508.204600 0.000470
508.428000 -0.000381
508.651400 0.002731
508.874800 0.001218
509.098200 -0.000322
509.321600 0.002645
509.545000 0.000191
509.768500 0.000096
509.991900 0.000038
510.215400 0.000171
510.438800 0.002428
510.662300 0.001215
510.885800 0.002209
511.109300 -0.000183
511.332900 -0.000687
511.556400 0.001422
511.779900 -0.001144
512.003500 -0.000143
512.227000 0.000118
512.450600 0.003443
512.674200 0.000388
512.897800 0.000862
513.121400 -0.000853
513.345100 0.002012
513.568700 0.002307
513.792300 0.002687
514.016000 0.001164
514.239700 -0.000535
514.463400 0.001787
514.687100 0.002353
514.910800 0.001287
515.134500 0.000528
515.358200 -0.000641
515.581900 0.000154
515.805700 -0.001070
516.029500 -0.001552
516.253200 0.000844
516.477000 -0.000827
516.700800 0.000291
516.924600 0.000857
517.148500 0.002219
517.372300 0.001023
517.596100 0.001728
517.820000 -0.001531
518.043900 -0.001155
518.267700 -0.000864
518.491600 0.001191
518.715500 0.001148
518.939500 -0.001447
519.163400 0.001560
519.387300 -0.001312
519.611300 0.000246
519.835200 0.001282
520.059200 0.000621
520.283200 0.000863
520.507200 0.000831
520.731200 0.000679
520.955200 -0.001366
521.179200 0.000916
521.403300 0.000687
521.627300 0.004449
521.851400 0.001784
522.075500 0.000695
522.299600 -0.000024
522.523700 0.001930
522.747800 0.002371
522.971900 0.000442
523.196000 0.000226
523.420200 0.000585
523.644300 0.002543
523.868500 -0.000228
524.092700 0.001048
524.316900 0.000835
524.541100 0.000644
524.765300 0.001763
524.989500 -0.000320
525.213800 0.001137
525.438000 0.000188
525.662300 -0.001409
525.886500 0.000620
526.110800 0.001049
526.335100 0.000714
526.559400 0.002839
526.783700 0.000348
527.008100 0.000113
527.232400 0.002208
527.456800 0.000874
527.681100 0.001742
527.905500 0.001752
528.129900 0.000155
528.354300 0.001552
528.578700 0.000195
528.803100 0.002083
529.027600 0.001503
529.252000 -0.000603
529.476500 -0.000653
529.700900 0.002922
529.925400 0.000706
530.149900 0.001432
530.374400 -0.001009
530.598900 0.000694
530.823400 -0.001904
531.048000 0.001088
531.272500 0.000747
531.497100 0.000423
531.721700 0.000257
531.946200 -0.000699
532.170800 0.002318
532.395400 0.002452
532.620000 -0.000305
532.844700 -0.000107
533.069300 -0.000222
533.294000 0.000137
533.518600 0.001847
533.743300 0.002904
533.968000 -0.000562
534.192700 0.001396
534.417400 -0.000667
534.642100 -0.000660
534.866800 0.001290
535.091600 0.000768
535.316300 0.002086
535.541100 0.001304
535.765900 0.002694
535.990700 -0.000742
536.215500 0.002243
536.440300 0.001430
536.665100 0.001039
536.889900 0.001408
537.114800 0.003382
537.339600 0.002006
537.564500 -0.001426
537.789400 0.000227
538.014300 -0.000441
538.239200 0.001055
538.464100 0.000287
538.689000 0.000890
538.913900 0.001815
539.138900 0.001987
539.363800 0.001154
539.588800 0.001725
539.813800 0.000040
540.038800 0.000895
540.263800 0.002163
540.488800 0.000949
540.713800 0.001812
540.938900 0.002100
541.163900 0.000754
541.389000 0.003539
541.614000 0.001204
541.839100 0.002501
542.064200 0.000398
542.289300 -0.000529
542.514400 0.001032
542.739600 0.000566
542.964700 0.000055
543.189900 0.000298
543.415000 -0.000460
543.640200 0.000340
543.865400 -0.000937
544.090600 0.001942
544.315800 0.000857
544.541000 -0.000148
544.766200 0.001244
544.991500 0.000745
545.216700 0.000819
545.442000 0.000327
545.667300 0.000439
545.892600 0.001907
546.117900 0.001566
546.343200 -0.000977
546.568500 0.000286
546.793800 0.001492
547.019200 0.000451
547.244500 -0.000477
547.469900 0.000256
547.695300 0.000597
547.920600 -0.000781
548.146000 0.000236
548.371500 0.000096
548.596900 0.001273
548.822300 0.001081
549.047800 0.001533
549.273200 0.002372
549.498700 0.004147
549.724200 0.000048
549.949600 0.001760
550.175100 0.000828
550.400700 0.005009
550.626200 0.000205
550.851700 -0.001406
551.077300 0.001056
551.302800 0.000433
551.528400 0.001336
551.754000 -0.001684
551.979600 -0.001510
552.205200 0.001108
552.430800 0.000261
552.656400 0.001607
552.882000 0.000341
553.107700 -0.000672
553.333300 0.000812
553.559000 0.001526
553.784700 0.000247
554.010400 -0.000443
554.236100 0.001480
554.461800 -0.000280
554.687500 0.001763
554.913200 0.000959
555.139000 0.001827
555.364800 -0.000860
555.590500 0.000123
555.816300 0.002799
556.042100 0.000909
556.267900 0.001331
556.493700 0.000770
556.719500 0.003369
556.945400 0.000375
557.171200 0.001345
557.397100 0.000628
557.623000 0.000596
557.848800 0.002088
558.074700 0.000766
558.300600 0.002113
558.526600 0.002373
558.752500 0.001207
558.978400 0.002142
559.204400 0.001471
559.430300 0.001319
559.656300 0.000897
559.882300 0.001076
560.108300 0.000973
560.334300 0.001367
560.560300 0.000068
560.786300 0.000476
561.012400 0.000435
561.238400 0.002901
561.464500 0.002623
561.690500 0.002809
561.916600 0.000894
562.142700 0.003312
562.368800 0.001292
562.594900 0.000651
562.821100 0.000775
563.047200 0.001436
563.273300 0.000426
563.499500 0.003078
563.725700 0.001293
563.951900 0.001665
564.178100 0.001336
564.404300 0.000035
564.630500 -0.000381
564.856700 0.000829
565.082900 0.000355
565.309200 0.001695
565.535500 0.001189
565.761700 0.003236
565.988000 0.002032
566.214300 0.003070
566.440600 0.003510
566.666900 0.002684
566.893200 0.000772
567.119600 0.000541
567.345900 0.000177
567.572300 0.000945
567.798700 0.003711
568.025000 0.003478
568.251400 0.000054
568.477800 0.000555
568.704300 0.001313
568.930700 0.000555
569.157100 -0.001371
569.383600 0.002831
569.610000 0.000827
569.836500 -0.000980
570.063000 0.003410
570.289500 0.003579
570.516000 0.002002
570.742500 0.006286
570.969000 -0.000027
571.195600 0.000776
571.422100 0.004284
571.648700 0.002734
571.875200 0.001868
572.101800 0.003070
572.328400 0.003275
572.555000 0.006450
572.781600 0.005509
573.008200 0.002267
573.234900 -0.004266
573.461500 -0.002597
573.688200 -0.001344
573.914900 0.000720
574.141500 0.001081
574.368200 0.001664
574.594900 0.005521
574.821600 0.004737
575.048400 0.002474
575.275100 0.001197
575.501800 0.002886
575.728600 0.006802
575.955400 0.008652
576.182100 -0.001318
576.408900 -0.000584
576.635700 -0.000449
576.862600 0.000631
577.089400 0.004606
577.316200 0.002558
577.543100 -0.002489
577.769900 -0.004149
577.996800 -0.001384
578.223700 0.007476
578.450500 0.009773
578.677400 0.006455
578.904400 0.009991
579.131300 0.009652
579.358200 0.004748
579.585100 0.001185
579.812100 0.000192
580.039100 0.006988
580.266000 0.004276
580.493000 0.008401
580.720000 0.007094
580.947000 0.006079
581.174100 -0.006987
581.401100 -0.011988
581.628100 -0.001731
581.855200 0.014192
582.082200 0.008941
582.309300 0.013130
582.536400 0.018276
582.763500 0.019605
582.990600 0.017291
583.217700 0.017751
583.444900 0.014600
583.672000 0.008601
583.899100 0.007842
584.126300 0.005425
584.353500 0.003359
584.580700 0.005358
584.807900 -0.003679
585.035100 -0.003781
585.262300 -0.005135
585.489500 0.001209
585.716700 0.009229
585.944000 0.007046
586.171300 0.010316
586.398500 0.009960
586.625800 0.006535
586.853100 0.005340
587.080400 0.003661
587.307700 0.006062
587.535000 0.006158
587.762400 0.007215
587.989700 0.012593
588.217100 0.007876
588.444500 0.006705
588.671800 0.008599
588.899200 0.008957
589.126600 0.011877
589.354000 0.005263
589.581500 0.007563
589.808900 0.004643
590.036300 0.002916
590.263800 0.008195
590.491300 0.005819
590.718700 0.006717
590.946200 0.003561
591.173700 0.004499
591.401200 0.001738
591.628800 -0.001285
591.856300 0.003074
592.083800 0.003637
592.311400 0.003088
592.538900 -0.004438
592.766500 -0.009450
592.994100 -0.002788
593.221700 -0.000901
593.449300 0.002256
593.676900 0.006296
593.904600 0.003010
594.132200 0.007201
594.359800 0.006724
594.587500 0.003921
594.815200 0.002886
595.042900 -0.002254
595.270500 -0.000338
595.498300 0.005447
595.726000 0.004712
595.953700 0.005664
596.181400 0.006112
596.409200 0.005543
596.636900 0.001871
596.864700 -0.000717
597.092500 -0.000286
597.320300 -0.001370
597.548100 -0.000734
597.775900 0.000522
598.003700 0.001721
598.231500 0.000939
598.459400 -0.001262
598.687200 -0.006588
598.915100 -0.008095
599.143000 -0.004338
599.370900 -0.000821
599.598800 0.004947
599.826700 -0.001271
600.054600 -0.001358
600.282500 0.001615
600.510500 0.004276
600.738400 0.004602
600.966400 0.003998
601.194400 0.004200
601.422300 0.007882
601.650300 0.008950
601.878300 0.006300
602.106400 0.001899
602.334400 0.000849
602.562400 0.000865
602.790500 -0.001584
603.018500 0.003787
603.246600 -0.001990
603.474700 -0.000242
603.702800 0.000947
603.930900 0.000212
604.159000 0.000850
604.387100 0.001661
604.615200 0.005012
604.843400 0.003125
605.071500 0.000764
605.299700 0.002014
605.527900 0.001185
605.756100 -0.001565
605.984300 0.005153
606.212500 0.007726
606.440700 0.010316
606.668900 0.006573
606.897200 0.004688
607.125400 0.003758
607.353700 0.002248
607.581900 0.002295
607.810200 0.004918
608.038500 0.002842
608.266800 0.006600
608.495100 0.006734
608.723500 0.006779
608.951800 0.003059
609.180100 0.006191
609.408500 0.002988
609.636900 0.003335
609.865300 0.000996
610.093600 -0.002026
610.322000 0.000501
610.550500 0.005269
610.778900 0.002389
611.007300 0.002009
611.235700 0.001928
611.464200 -0.001008
611.692700 0.001632
611.921100 0.001607
612.149600 0.000446
612.378100 -0.000313
612.606600 0.001766
612.835100 0.001179
613.063700 0.001224
613.292200 0.001952
613.520800 0.001818
613.749300 0.002546
613.977900 -0.001305
614.206500 0.001131
614.435100 0.001146
614.663700 0.002219
614.892300 0.002263
615.120900 0.002721
615.349500 -0.004083
615.578200 0.000880
615.806800 0.001482
616.035500 0.005835
616.264200 0.003830
616.492900 0.002692
616.721600 0.001006
616.950300 0.001202
617.179000 -0.000237
617.407700 0.002172
617.636500 0.001799
617.865200 -0.000139
618.094000 0.000579
618.322700 0.000994
618.551500 0.005315
618.780300 0.006169
619.009100 0.002134
619.237900 0.000582
619.466700 -0.000294
619.695600 0.001949
619.924400 0.000660
620.153300 -0.000345
620.382100 0.001964
620.611000 0.003344
620.839900 0.005258
621.068800 0.003549
621.297700 0.002999
621.526600 0.002323
621.755600 0.000713
621.984500 -0.001121
622.213500 0.001177
622.442400 0.002084
622.671400 0.000689
622.900400 0.001451
623.129400 -0.000889
623.358400 -0.000811
623.587400 0.001809
623.816400 0.005035
624.045400 0.001794
624.274500 0.000112
624.503500 0.001551
624.732600 0.004391
624.961700 0.001335
625.190800 0.004314
625.419900 0.004430
625.649000 0.001531
625.878100 0.000366
626.107200 0.003361
626.336400 0.001904
626.565500 0.000593
626.794700 0.000967
627.023800 0.002064
627.253000 0.001361
627.482200 0.002481
627.711400 0.000338
627.940600 -0.000471
628.169800 0.003571
628.399100 0.001663
628.628300 0.002000
628.857600 0.002242
629.086800 -0.001514
629.316100 0.001326
629.545400 0.001167
629.774700 0.000885
630.004000 0.000775
630.233300 0.000837
630.462600 -0.000349
630.692000 0.001289
630.921300 0.001454
631.150700 0.001482
631.380100 0.001161
631.609400 -0.000591
631.838800 -0.000727
632.068200 0.000668
632.297600 0.001157
632.527100 0.001912
632.756500 0.001974
632.985900 0.002170
633.215400 -0.000129
633.444800 0.001179
633.674300 -0.000805
633.903800 0.002180
634.133300 -0.000465
634.362800 0.002905
634.592300 0.000776
634.821800 0.001413
635.051400 -0.000666
635.280900 0.001430
635.510500 0.002857
635.740000 -0.000459
635.969600 -0.000408
636.199200 -0.000073
636.428800 0.000339
636.658400 -0.000095
636.888000 0.002638
637.117700 0.001402
637.347300 0.001372
637.577000 -0.000359
637.806600 -0.000328
638.036300 -0.000634
638.266000 0.001821
638.495700 -0.000054
638.725400 -0.000138
638.955100 0.001889
639.184800 0.001851
639.414500 -0.000142
639.644300 0.002114
639.874000 0.001533
640.103800 0.001883
640.333600 0.000519
640.563300 0.002708
640.793100 -0.000194
641.022900 0.000514
641.252800 0.000877
641.482600 -0.000144
641.712400 0.000244
641.942300 0.001257
642.172100 -0.000111
642.402000 0.001190
642.631900 0.001826
642.861700 0.001090
643.091600 -0.000301
643.321600 -0.000086
643.551500 0.003003
643.781400 -0.000072
644.011300 0.000934
644.241300 0.000876
644.471200 0.000690
644.701200 0.001643
644.931200 -0.000539
645.161200 0.000649
645.391200 0.000048
645.621200 -0.000483
645.851200 0.002164
646.081200 0.002152
646.311300 -0.000353
646.541300 -0.001499
646.771400 0.002154
647.001500 -0.000268
647.231600 0.000821
647.461600 -0.001601
647.691800 -0.000275
647.921900 0.001111
648.152000 0.000139
648.382100 0.000519
648.612300 -0.000554
648.842400 -0.000107
649.072600 -0.001233
649.302800 0.001994
649.532900 0.000064
649.763100 0.001719
649.993300 0.001504
650.223600 0.000033
650.453800 0.001620
650.684000 0.000918
650.914300 0.001169
651.144500 -0.000574
651.374800 -0.000798
651.605100 0.000092
651.835400 -0.000166
652.065700 -0.000247
652.296000 0.000890
652.526300 0.001348
652.756600 0.001438
652.987000 0.001156
653.217300 0.000918
653.447700 -0.000968
653.678000 0.000902
653.908400 -0.000154
654.138800 -0.001476
654.369200 -0.001810
654.599600 -0.001487
654.830000 -0.002122
655.060500 -0.010977
655.290900 -0.047275
655.521300 -0.141496
655.751800 -0.184948
655.982300 -0.011967
656.212800 -0.002245
656.443300 -0.003363
656.673800 -0.002840
656.904300 -0.006585
657.134800 0.015515
657.365300 0.042616
657.595900 0.018166
657.826400 0.013294
658.057000 0.000955
658.287500 0.001988
658.518100 0.009228
658.748700 0.000428
658.979300 -0.006602
659.209900 0.013180
659.440600 0.023032
659.671200 0.026553
659.901800 0.021629
660.132500 0.011637
660.363200 0.004550
660.593800 0.001619
660.824500 0.001426
661.055200 0.000563
661.285900 -0.000410
661.516600 0.000774
661.747400 0.000704
661.978100 0.001254
662.208800 -0.001328
662.439600 -0.001153
662.670400 -0.001739
662.901100 -0.001569
663.131900 -0.000980
663.362700 0.000887
663.593500 -0.002172
663.824300 0.000295
664.055200 0.000995
664.286000 0.000347
664.516800 -0.001060
664.747700 -0.000974
664.978600 -0.000358
665.209400 -0.000406
665.440300 -0.001699
665.671200 0.000551
665.902100 -0.000649
666.133000 0.000464
666.364000 0.000896
666.594900 0.000062
666.825900 -0.000023
667.056800 -0.000500
667.287800 0.000281
667.518800 0.000019
667.749700 0.000166
667.980700 0.000297
668.211700 0.000741
668.442800 -0.000052
668.673800 -0.001130
668.904800 -0.000593
669.135900 -0.001127
669.366900 0.000055
669.598000 0.001935
669.829100 -0.000319
670.060200 0.000387
670.291300 -0.000951
670.522400 0.000843
670.753500 -0.000244
670.984600 0.000973
671.215700 -0.001387
671.446900 -0.001835
671.678100 -0.000888
671.909200 -0.000751
672.140400 -0.001299
672.371600 0.000815
672.602800 0.000555
672.834000 0.001100
673.065200 0.001947
673.296400 0.002259
673.527700 0.000097
673.758900 0.001967
673.990200 -0.000491
674.221400 -0.000150
674.452700 0.001013
674.684000 0.000982
674.915300 -0.002081
675.146600 -0.000861
675.377900 0.000594
675.609300 0.000441
675.840600 -0.000467
676.071900 -0.000175
676.303300 0.000510
676.534700 0.001557
676.766100 0.000095
676.997400 0.000153
677.228800 0.000945
677.460200 -0.000250
677.691700 -0.000196
677.923100 0.000155
678.154500 0.000078
678.386000 0.001315
678.617400 0.000329
678.848900 -0.000308
679.080400 -0.000054
679.311900 -0.000906
679.543400 0.000347
679.774900 -0.000493
680.006400 -0.001821
680.237900 0.000323
680.469400 -0.000598
680.701000 -0.000105
680.932500 -0.000682
681.164100 -0.000328
681.395700 -0.000834
681.627300 -0.001607
681.858900 0.000106
682.090500 -0.000124
682.322100 0.001529
682.553700 0.001237
682.785400 0.000934
683.017000 -0.000933
683.248700 -0.000270
683.480300 0.000164
683.712000 0.001760
683.943700 0.000980
684.175400 -0.000275
684.407100 -0.002568
684.638800 -0.000991
684.870500 -0.001693
685.102300 -0.001159
685.334000 -0.000008
685.565800 -0.001565
685.797500 -0.000604
686.029300 0.000535
686.261100 -0.002345
686.492900 0.001020
686.724700 -0.000251
686.956500 0.001170
687.188300 -0.000973
687.420200 -0.000531
687.652000 0.000303
687.883800 0.001842
688.115700 0.000494
688.347600 0.000501
688.579500 0.001165
688.811400 0.000490
689.043300 0.000218
689.275200 -0.000189
689.507100 -0.000675
689.739000 0.000609
689.971000 -0.000433
690.202900 0.000013
690.434900 0.000436
690.666900 -0.000338
690.898800 -0.000703
691.130800 -0.001842
691.362800 0.000240
691.594800 -0.000199
691.826900 -0.000586
692.058900 -0.000674
692.290900 -0.001891
692.523000 -0.000090
692.755000 -0.001191
692.987100 0.000436
693.219200 -0.000498
693.451300 -0.000297
693.683400 0.000641
693.915500 0.001541
694.147600 0.000953
694.379700 0.000935
694.611900 -0.000402
694.844000 -0.000538
695.076200 0.001118
695.308300 -0.001124
695.540500 0.000235
695.772700 0.002452
696.004900 -0.001237
696.237100 -0.000129
696.469300 0.000929
696.701600 -0.001833
696.933800 -0.000931
697.166000 0.001134
697.398300 -0.001404
697.630600 -0.000537
697.862800 -0.001877
698.095100 -0.002781
698.327400 0.000797
698.559700 -0.000034
698.792000 0.001221
699.024300 0.000821
699.256700 0.000324
699.489000 0.000335
699.721400 -0.000622
699.953700 0.001430
700.186100 0.000797
700.418500 0.000325
700.650900 -0.001194
700.883300 0.000393
701.115700 -0.000843
701.348100 0.001299
701.580600 0.000220
701.813000 -0.000952
702.045400 0.000811
702.277900 -0.001424
702.510400 -0.000230
702.742900 0.001546
702.975300 0.000718
703.207800 0.000036
703.440300 -0.000228
703.672900 -0.000680
703.905400 0.001204
704.137900 0.000062
704.370500 -0.000094
704.603000 0.000626
704.835600 0.000485
705.068200 0.002488
705.300800 -0.000155
705.533400 0.000147
705.766000 -0.000392
705.998600 0.000376
706.231200 -0.000306
706.463800 -0.002081
706.696500 -0.002779
706.929100 -0.000485
707.161800 0.001825
707.394500 -0.000340
707.627200 -0.000601
707.859900 -0.001950
708.092600 -0.001057
708.325300 0.000683
708.558000 0.000149
708.790700 0.000392
709.023500 -0.000305
709.256200 0.000804
709.489000 0.000774
709.721700 0.001790
709.954500 0.001512
710.187300 0.001187
710.420100 -0.000981
710.652900 0.001402
710.885700 0.001378
711.118600 0.001229
711.351400 0.002304
711.584200 0.000298
711.817100 0.000438
712.050000 0.000933
712.282800 0.000803
712.515700 -0.001427
712.748600 -0.000048
712.981500 0.002252
713.214400 -0.001521
713.447400 0.001082
713.680300 0.000330
713.913200 0.000836
714.146200 0.000611
714.379100 0.001519
714.612100 -0.000749
714.845100 -0.000729
715.078100 0.000335
715.311100 0.001321
715.544100 0.001080
715.777100 0.001160
716.010200 0.000733
716.243200 0.003367
716.476200 -0.000699
716.709300 -0.000055
716.942400 0.000479
717.175400 0.001059
717.408500 0.000768
717.641600 0.001499
717.874700 -0.000141
718.107800 -0.000382
718.341000 -0.000491
718.574100 0.001875
718.807200 0.000128
719.040400 -0.000860
719.273600 -0.000031
719.506700 0.000244
719.739900 0.000890
719.973100 0.001108
720.206300 0.001288
720.439500 -0.000643
720.672700 0.000881
720.906000 0.000371
721.139200 0.001239
721.372500 -0.000819
721.605700 -0.000878
721.839000 0.000058
722.072300 0.000899
722.305500 0.001299
722.538800 -0.000351
722.772100 0.001872
723.005500 0.000327
723.238800 0.000672
723.472100 0.000739
723.705500 0.001070
723.938800 0.001474
724.172200 0.001484
724.405600 -0.000293
724.638900 -0.003037
724.872300 -0.000021
725.105700 -0.000740
725.339100 -0.001567
725.572600 -0.000807
725.806000 0.000730
726.039400 -0.000018
726.272900 -0.002360
726.506300 0.001184
726.739800 -0.000071
726.973300 -0.000603
727.206800 0.000080
727.440300 -0.000844
727.673800 -0.000824
727.907300 -0.000269
728.140800 0.000308
728.374300 0.001501
728.607900 -0.000355
728.841400 0.001434
729.075000 0.000435
729.308600 0.000411
729.542100 -0.000798
729.775700 -0.000903
730.009300 0.002065
730.242900 0.001261
730.476600 -0.001842
730.710200 -0.000652
730.943800 -0.003531
731.177500 -0.001414
731.411100 -0.000444
731.644800 -0.001783
731.878500 0.000549
732.112200 0.001723
732.345800 0.000470
732.579500 -0.000753
732.813300 -0.000485
733.047000 -0.000061
733.280700 -0.001993
733.514500 0.000555
733.748200 -0.002145
733.982000 -0.001687
734.215700 0.000247
734.449500 -0.001044
734.683300 -0.001217
734.917100 0.001500
735.150900 0.001310
735.384700 -0.000832
735.618500 -0.001212
735.852400 -0.001592
736.086200 -0.001735
736.320100 0.000885
736.553900 -0.001865
736.787800 0.001426
737.021700 -0.000174
737.255600 -0.000121
737.489500 0.002115
737.723400 0.002793
737.957300 0.002562
738.191200 0.002773
738.425200 -0.000058
738.659100 0.000347
738.893100 0.001212
739.127100 -0.001375
739.361000 -0.001227
739.595000 -0.001163
739.829000 0.000763
740.063000 0.001354
740.297000 0.000210
740.531000 0.003275
740.765100 0.000437
740.999100 -0.000871
741.233200 -0.000203
741.467200 -0.000291
741.701300 0.002078
741.935400 -0.000357
742.169500 0.000432
742.403600 -0.000626
742.637700 0.001466
742.871800 0.001618
743.105900 0.000678
743.340000 0.001905
743.574200 0.001503
743.808300 0.000863
744.042500 0.002617
744.276700 0.000307
744.510800 0.000159
744.745000 0.001204
744.979200 -0.000657
745.213400 0.000120
745.447700 0.000317
745.681900 0.000697
745.916100 -0.000148
746.150400 0.000142
746.384600 -0.000005
746.618900 0.002606
746.853200 -0.000383
747.087400 -0.000228
747.321700 -0.000367
747.556000 0.000667
747.790300 0.000129
748.024700 0.002512
748.259000 -0.000080
748.493300 0.000353
748.727700 -0.000045
748.962000 -0.001427
749.196400 -0.000026
749.430800 -0.001574
749.665200 0.000895
749.899500 0.000190
750.133900 0.000621
750.368400 0.000515
750.602800 -0.000073
750.837200 0.002060
751.071700 0.000589
751.306100 0.000040
751.540600 0.000202
751.775000 -0.001630
752.009500 0.000079
752.244000 0.002062
752.478500 0.002895
752.713000 0.000036
752.947500 0.002610
753.182000 0.000457
753.416600 0.000332
753.651100 -0.001152
753.885600 -0.002290
754.120200 -0.000107
754.354800 0.001771
754.589400 0.000135
754.823900 0.000424
755.058500 -0.000793
755.293100 0.000108
755.527800 -0.000004
755.762400 0.001114
755.997000 -0.001797
756.231700 -0.000119
756.466300 -0.000766
756.701000 -0.001450
756.935600 -0.000019
757.170300 -0.001492
757.405000 -0.003645
757.639700 -0.001074
757.874400 -0.002620
758.109100 -0.000419
758.343800 0.001195
758.578600 0.000039
758.813300 -0.001138
759.048100 -0.000145
759.282800 -0.000427
759.517600 -0.002761
759.752400 -0.001035
759.987200 -0.000398
760.222000 0.000591
760.456800 0.000434
760.691600 -0.001347
760.926400 -0.000165
761.161300 -0.001012
761.396100 0.001465
761.631000 0.000484
761.865800 -0.002988
762.100700 -0.000394
762.335600 -0.000522
762.570500 0.000825
762.805400 0.001816
763.040300 -0.000283
763.275200 -0.000644
763.510100 0.000573
763.745000 -0.001481
763.980000 -0.001864
764.214900 0.000628
764.449900 -0.002098
764.684900 -0.001074
764.919800 0.000051
765.154800 0.000378
765.389800 -0.000986
765.624800 -0.000976
765.859900 0.002627
766.094900 0.001940
766.329900 0.000951
766.565000 -0.000038
766.800000 0.000643
767.035100 0.001782
767.270100 0.000089
767.505200 0.000366
767.740300 -0.000530
767.975400 -0.000821
768.210500 -0.001932
768.445600 -0.000844
768.680800 -0.000762
768.915900 -0.002435
769.151000 -0.000023
769.386200 0.000015
769.621400 0.000950
769.856500 -0.001388
770.091700 -0.001427
770.326900 0.001185
770.562100 0.000430
770.797300 0.000975
771.032500 -0.000713
771.267700 -0.000072
771.503000 0.001687
771.738200 -0.001124
771.973500 0.002831
772.208700 0.001484
772.444000 -0.001284
772.679300 0.001099
772.914600 -0.000441
773.149900 0.002252
773.385200 0.001855
773.620500 0.002175
773.855800 -0.000397
774.091100 0.002199
774.326500 -0.000531
774.561800 0.001051
774.797200 -0.001861
775.032600 -0.002779
775.267900 0.002360
775.503300 0.001015
775.738700 0.000437
775.974100 0.000142
776.209500 0.000967
776.445000 0.001252
776.680400 -0.000748
776.915800 -0.000300
777.151300 0.001357
777.386800 0.000174
777.622200 0.001596
777.857700 -0.000525
778.093200 0.000132
778.328700 0.000513
778.564200 0.000826
778.799700 0.000081
779.035200 -0.000318
779.270700 0.000301
779.506300 0.000315
779.741800 0.001947
779.977400 0.001662
780.213000 0.000655
780.448500 -0.000174
780.684100 0.000574
780.919700 -0.001309
781.155300 -0.000497
781.390900 -0.001980
781.626500 -0.000696
781.862200 -0.001526
782.097800 -0.000492
782.333500 -0.000102
782.569100 -0.000693
782.804800 0.002117
783.040500 0.000053
783.276100 0.000868
783.511800 -0.000742
783.747500 -0.000239
783.983200 0.000457
784.219000 0.000587
784.454700 0.000505
784.690400 0.000061
784.926200 -0.000125
785.161900 -0.000825
785.397700 0.000852
785.633500 0.001359
785.869200 -0.000003
786.105000 -0.000076
786.340800 -0.000048
786.576600 0.001038
786.812400 0.000103
787.048300 0.001548
787.284100 -0.000530
787.519900 -0.000562
787.755800 -0.001342
787.991700 0.000396
788.227500 0.002087
788.463400 -0.000533
788.699300 0.000226
788.935200 0.000009
789.171100 0.000762
789.407000 0.000086
789.642900 0.000016
789.878900 0.000328
790.114800 -0.000868
790.350700 0.000830
790.586700 -0.000105
790.822700 -0.000671
791.058600 0.000368
791.294600 -0.000219
791.530600 0.000319
791.766600 -0.000500
792.002600 -0.000888
792.238700 0.000040
792.474700 -0.000817
792.710700 -0.001338
792.946800 0.001875
793.182800 0.000255
793.418900 -0.000797
793.655000 -0.000972
793.891000 -0.002529
794.127100 -0.002500
794.363200 -0.001349
794.599300 0.000161
794.835500 0.000919
795.071600 -0.001267
795.307700 -0.000809
795.543900 0.000126
795.780000 -0.000438
796.016200 0.000244
796.252300 0.000904
796.488500 -0.000148
796.724700 -0.001958
796.960900 -0.000966
797.197100 -0.000455
797.433300 0.000578
797.669500 0.001173
797.905800 -0.000964
798.142000 0.000561
798.378300 -0.000129
798.614500 0.000241
798.850800 0.000576
799.087100 -0.000100
799.323300 0.000927
799.559600 0.001219
799.795900 -0.000800
800.032200 -0.001159
800.268600 0.001432
800.504900 0.000233
800.741200 0.000598
800.977600 0.000141
801.213900 -0.001571
801.450300 -0.000920
801.686700 -0.000323
801.923000 -0.000541
802.159400 -0.000117
802.395800 0.000506
802.632200 -0.000560
802.868600 0.001512
803.105100 -0.000597
803.341500 0.001357
803.577900 -0.000467
803.814400 0.000447
804.050800 0.001096
804.287300 -0.000306
804.523800 0.000412
804.760300 -0.000720
804.996800 0.000918
805.233300 -0.000032
805.469800 0.000081
805.706300 0.000738
805.942800 -0.000253
806.179400 0.000522
806.415900 -0.000663
806.652500 -0.000501
806.889000 -0.000363
807.125600 -0.000032
807.362200 0.000502
807.598800 0.000766
807.835400 0.000178
808.072000 -0.000363
808.308600 -0.000880
808.545200 -0.000208
808.781800 0.000104
809.018500 -0.001527
809.255100 0.000558
809.491800 0.002726
809.728400 0.000947
809.965100 -0.001283
810.201800 0.000300
810.438500 0.002117
810.675200 0.001196
810.911900 0.000018
811.148600 -0.001694
811.385300 -0.000520
811.622100 -0.001323
811.858800 0.000739
812.095600 0.000523
812.332300 -0.001243
812.569100 0.001602
812.805900 0.000056
813.042700 0.000439
813.279500 -0.000606
813.516300 0.001093
813.753100 -0.000704
813.989900 -0.000432
814.226700 -0.001139
814.463600 0.000152
814.700400 0.000718
814.937300 0.000696
815.174200 0.001016
815.411000 0.000562
815.647900 0.001866
815.884800 0.000951
816.121700 -0.000663
816.358600 -0.000393
816.595500 -0.000855
816.832400 0.000238
817.069400 -0.000452
817.306300 0.000031
817.543300 0.000502
817.780200 0.001316
818.017200 -0.000760
818.254200 -0.000955
818.491200 0.000864
818.728200 0.000351
818.965200 0.000353
819.202200 0.000332
819.439200 -0.000597
819.676200 0.001714
819.913300 0.000466
820.150300 -0.000333
820.387400 -0.001855
820.624400 -0.001697
820.861500 0.000048
821.098600 -0.000876
821.335700 -0.001724
821.572700 -0.000619
821.809900 0.001431
822.047000 -0.001137
822.284100 0.000061
822.521200 -0.000469
822.758400 0.000093
822.995500 -0.000076
823.232700 -0.000624
823.469800 -0.000600
823.707000 0.000914
823.944200 0.000993
824.181400 -0.002187
824.418600 0.000261
824.655800 0.000953
824.893000 -0.000013
825.130200 0.000303
825.367500 -0.000610
825.604700 -0.000801
825.841900 0.001330
826.079200 -0.000793
826.316500 0.000652
826.553700 0.000797
826.791000 -0.001303
827.028300 -0.001060
827.265600 -0.000406
827.502900 -0.000937
827.740200 -0.000592
827.977600 0.001324
828.214900 0.000638
828.452200 -0.000297
828.689600 0.000229
828.927000 0.000068
829.164300 0.000881
829.401700 0.000421
829.639100 -0.000097
829.876500 0.000627
830.113900 -0.000509
830.351300 -0.000881
830.588700 0.001043
830.826100 0.000355
831.063600 0.000808
831.301000 -0.001136
831.538500 0.000713
831.775900 0.000021
832.013400 -0.000012
832.250900 -0.000278
832.488400 -0.001358
832.725900 -0.000639
832.963400 -0.000510
833.200900 -0.001428
833.438400 -0.000186
833.675900 -0.001054
833.913500 -0.000681
834.151000 -0.000730
834.388600 -0.001315
834.626100 -0.000087
834.863700 -0.000724
835.101300 -0.000186
835.338900 0.000584
835.576500 0.001031
835.814100 0.000155
836.051700 -0.000063
836.289300 -0.001296
836.526900 0.000254
836.764600 -0.000746
837.002200 -0.000954
837.239900 -0.000310
837.477500 -0.000992
837.715200 0.001332
837.952900 0.000440
838.190600 -0.000774
838.428300 0.000523
838.666000 0.000055
838.903700 -0.000152
839.141400 -0.001224
839.379100 0.000963
839.616900 0.000593
839.854600 -0.000008
840.092400 -0.000322
840.330200 -0.000306
840.567900 -0.001482
840.805700 -0.000397
841.043500 -0.000113
841.281300 0.000196
841.519100 0.000503
841.756900 -0.000371
841.994700 0.001283
842.232600 -0.000417
842.470400 -0.001162
842.708200 0.000340
842.946100 0.000537
843.184000 0.000906
843.421800 -0.000705
843.659700 -0.000283
843.897600 0.000161
844.135500 -0.001159
844.373400 -0.000378
844.611300 -0.000328
844.849200 0.000087
845.087200 -0.000396
845.325100 -0.000314
845.563100 -0.000940
845.801000 -0.000261
846.039000 -0.000328
846.277000 0.000691
846.514900 0.000354
846.752900 0.000691
846.990900 -0.000420
847.228900 0.000768
847.466900 -0.001400
847.705000 0.001026
847.943000 -0.000324
848.181000 0.000343
848.419100 -0.000810
848.657100 -0.001040
848.895200 -0.000332
849.133300 -0.000501
849.371300 -0.000191
849.609400 0.000597
849.847500 -0.000452
850.085600 -0.000944
850.323700 -0.000926
850.561900 -0.000723
850.800000 -0.000350
851.038100 -0.000575
851.276300 0.001204
851.514400 0.000114
851.752600 -0.000121
851.990800 0.000343
852.228900 0.000875
852.467100 -0.000507
852.705300 -0.000405
852.943500 -0.000626
853.181700 -0.000755
853.420000 0.000836
853.658200 0.000319
853.896400 -0.000990
854.134700 -0.000937
854.372900 -0.000751
854.611200 -0.000653
854.849500 -0.001397
855.087700 0.000494
855.326000 -0.000406
855.564300 -0.000847
855.802600 -0.001176
856.040900 -0.001292
856.279200 -0.000642
856.517600 -0.001289
856.755900 0.000800
856.994200 0.000222
857.232600 -0.000218
857.471000 0.000242
857.709300 0.000834
857.947700 0.001084
858.186100 -0.001374
858.424500 0.000756
858.662900 0.000785
858.901300 -0.000252
859.139700 -0.000578
859.378100 -0.000321
859.616600 -0.000488
859.855000 -0.000370
860.093500 -0.000584
860.331900 0.000007
860.570400 -0.001154
860.808900 -0.000721
861.047300 0.000780
861.285800 0.000249
861.524300 -0.001737
861.762800 -0.000845
862.001300 -0.001087
862.239900 -0.002522
862.478400 0.000055
862.716900 0.000034
862.955500 -0.000869
863.194000 0.000315
863.432600 -0.000214
863.671200 -0.000932
863.909800 0.000056
864.148300 0.000878
864.386900 0.000590
864.625500 0.000383
864.864200 0.000052
865.102800 0.001166
865.341400 -0.000441
865.580000 -0.000118
865.818700 -0.000933
866.057300 -0.000328
866.296000 -0.000230
866.534700 -0.000356
866.773300 -0.000925
867.012000 -0.000131
867.250700 -0.000370
867.489400 0.000441
867.728100 0.000547
867.966900 -0.001415
868.205600 -0.000357
868.444300 -0.001063
868.683100 0.001240
868.921800 0.000381
869.160600 0.000269
869.399300 0.000052
869.638100 -0.000315
869.876900 0.000467
870.115700 -0.000275
870.354500 -0.000534
870.593300 0.001218
870.832100 -0.000440
871.070900 0.000980
871.309700 0.000333
871.548600 -0.001439
871.787400 0.001184
872.026300 0.000498
872.265100 -0.000202
872.504000 0.001395
872.742900 -0.000462
872.981800 0.000484
873.220700 -0.000307
873.459600 -0.000596
873.698500 -0.000757
873.937400 -0.000053
874.176300 0.000178
874.415300 -0.000269
874.654200 -0.000979
874.893200 -0.001046
875.132100 0.001278
875.371100 -0.000427
875.610100 -0.001703
875.849100 -0.000426
876.088000 0.000206
876.327000 0.000020
876.566100 0.000350
876.805100 -0.000955
877.044100 0.000167
877.283100 0.001078
877.522200 0.001349
877.761200 0.000056
878.000300 -0.000571
878.239300 -0.001059
878.478400 -0.000184
878.717500 0.000003
878.956600 -0.000546
879.195700 -0.002201
879.434800 0.000903
879.673900 0.000468
879.913000 -0.000377
880.152100 -0.001126
880.391300 -0.000866
880.630400 -0.001551
880.869600 -0.000506
881.108700 0.000309
881.347900 0.000285
881.587100 -0.000341
881.826200 -0.000809
882.065400 -0.001235
882.304600 0.001004
882.543800 -0.000400
882.783100 -0.000675
883.022300 0.000079
883.261500 0.001075
883.500700 0.000460
883.740000 0.000312
883.979200 -0.001073
884.218500 0.001251
884.457800 -0.000384
884.697100 0.000210
884.936300 -0.000591
885.175600 -0.000525
885.414900 -0.001025
885.654200 0.000041
885.893600 0.000210
886.132900 -0.000831
886.372200 -0.000190
886.611600 0.001538
886.850900 -0.001717
887.090300 -0.000980
887.329600 0.000470
887.569000 -0.000191
887.808400 -0.000490
888.047800 0.000697
888.287200 0.000232
888.526600 -0.000016
888.766000 0.001244
889.005400 -0.000215
889.244800 -0.001173
889.484300 0.000712
889.723700 -0.001056
889.963200 0.000505
890.202600 0.000540
890.442100 0.000170
890.681600 -0.000043
890.921100 -0.000740
891.160600 -0.001686
891.400100 -0.000599
891.639600 -0.000536
891.879100 0.000336
892.118600 -0.000116
892.358100 -0.000086
892.597700 -0.001000
892.837200 -0.000990
893.076800 -0.001001
893.316300 -0.000403
893.555900 -0.000113
893.795500 -0.001049
894.035100 0.000051
894.274700 -0.000601
894.514300 -0.000863
894.753900 0.000582
894.993500 -0.000512
895.233100 0.000687
895.472700 -0.000561
895.712400 -0.000374
895.952000 -0.000188
896.191700 0.000301
896.431400 -0.000343
896.671000 -0.000315
896.910700 -0.000680
897.150400 0.000008
897.390100 -0.000068
897.629800 -0.000011
897.869500 0.000346
898.109200 -0.000564
898.348900 -0.000279
898.588700 -0.000526
898.828400 -0.001238
899.068200 -0.000145
899.307900 -0.000410
899.547700 -0.000022
899.787500 -0.000824
900.027200 0.000866
900.267000 -0.001504
900.506800 -0.001208
900.746600 -0.000076
900.986400 0.000364
901.226300 -0.000395
901.466100 -0.000315
901.705900 -0.001422
901.945800 0.000083
902.185600 -0.000484
902.425500 0.000481
902.665400 0.000269
902.905200 0.000177
903.145100 0.000448
903.385000 0.001067
903.624900 -0.001293
903.864800 0.000304
904.104700 -0.000712
904.344600 -0.000238
904.584600 0.000782
904.824500 0.000122
905.064400 -0.000243
905.304400 -0.000223
905.544400 -0.000824
905.784300 -0.001038
906.024300 -0.000789
906.264300 0.000360
906.504300 -0.000943
906.744300 -0.000328
906.984300 -0.000621
907.224300 -0.000740
907.464300 -0.000863
907.704300 0.000086
907.944400 -0.000382
908.184400 0.001155
908.424500 -0.000052
908.664500 0.000449
908.904600 -0.000171
909.144700 -0.000181
909.384700 0.000108
909.624800 0.000458
909.864900 -0.000983
910.105000 0.000061
910.345200 0.000811
910.585300 -0.000153
910.825400 -0.000421
911.065500 -0.000339
911.305700 -0.001367
911.545800 0.000139
911.786000 -0.000462
912.026200 0.000533
912.266300 -0.000878
912.506500 0.000533
912.746700 -0.000898
912.986900 0.000473
913.227100 0.000707
913.467300 0.000484
913.707500 0.000747
913.947800 0.000181
914.188000 -0.000368
914.428300 -0.000108
914.668500 -0.001050
914.908800 0.000099
915.149000 0.000050
915.389300 -0.001394
915.629600 -0.000991
915.869900 -0.000695
916.110200 -0.000101
916.350500 -0.000090
916.590800 0.000571
916.831100 -0.000596
917.071400 0.000202
917.311800 -0.000452
917.552100 -0.000629
917.792500 0.000448
918.032800 -0.000754
918.273200 -0.001345
918.513600 -0.000016
918.753900 -0.000768
918.994300 -0.001207
919.234700 -0.001183
919.475100 -0.000607
919.715500 -0.000139
919.956000 -0.001412
920.196400 0.000434
920.436800 -0.000157
920.677300 0.000121
920.917700 0.000216
921.158200 -0.000586
921.398600 -0.000385
921.639100 -0.001162
921.879600 0.000982
922.120100 0.000163
922.360600 -0.000079
922.601100 0.000106
922.841600 -0.000558
923.082100 0.000526
923.322600 0.000044
923.563100 0.000712
923.803700 -0.001557
924.044200 -0.000358
924.284800 -0.000723
924.525400 -0.000565
924.765900 -0.000713
925.006500 -0.000066
925.247100 -0.000253
925.487700 0.000135
925.728300 -0.000955
925.968900 0.000269
926.209500 -0.000182
926.450100 0.000064
926.690800 -0.002097
926.931400 0.000761
927.172000 -0.000111
927.412700 0.000110
927.653300 -0.000829
927.894000 -0.000713
928.134700 -0.000800
928.375400 0.000303
928.616100 -0.000842
928.856800 -0.000340
929.097500 0.000180
929.338200 -0.000559
929.578900 0.000677
929.819600 -0.000997
930.060400 0.000043
930.301100 -0.001188
930.541900 -0.000294
930.782600 -0.000646
931.023400 -0.000604
931.264200 -0.001663
931.504900 -0.000283
931.745700 -0.001008
931.986500 -0.000125
932.227300 -0.000916
932.468100 -0.001448
932.708900 -0.000576
932.949800 -0.000066
933.190600 -0.000862
933.431400 0.000241
933.672300 0.000072
933.913100 -0.000572
934.154000 -0.001377
934.394900 0.000153
934.635800 0.000957
934.876600 -0.000174
935.117500 -0.000566
935.358400 -0.000843
935.599300 -0.000108
935.840300 0.000740
936.081200 -0.000636
936.322100 0.000785
936.563000 -0.000197
936.804000 -0.001086
937.044900 0.000253
937.285900 0.000314
937.526900 0.000240
937.767800 -0.001852
938.008800 -0.000969
938.249800 -0.000576
938.490800 -0.000762
938.731800 -0.000345
938.972800 -0.001958
939.213800 -0.000035
939.454900 -0.001124
939.695900 -0.000010
939.936900 -0.000116
940.178000 -0.000871
940.419000 0.000404
940.660100 -0.000298
940.901200 -0.000203
941.142200 0.000611
941.383300 -0.001096
941.624400 -0.000101
941.865500 -0.000667
942.106600 -0.000665
942.347700 0.000588
942.588900 -0.000731
942.830000 0.000200
943.071100 -0.000556
943.312300 -0.001395
943.553400 0.000278
943.794600 -0.000995
944.035700 -0.001237
944.276900 -0.000408
944.518100 -0.000566
944.759300 -0.000955
945.000500 0.000590
945.241700 -0.000585
945.482900 -0.001167
945.724100 -0.001307
945.965300 -0.000415
946.206600 0.000056
946.447800 0.000690
946.689100 -0.000336
946.930300 0.000559
947.171600 -0.000450
947.412800 -0.000292
947.654100 0.000824
947.895400 -0.001377
948.136700 -0.000559
948.378000 0.000295
948.619300 -0.001132
948.860600 -0.001234
949.101900 0.000177
949.343300 -0.000528
949.584600 -0.000692
949.825900 -0.000545
950.067300 -0.000917
950.308600 0.000485
950.550000 -0.000777
950.791400 0.000630
951.032700 0.000946
951.274100 -0.000187
951.515500 -0.001944
951.756900 -0.000548
951.998300 -0.000608
952.239800 -0.001202
952.481200 -0.000196
952.722600 0.000345
952.964000 -0.000463
953.205500 0.000071
953.446900 -0.000263
953.688400 -0.000604
953.929900 -0.001698
954.171300 0.001211
954.412800 -0.000463
954.654300 -0.000654
954.895800 0.000001
955.137300 0.000472
955.378800 -0.000073
955.620300 -0.000552
955.861800 -0.000420
956.103400 -0.000137
956.344900 -0.000463
956.586500 0.000282
956.828000 0.000328
957.069600 -0.000678
957.311100 0.000145
957.552700 -0.001881
957.794300 0.000799
958.035900 -0.000428
958.277500 0.000029
958.519100 -0.000594
958.760700 -0.000987
959.002300 0.000369
959.243900 -0.001100
959.485600 -0.000642
959.727200 -0.001013
959.968800 -0.000045
960.210500 -0.001009
960.452200 -0.000429
960.693800 0.000411
960.935500 0.001117
961.177200 -0.000569
961.418900 0.000208
961.660600 0.000174
961.902300 -0.000401
962.144000 0.000306
962.385700 0.000721
962.627400 -0.000189
962.869200 0.000408
963.110900 -0.000429
963.352700 0.000522
963.594400 -0.001097
963.836200 -0.000707
964.077900 -0.000661
964.319700 -0.000798
964.561500 -0.000070
964.803300 -0.000376
965.045100 0.000605
965.286900 0.000017
965.528700 0.000205
965.770500 -0.000584
966.012300 0.000703
966.254200 0.000552
966.496000 0.000436
966.737900 -0.001016
966.979700 -0.000619
967.221600 0.000081
967.463400 0.000194
967.705300 -0.001424
967.947200 0.000257
968.189100 0.000946
968.431000 -0.001132
968.672900 -0.001172
968.914800 0.000338
969.156700 -0.000060
969.398700 0.000024
969.640600 0.000081
969.882500 -0.001206
970.124500 0.000007
970.366400 -0.000681
970.608400 -0.000622
970.850400 0.000201
971.092300 0.000198
971.334300 -0.000187
971.576300 0.000605
971.818300 -0.000949
972.060300 0.000100
972.302300 -0.001163
972.544300 0.000130
972.786400 -0.001290
973.028400 -0.000678
973.270400 -0.001248
973.512500 -0.000017
973.754500 -0.000896
973.996600 0.000697
974.238700 -0.000882
974.480700 0.000506
974.722800 -0.001093
974.964900 0.000081
975.207000 -0.000239
975.449100 0.000700
975.691200 -0.000294
975.933300 -0.000105
976.175500 0.001716
976.417600 -0.000228
976.659700 -0.000967
976.901900 -0.000126
977.144000 -0.000542
977.386200 0.000650
977.628300 -0.001715
977.870500 -0.001192
978.112700 -0.000046
978.354900 -0.000277
978.597100 -0.000527
978.839300 -0.001754
979.081500 -0.000878
979.323700 0.000995
979.565900 0.000457
979.808200 -0.000530
980.050400 -0.001533
980.292600 -0.000278
980.534900 -0.000422
980.777100 -0.000398
981.019400 0.000465
981.261700 -0.000186
981.504000 -0.001836
981.746200 0.000588
981.988500 -0.001021
982.230800 0.000377
982.473100 -0.000774
982.715500 -0.001564
982.957800 -0.000662
983.200100 -0.000602
983.442400 -0.000299
983.684800 -0.000071
983.927100 -0.000640
984.169500 -0.000436
984.411800 0.000323
984.654200 -0.001100
984.896600 -0.001115
985.139000 0.000585
985.381400 -0.000453
985.623800 -0.000952
985.866200 -0.000442
986.108600 0.000950
986.351000 -0.001726
986.593400 -0.000440
986.835800 -0.000668
987.078300 0.001373
987.320700 -0.000228
987.563200 -0.000822
987.805600 -0.000102
988.048100 -0.000776
988.290600 0.000567
988.533100 0.000629
988.775600 -0.000249
989.018000 -0.000358
989.260500 -0.000499
989.503100 0.000798
989.745600 -0.000087
989.988100 0.000211
990.230600 -0.000700
990.473200 -0.000696
990.715700 -0.001666
990.958200 -0.000464
991.200800 -0.000264
991.443400 -0.000099
991.685900 -0.000165
991.928500 0.000170
992.171100 0.001196
992.413700 -0.001079
992.656300 -0.001483
992.898900 -0.001245
993.141500 -0.001370
993.384100 -0.001026
993.626700 -0.000689
993.869400 -0.000038
994.112000 -0.000538
994.354700 -0.000643
994.597300 -0.001132
994.840000 0.001431
995.082600 0.000982
995.325300 -0.000253
995.568000 -0.001439
995.810700 -0.000250
996.053400 -0.000028
996.296100 -0.001239
996.538800 -0.000369
996.781500 -0.001613
997.024200 0.000743
997.267000 0.000109
997.509700 -0.001196
997.752400 -0.000007
997.995200 -0.000404
998.237900 -0.000500
998.480700 -0.000113
998.723500 0.000904
998.966200 -0.000851
999.209000 0.000218
999.451800 -0.000351
999.694600 -0.001107
999.937400 -0.000120
1000.180200 -0.000035
1000.423000 -0.001738
1000.665900 -0.000039
1000.908700 -0.000133
1001.151500 -0.000481
1001.394400 -0.000271
1001.637200 -0.000512
1001.880100 0.000574
1002.123000 -0.000491
1002.365800 -0.000127
1002.608700 0.000296
1002.851600 -0.001132
1003.094500 -0.000703
1003.337400 0.000028
1003.580300 -0.000271
1003.823200 -0.000411
1004.066100 -0.000197
1004.309100 -0.000246
1004.552000 -0.000327
1004.794900 -0.000602
1005.037900 -0.000464
1005.280800 -0.000911
1005.523800 -0.000320
1005.766700 -0.000021
1006.009700 -0.000929
1006.252700 -0.000289
1006.495700 -0.000583
1006.738700 0.001730
1006.981700 -0.000914
1007.224700 -0.000672
1007.467700 0.000260
1007.710700 0.000081
1007.953800 -0.001601
1008.196800 -0.000183
1008.439800 -0.000960
1008.682900 -0.000200
1008.925900 -0.000636
1009.169000 -0.000003
1009.412100 0.000710
1009.655100 0.000197
1009.898200 -0.000660
1010.141300 0.000169
1010.384400 -0.000464
1010.627500 -0.000605
1010.870600 -0.000482
1011.113700 -0.001083
1011.356800 -0.000257
1011.600000 -0.000099
1011.843100 0.000785
1012.086300 0.000366
1012.329400 -0.000664
1012.572600 -0.000743
1012.815700 -0.000260
1013.058900 0.000207
1013.302100 -0.000309
1013.545200 -0.000067
1013.788400 -0.001132
1014.031600 0.000915
1014.274800 -0.000489
1014.518000 -0.001660
1014.761300 -0.000855
1015.004500 0.000584
1015.247700 -0.001361
1015.490900 -0.000225
1015.734200 -0.001079
1015.977400 -0.000623
1016.220700 0.000274
1016.464000 -0.000569
1016.707200 -0.000644
1016.950500 -0.000686
1017.193800 -0.001235
1017.437100 0.000230
1017.680400 -0.000872
1017.923700 -0.000851
1018.167000 -0.001884
1018.410300 0.000056
1018.653600 -0.001126
1018.896900 -0.001343
1019.140300 -0.000851
1019.383600 0.000423
1019.627000 0.000060
1019.870300 -0.000809
1020.113700 -0.000742
1020.357100 -0.000204
1020.600400 -0.001203
1020.843800 -0.000763
1021.087200 -0.001863
1021.330600 0.000134
1021.574000 -0.001251
1021.817400 -0.000176
1022.060800 0.000081
1022.304200 0.000517
1022.547700 -0.001329
1022.791100 -0.000246
1023.034500 -0.000633
