# Wavelength (nm)	Intensity (a.u.)
197.7802	-0.000185
197.9842	-0.000776
198.1882	-0.000164
198.3922	0.000997
198.5963	0.000195
198.8003	0.000596
199.0044	0.000491
199.2085	-0.000058
199.4126	-0.001388
199.6168	0.000470
199.8209	0.000554
200.0251	0.000681
200.2292	0.001103
200.4334	0.001863
200.6376	0.001187
200.8418	0.001187
201.0461	0.001314
201.2503	-0.000881
201.4546	-0.001071
201.6589	-0.000248
201.8631	0.001863
202.0674	0.000322
202.2718	-0.000100
202.4761	-0.001620
202.6805	0.000301
202.8848	0.000681
203.0892	-0.000522
203.2936	0.000047
203.4980	-0.000733
203.7024	-0.000311
203.9069	0.000575
204.1113	-0.001641
204.3158	0.000237
204.5203	-0.000818
204.7248	0.000427
204.9293	-0.000945
205.1338	0.000596
205.3384	0.000090
205.5430	-0.000354
205.7475	-0.001156
205.9521	0.000322
206.1567	0.000047
206.3614	0.000596
206.5660	-0.000227
206.7706	0.000005
206.9753	-0.000185
207.1800	0.001588
207.3847	0.000090
207.5894	0.001018
207.7941	-0.001430
207.9989	0.000427
208.2036	0.000280
208.4084	-0.000227
208.6132	-0.000079
208.8180	-0.000755
209.0228	0.000596
209.2276	0.001208
209.4325	-0.000311
209.6373	0.001905
209.8422	-0.000776
210.0471	-0.000818
210.2520	0.000892
210.4569	0.000828
210.6618	0.000491
210.8668	0.000681
211.0718	0.000575
211.2767	0.000364
211.4817	-0.000881
211.6867	0.001230
211.8918	-0.000079
212.0968	-0.000142
212.3018	-0.000670
212.5069	-0.000417
212.7120	0.000174
212.9171	0.000744
213.1222	-0.000797
213.3273	0.000765
213.5325	0.000807
213.7376	-0.000417
213.9428	-0.001219
214.1480	0.000069
214.3532	-0.000733
214.5584	0.001272
214.7636	-0.000354
214.9689	0.001061
215.1741	-0.000522
215.3794	0.000892
215.5847	-0.000586
215.7900	-0.000227
215.9953	0.000005
216.2007	0.000069
216.4060	0.000765
216.6114	-0.000607
216.8168	0.001061
217.0222	0.000069
217.2276	0.000807
217.4330	-0.000565
217.6384	0.000259
217.8439	0.000069
218.0494	-0.000586
218.2548	-0.000818
218.4603	-0.000459
218.6659	0.000660
218.8714	0.000449
219.0769	-0.000290
219.2825	0.001398
219.4881	0.000153
219.6936	-0.000544
219.8992	0.001040
220.1049	-0.000691
220.3105	-0.000565
220.5161	-0.000691
220.7218	0.000512
220.9275	-0.000037
221.1332	0.001230
221.3389	-0.000459
221.5446	0.000575
221.7503	0.000026
221.9561	0.000639
222.1618	0.000554
222.3676	0.000364
222.5734	-0.000206
222.7792	0.000343
222.9850	-0.000100
223.1909	0.000090
223.3967	0.000913
223.6026	-0.000987
223.8085	-0.000227
224.0144	-0.000733
224.2203	-0.000164
224.4262	0.001293
224.6322	0.001272
224.8381	-0.001409
225.0441	-0.000290
225.2501	0.000997
225.4561	-0.000544
225.6621	0.001145
225.8681	-0.000185
226.0742	0.001018
226.2802	-0.000438
226.4863	0.000090
226.6924	-0.000185
226.8985	0.001567
227.1046	-0.000354
227.3107	-0.000860
227.5169	0.000850
227.7230	0.001504
227.9292	0.001356
228.1354	0.000174
228.3416	-0.000438
228.5478	0.001293
228.7541	0.000132
228.9603	-0.000290
229.1666	-0.000185
229.3729	0.000491
229.5791	0.000934
229.7855	0.000533
229.9918	-0.000079
230.1981	0.000005
230.4045	0.001061
230.6108	0.000280
230.8172	0.000111
231.0236	0.000512
231.2300	-0.000269
231.4364	0.000681
231.6429	-0.000227
231.8493	0.001799
232.0558	-0.000818
232.2623	-0.000501
232.4688	0.000723
232.6753	-0.001071
232.8818	-0.000142
233.0884	0.000786
233.2949	-0.000839
233.5015	-0.000058
233.7081	0.000195
233.9147	0.000111
234.1213	-0.000290
234.3279	-0.000480
234.5346	-0.000037
234.7413	-0.000142
234.9479	-0.000966
235.1546	0.001145
235.3613	-0.000354
235.5680	0.000259
235.7748	-0.000248
235.9815	0.001567
236.1883	0.000744
236.3951	-0.000459
236.6018	-0.000881
236.8087	0.000871
237.0155	-0.001937
237.2223	-0.001282
237.4292	-0.000565
237.6360	0.000575
237.8429	-0.001346
238.0498	0.001842
238.2567	0.000807
238.4636	0.000174
238.6706	-0.000712
238.8775	0.001419
239.0845	-0.001198
239.2915	0.000449
239.4985	-0.000480
239.7055	0.001018
239.9125	0.000301
240.1195	0.000259
240.3266	-0.001071
240.5337	-0.000607
240.7407	0.000723
240.9478	0.000892
241.1549	0.000828
241.3621	0.000406
241.5692	0.000491
241.7764	0.000153
241.9835	-0.000206
242.1907	0.000533
242.3979	-0.000016
242.6051	-0.000100
242.8124	-0.000269
243.0196	0.000005
243.2269	-0.000227
243.4341	0.000491
243.6414	0.000786
243.8487	0.001504
244.0560	-0.001092
244.2634	0.001694
244.4707	0.001441
244.6781	-0.000649
244.8854	-0.000459
245.0928	-0.000649
245.3002	0.001040
245.5076	-0.000290
245.7151	-0.000227
245.9225	0.000090
246.1300	-0.001135
246.3375	0.000976
246.5449	-0.000164
246.7524	0.000871
246.9600	-0.000037
247.1675	-0.000670
247.3750	0.000596
247.5826	0.000575
247.7902	0.000976
247.9978	0.000892
248.2054	-0.000839
248.4130	0.000090
248.6206	-0.000396
248.8283	-0.000100
249.0359	-0.000839
249.2436	0.000174
249.4513	0.000026
249.6590	-0.000607
249.8667	0.000744
250.0745	0.000512
250.2822	-0.001261
250.4900	0.001314
250.6978	0.001082
250.9056	-0.000332
251.1134	0.000132
251.3212	0.000997
251.5290	0.000554
251.7369	0.001821
251.9447	0.000026
252.1526	0.000005
252.3605	0.000786
252.5684	0.000005
252.7763	-0.000776
252.9843	0.000301
253.1922	-0.000016
253.4002	0.001293
253.6082	-0.000269
253.8162	-0.000733
254.0242	-0.000417
254.2322	0.000765
254.4402	-0.000501
254.6483	-0.000058
254.8564	-0.000100
255.0644	0.000596
255.2725	0.000470
255.4806	0.000913
255.6888	-0.000776
255.8969	-0.000248
256.1051	-0.001346
256.3132	0.000237
256.5214	-0.001029
256.7296	0.000702
256.9378	0.000449
257.1460	0.001335
257.3543	-0.000058
257.5625	0.000259
257.7708	-0.000459
257.9791	0.001356
258.1874	-0.000733
258.3957	0.001230
258.6040	-0.000522
258.8124	0.000406
259.0207	0.001314
259.2291	-0.000100
259.4375	0.000702
259.6459	-0.000332
259.8543	-0.000248
260.0627	-0.000438
260.2711	0.000744
260.4796	0.000850
260.6881	-0.000164
260.8965	0.000153
261.1050	0.000153
261.3135	0.001082
261.5221	0.000934
261.7306	0.000322
261.9392	0.000449
262.1477	-0.000691
262.3563	0.000280
262.5649	-0.000332
262.7735	0.000322
262.9822	0.001989
263.1908	-0.000987
263.3995	0.000406
263.6081	-0.001240
263.8168	-0.000121
264.0255	0.000913
264.2342	0.000871
264.4429	-0.000691
264.6517	0.000132
264.8604	-0.001156
265.0692	0.000491
265.2780	0.001061
265.4868	-0.000227
265.6956	0.000237
265.9044	0.001040
266.1133	-0.000755
266.3221	-0.000818
266.5310	0.000090
266.7399	-0.000881
266.9488	-0.001135
267.1577	-0.000185
267.3666	-0.000100
267.5755	-0.000185
267.7845	0.000807
267.9935	0.000702
268.2024	0.000470
268.4114	0.000174
268.6205	0.000427
268.8295	0.002011
269.0385	0.000153
269.2476	-0.001346
269.4566	-0.001810
269.6657	0.000301
269.8748	0.000364
270.0839	0.000174
270.2931	-0.000565
270.5022	0.000828
270.7114	0.000702
270.9205	-0.000354
271.1297	0.000385
271.3389	0.000069
271.5481	0.000744
271.7573	-0.000396
271.9666	-0.000227
272.1758	0.000195
272.3851	0.000132
272.5944	0.001926
272.8037	-0.000248
273.0130	-0.000522
273.2223	0.000132
273.4316	-0.000185
273.6410	0.000237
273.8504	-0.000332
274.0597	-0.000311
274.2691	-0.001029
274.4785	0.000596
274.6880	0.001441
274.8974	-0.000079
275.1069	-0.000248
275.3163	-0.000100
275.5258	-0.000121
275.7353	-0.000565
275.9448	-0.000185
276.1543	0.000069
276.3639	-0.000100
276.5734	-0.000332
276.7830	0.000871
276.9926	-0.000164
277.2022	-0.000100
277.4118	0.000132
277.6214	0.000934
277.8310	0.000237
278.0407	-0.001156
278.2503	-0.000438
278.4600	-0.000227
278.6697	0.000723
278.8794	0.000660
279.0891	-0.000565
279.2989	-0.000396
279.5086	0.000765
279.7184	0.000744
279.9281	0.000850
280.1379	0.001208
280.3477	0.000470
280.5576	0.000892
280.7674	-0.001388
280.9772	-0.000649
281.1871	0.000259
281.3970	0.000997
281.6069	0.000744
281.8168	0.000216
282.0267	-0.001346
282.2366	-0.000649
282.4466	-0.000290
282.6565	-0.000375
282.8665	0.000280
283.0765	0.001441
283.2865	-0.000269
283.4965	-0.001599
283.7065	0.000132
283.9166	0.000681
284.1266	0.000047
284.3367	0.001208
284.5468	-0.000354
284.7569	0.000533
284.9670	-0.000628
285.1771	0.000871
285.3873	0.000364
285.5974	-0.000269
285.8076	-0.000881
286.0178	-0.000354
286.2280	0.000955
286.4382	0.000259
286.6484	-0.002127
286.8587	0.000111
287.0689	-0.000459
287.2792	-0.000100
287.4895	0.000132
287.6998	0.000997
287.9101	-0.000670
288.1204	0.000132
288.3308	-0.000037
288.5411	0.000427
288.7515	-0.000016
288.9619	0.000744
289.1723	-0.001029
289.3827	0.001673
289.5931	-0.000396
289.8035	0.000765
290.0140	0.000047
290.2245	0.000090
290.4349	-0.000649
290.6454	-0.000058
290.8559	-0.000818
291.0665	0.001187
291.2770	0.000385
291.4875	0.000828
291.6981	-0.000459
291.9087	-0.000522
292.1193	-0.000501
292.3299	0.001208
292.5405	-0.000607
292.7511	0.000639
292.9618	0.000828
293.1724	0.000005
293.3831	0.000280
293.5938	0.000322
293.8045	-0.000459
294.0152	0.001061
294.2260	0.001377
294.4367	0.001821
294.6475	0.001251
294.8582	0.001799
295.0690	-0.000227
295.2798	0.000237
295.4906	0.000385
295.7015	0.001103
295.9123	-0.000100
296.1232	-0.001219
296.3340	-0.000079
296.5449	0.001398
296.7558	-0.000037
296.9667	-0.000881
297.1777	-0.001346
297.3886	0.000069
297.5995	-0.000016
297.8105	0.001103
298.0215	-0.001747
298.2325	-0.000037
298.4435	-0.001135
298.6545	0.000702
298.8656	0.000005
299.0766	-0.000227
299.2877	-0.001282
299.4988	0.000069
299.7099	-0.000396
299.9210	-0.000079
300.1321	-0.000269
300.3432	0.001230
300.5544	0.000322
300.7655	-0.000016
300.9767	0.000364
301.1879	0.000047
301.3991	-0.000459
301.6103	0.000427
301.8215	0.000744
302.0328	0.001968
302.2441	-0.001536
302.4553	0.000322
302.6666	0.000364
302.8779	0.000913
303.0892	0.000090
303.3006	0.000871
303.5119	0.000301
303.7233	-0.000902
303.9346	0.000427
304.1460	-0.000037
304.3574	-0.002000
304.5688	-0.000164
304.7803	-0.000248
304.9917	0.000174
305.2031	0.000005
305.4146	0.001208
305.6261	0.000364
305.8376	0.000364
306.0491	-0.000776
306.2606	0.000449
306.4722	-0.000079
306.6837	0.000512
306.8953	0.000449
307.1069	0.000237
307.3184	-0.001135
307.5301	0.000090
307.7417	-0.000058
307.9533	-0.001156
308.1650	-0.000818
308.3766	0.000470
308.5883	0.000026
308.8000	0.002137
309.0117	-0.000691
309.2234	0.000069
309.4351	-0.000206
309.6469	0.000322
309.8586	0.000174
310.0704	-0.000417
310.2822	0.000976
310.4940	0.000660
310.7058	-0.000459
310.9176	0.000322
311.1295	-0.001282
311.3413	0.000596
311.5532	-0.000712
311.7651	-0.000332
311.9770	-0.000417
312.1889	0.000828
312.4008	-0.000733
312.6127	0.000259
312.8247	-0.000923
313.0366	0.000828
313.2486	0.001715
313.4606	-0.000142
313.6726	-0.000142
313.8846	-0.000797
314.0967	-0.000586
314.3087	0.000301
314.5208	0.000617
314.7328	0.000343
314.9449	0.000132
315.1570	-0.000037
315.3692	0.000828
315.5813	0.000892
315.7934	-0.000797
316.0056	0.000026
316.2177	-0.000522
316.4299	-0.001514
316.6421	0.000111
316.8543	0.000850
317.0666	-0.000311
317.2788	0.000280
317.4911	0.000280
317.7033	-0.000966
317.9156	-0.001029
318.1279	0.000660
318.3402	-0.000185
318.5525	-0.000354
318.7649	-0.000332
318.9772	-0.000269
319.1896	0.000617
319.4019	0.000005
319.6143	0.000153
319.8267	0.000301
320.0392	-0.000755
320.2516	0.000322
320.4640	-0.001261
320.6765	0.000449
320.8890	-0.000459
321.1014	-0.000354
321.3139	-0.000164
321.5265	0.000491
321.7390	-0.000079
321.9515	-0.000248
322.1641	-0.001367
322.3766	-0.000058
322.5892	-0.000354
322.8018	-0.000185
323.0144	-0.000100
323.2270	0.000596
323.4397	-0.000691
323.6523	0.001293
323.8650	0.000343
324.0777	-0.000818
324.2904	0.001018
324.5031	0.000195
324.7158	-0.000079
324.9285	-0.000649
325.1412	-0.001873
325.3540	-0.000290
325.5668	0.000026
325.7796	0.001018
325.9924	0.000976
326.2052	-0.000733
326.4180	0.000322
326.6308	-0.000733
326.8437	-0.000121
327.0566	-0.000354
327.2694	0.000237
327.4823	-0.000670
327.6952	-0.000269
327.9082	-0.000311
328.1211	0.001103
328.3340	0.000406
328.5470	-0.001514
328.7600	-0.001008
328.9730	-0.000269
329.1860	0.000976
329.3990	-0.000797
329.6120	0.000427
329.8251	0.000702
330.0381	-0.000016
330.2512	0.001145
330.4643	0.000132
330.6774	-0.000100
330.8905	0.001293
331.1036	0.000216
331.3167	0.001314
331.5299	0.000216
331.7431	0.000237
331.9562	-0.000354
332.1694	-0.000417
332.3826	0.000449
332.5959	-0.000269
332.8091	-0.001008
333.0223	0.000934
333.2356	0.000069
333.4489	0.000427
333.6622	0.001335
333.8755	0.000955
334.0888	0.000047
334.3021	-0.000290
334.5154	0.000174
334.7288	-0.000797
334.9422	0.000512
335.1555	0.000596
335.3689	-0.002042
335.5823	0.000786
335.7958	0.000997
336.0092	0.000533
336.2227	0.000343
336.4361	-0.000016
336.6496	0.000406
336.8631	0.000069
337.0766	-0.000776
337.2901	-0.000354
337.5036	-0.000480
337.7172	-0.000522
337.9307	-0.001472
338.1443	0.000111
338.3579	-0.000544
338.5715	-0.000691
338.7851	-0.000565
338.9987	-0.001325
339.2124	0.000660
339.4260	0.000913
339.6397	-0.001071
339.8533	0.001272
340.0670	-0.001261
340.2807	0.001356
340.4945	0.000090
340.7082	0.001504
340.9219	0.000343
341.1357	0.000512
341.3495	0.000322
341.5633	-0.000332
341.7771	-0.000544
341.9909	0.000723
342.2047	0.000090
342.4185	0.000132
342.6324	-0.000142
342.8463	0.000364
343.0601	-0.000227
343.2740	0.000828
343.4879	0.001040
343.7019	-0.000206
343.9158	-0.000185
344.1297	0.000132
344.3437	-0.000902
344.5577	-0.000185
344.7717	-0.000037
344.9857	0.000681
345.1997	0.000786
345.4137	-0.000037
345.6277	-0.000016
345.8418	-0.000058
346.0559	0.000047
346.2699	0.000153
346.4840	-0.001092
346.6981	-0.001578
346.9123	0.000259
347.1264	0.000047
347.3406	-0.000733
347.5547	0.001504
347.7689	-0.000164
347.9831	0.001631
348.1973	-0.000417
348.4115	0.000617
348.6257	-0.000501
348.8400	-0.000544
349.0542	-0.000691
349.2685	-0.001472
349.4828	0.000427
349.6971	0.000132
349.9114	0.000427
350.1257	0.000449
350.3400	-0.000923
350.5544	0.000216
350.7687	-0.001303
350.9831	0.000280
351.1975	0.000639
351.4119	0.000153
351.6263	-0.000311
351.8407	-0.001008
352.0552	-0.000290
352.2696	0.001082
352.4841	0.000301
352.6986	0.001124
352.9131	-0.000459
353.1276	-0.000987
353.3421	-0.001346
353.5566	-0.000311
353.7712	-0.001177
353.9858	0.000681
354.2003	-0.000290
354.4149	0.000322
354.6295	-0.000079
354.8441	-0.000227
355.0588	0.000005
355.2734	0.000449
355.4881	0.001187
355.7027	0.000174
355.9174	0.000153
356.1321	0.000575
356.3468	0.000153
356.5615	0.000111
356.7763	0.000807
356.9910	0.000828
357.2058	-0.000923
357.4206	0.001124
357.6353	0.000111
357.8501	-0.000100
358.0650	-0.000311
358.2798	0.000639
358.4946	-0.001113
358.7095	0.001314
358.9243	0.001588
359.1392	0.000470
359.3541	-0.000501
359.5690	-0.000375
359.7839	-0.000417
359.9989	-0.001578
360.2138	-0.000670
360.4288	0.000807
360.6438	-0.000121
360.8587	0.000997
361.0737	-0.000628
361.2888	0.000913
361.5038	0.000406
361.7188	0.001694
361.9339	0.001103
362.1489	0.000301
362.3640	0.001504
362.5791	0.001018
362.7942	-0.000079
363.0093	-0.001135
363.2245	-0.001979
363.4396	0.001462
363.6548	-0.000100
363.8699	0.000301
364.0851	-0.001092
364.3003	0.000237
364.5155	-0.001852
364.7308	-0.000881
364.9460	0.000174
365.1612	0.002032
365.3765	-0.001894
365.5918	0.000069
365.8071	-0.000987
366.0224	0.001884
366.2377	-0.000100
366.4530	-0.000459
366.6684	0.000533
366.8837	0.001018
367.0991	0.000364
367.3145	0.000216
367.5299	-0.001219
367.7453	-0.001135
367.9607	-0.000079
368.1761	0.002095
368.3916	0.000575
368.6070	0.000385
368.8225	0.001040
369.0380	0.000765
369.2535	0.000385
369.4690	-0.000480
369.6845	-0.000142
369.9001	-0.000501
370.1156	-0.000142
370.3312	-0.000354
370.5468	-0.000185
370.7624	0.000322
370.9780	0.001145
371.1936	0.001103
371.4092	0.000512
371.6249	0.000554
371.8405	-0.000522
372.0562	0.001968
372.2719	0.001377
372.4876	-0.000332
372.7033	0.000744
372.9190	0.001124
373.1348	-0.000354
373.3505	0.001525
373.5663	0.000744
373.7820	0.002348
373.9978	0.000280
374.2136	0.001567
374.4294	0.000005
374.6453	0.001356
374.8611	0.001419
375.0770	0.001335
375.2928	0.002116
375.5087	0.002665
375.7246	0.000385
375.9405	0.002369
376.1564	0.001166
376.3724	0.002074
376.5883	0.001293
376.8043	0.002897
377.0203	0.002032
377.2362	0.002074
377.4522	0.003129
377.6682	0.001799
377.8843	0.003974
378.1003	0.003847
378.3164	0.001293
378.5324	0.003425
378.7485	0.003066
378.9646	0.004522
379.1807	0.003784
379.3968	0.004459
379.6129	0.004628
379.8291	0.005050
380.0452	0.005725
380.2614	0.005134
380.4776	0.005092
380.6938	0.004459
380.9100	0.004396
381.1262	0.006907
381.3424	0.005704
381.5587	0.007942
381.7749	0.006148
381.9912	0.005958
382.2075	0.006528
382.4238	0.008512
382.6401	0.007836
382.8564	0.008301
383.0728	0.008828
383.2891	0.009546
383.5055	0.009082
383.7219	0.009567
383.9382	0.008807
384.1546	0.008596
384.3711	0.009588
384.5875	0.009250
384.8039	0.010812
385.0204	0.011340
385.2368	0.009483
385.4533	0.011382
385.6698	0.010686
385.8863	0.011340
386.1028	0.010770
386.3194	0.012585
386.5359	0.013620
386.7525	0.014316
386.9690	0.013789
387.1856	0.010686
387.4022	0.012670
387.6188	0.014126
387.8355	0.014844
388.0521	0.014063
388.2687	0.014675
388.4854	0.016744
388.7021	0.014696
388.9188	0.014823
389.1355	0.016258
389.3522	0.015329
389.5689	0.015984
389.7856	0.018453
390.0024	0.015878
390.2192	0.018158
390.4359	0.016300
390.6527	0.015836
390.8695	0.017229
391.0863	0.017989
391.3032	0.019044
391.5200	0.017588
391.7369	0.017693
391.9537	0.020459
392.1706	0.019234
392.3875	0.021176
392.6044	0.019678
392.8213	0.023794
393.0383	0.023899
393.2552	0.022274
393.4722	0.022274
393.6891	0.022823
393.9061	0.020374
394.1231	0.021619
394.3401	0.021113
394.5572	0.022759
394.7742	0.021598
394.9912	0.026390
395.2083	0.023899
395.4254	0.023245
395.6425	0.024490
395.8596	0.022168
396.0767	0.023160
396.2938	0.024997
396.5109	0.024532
396.7281	0.026158
396.9453	0.024195
397.1624	0.026495
397.3796	0.025482
397.5968	0.026200
397.8140	0.028669
398.0313	0.028311
398.2485	0.027445
398.4658	0.030379
398.6830	0.027762
398.9003	0.030717
399.1176	0.028078
399.3349	0.030464
399.5522	0.028944
399.7696	0.028205
399.9869	0.027762
400.2043	0.028437
400.4216	0.028057
400.6390	0.028268
400.8564	0.027656
401.0738	0.029387
401.2912	0.029851
401.5087	0.028353
401.7261	0.028036
401.9436	0.029260
402.1610	0.030801
402.3785	0.029556
402.5960	0.029176
402.8135	0.027276
403.0310	0.030105
403.2486	0.029197
403.4661	0.028859
403.6837	0.028902
403.9013	0.029851
404.1189	0.029556
404.3365	0.029999
404.5541	0.030105
404.7717	0.029345
404.9893	0.028986
405.2070	0.031266
405.4246	0.030485
405.6423	0.033841
405.8600	0.031371
406.0777	0.030231
406.2954	0.033060
406.5131	0.029640
406.7309	0.031139
406.9486	0.030105
407.1664	0.029556
407.3842	0.030696
407.6020	0.030400
407.8198	0.028606
408.0376	0.031076
408.2554	0.029788
408.4733	0.030928
408.6911	0.031814
408.9090	0.031033
409.1269	0.030231
409.3448	0.029619
409.5627	0.031857
409.7806	0.031582
409.9985	0.032173
410.2165	0.031751
410.4344	0.029408
410.6524	0.028353
410.8704	0.030632
411.0884	0.031055
411.3064	0.029978
411.5244	0.030485
411.7424	0.030147
411.9605	0.030928
412.1785	0.032448
412.3966	0.031983
412.6147	0.033588
412.8328	0.034200
413.0509	0.033651
413.2690	0.031836
413.4871	0.032807
413.7053	0.034157
413.9234	0.032448
414.1416	0.030886
414.3598	0.033440
414.5780	0.033271
414.7962	0.032194
415.0144	0.030527
415.2326	0.031793
415.4509	0.031540
415.6692	0.033482
415.8874	0.031688
416.1057	0.031435
416.3240	0.031878
416.5423	0.031667
416.7606	0.032870
416.9790	0.031688
417.1973	0.032828
417.4157	0.034242
417.6341	0.032342
417.8524	0.034791
418.0708	0.032321
418.2893	0.033946
418.5077	0.033398
418.7261	0.033799
418.9446	0.032173
419.1630	0.035255
419.3815	0.033292
419.6000	0.034094
419.8185	0.034368
420.0370	0.036268
420.2555	0.035740
420.4741	0.033799
420.6926	0.034812
420.9112	0.036521
421.1298	0.038358
421.3483	0.041608
421.5669	0.041017
421.7856	0.043002
422.0042	0.042009
422.2228	0.040068
422.4415	0.038928
422.6601	0.040194
422.8788	0.037197
423.0975	0.039075
423.3162	0.041756
423.5349	0.040342
423.7536	0.038843
423.9724	0.036627
424.1911	0.038484
424.4099	0.037577
424.6287	0.038801
424.8475	0.037218
425.0663	0.037809
425.2851	0.036163
425.5039	0.037070
425.7228	0.035783
425.9416	0.035593
426.1605	0.033841
426.3793	0.034770
426.5982	0.036331
426.8171	0.034115
427.0361	0.032511
427.2550	0.036669
427.4739	0.036754
427.6929	0.036817
427.9118	0.037324
428.1308	0.035593
428.3498	0.036310
428.5688	0.036099
428.7878	0.036690
429.0068	0.035740
429.2259	0.036880
429.4449	0.038801
429.6640	0.039371
429.8831	0.042896
430.1022	0.043487
430.3213	0.042263
430.5404	0.041925
430.7595	0.039709
430.9787	0.041397
431.1978	0.041967
431.4170	0.038379
431.6362	0.036606
431.8553	0.037514
432.0745	0.033820
432.2938	0.034390
432.5130	0.035192
432.7322	0.036543
432.9515	0.034221
433.1707	0.036078
433.3900	0.033672
433.6093	0.036859
433.8286	0.041482
434.0479	0.041587
434.2673	0.040637
434.4866	0.039012
434.7059	0.038379
434.9253	0.039329
435.1447	0.038231
435.3641	0.037957
435.5835	0.037345
435.8029	0.038316
436.0223	0.037640
436.2418	0.037450
436.4612	0.041017
436.6807	0.040363
436.9001	0.039519
437.1196	0.039709
437.3391	0.037746
437.5586	0.038632
437.7782	0.039160
437.9977	0.037028
438.2173	0.037915
438.4368	0.038907
438.6564	0.038105
438.8760	0.040089
439.0956	0.040004
439.3152	0.041440
439.5348	0.038759
439.7545	0.040532
439.9741	0.039012
440.1938	0.037218
440.4135	0.036437
440.6331	0.039160
440.8528	0.040764
441.0725	0.043656
441.2923	0.044099
441.5120	0.047519
441.7318	0.046526
441.9515	0.048046
442.1713	0.045893
442.3911	0.047139
442.6109	0.043635
442.8307	0.043339
443.0505	0.042410
443.2703	0.044648
443.4902	0.044922
443.7101	0.045492
443.9299	0.045619
444.1498	0.044373
444.3697	0.045767
444.5896	0.044901
444.8095	0.041524
445.0295	0.043909
445.2494	0.045239
445.4694	0.043381
445.6894	0.044732
445.9093	0.042537
446.1293	0.042537
446.3493	0.043149
446.5694	0.042833
446.7894	0.044458
447.0094	0.041735
447.2295	0.043571
447.4496	0.042875
447.6696	0.043740
447.8897	0.041693
448.1098	0.042833
448.3300	0.042558
448.5501	0.041651
448.7702	0.040215
448.9904	0.042199
449.2106	0.042579
449.4307	0.040532
449.6509	0.039624
449.8711	0.042242
450.0914	0.040110
450.3116	0.041672
450.5318	0.041841
450.7521	0.043065
450.9724	0.038949
451.1926	0.038991
451.4129	0.039920
451.6332	0.039434
451.8535	0.036859
452.0739	0.038674
452.2942	0.037197
452.5146	0.039793
452.7349	0.037809
452.9553	0.038928
453.1757	0.037260
453.3961	0.036564
453.6165	0.036395
453.8369	0.035382
454.0574	0.038147
454.2778	0.037978
454.4983	0.036120
454.7188	0.036817
454.9393	0.033862
455.1597	0.034558
455.3803	0.035867
455.6008	0.036690
455.8213	0.036458
456.0419	0.036733
456.2624	0.034727
456.4830	0.034516
456.7036	0.036289
456.9242	0.036353
457.1448	0.035086
457.3654	0.036310
457.5860	0.036458
457.8067	0.037492
458.0274	0.037134
458.2480	0.036606
458.4687	0.039118
458.6894	0.036859
458.9101	0.037049
459.1308	0.036479
459.3516	0.038674
459.5723	0.037492
459.7931	0.038738
460.0138	0.038801
460.2346	0.036669
460.4554	0.035107
460.6762	0.035445
460.8970	0.036205
461.1178	0.034706
461.3387	0.034938
461.5595	0.036015
461.7804	0.034284
462.0013	0.032743
462.2222	0.031688
462.4431	0.033566
462.6640	0.031139
462.8849	0.031392
463.1059	0.030569
463.3268	0.033609
463.5478	0.035487
463.7687	0.033081
463.9897	0.033820
464.2107	0.036374
464.4317	0.034432
464.6528	0.036015
464.8738	0.035086
465.0948	0.036184
465.3159	0.038886
465.5370	0.034833
465.7581	0.040511
465.9792	0.035804
466.2003	0.036733
466.4214	0.034896
466.6425	0.031392
466.8637	0.034558
467.0848	0.031519
467.3060	0.029894
467.5272	0.031688
467.7484	0.028416
467.9696	0.029661
468.1908	0.032258
468.4120	0.029535
468.6333	0.029260
468.8545	0.027002
469.0758	0.027741
469.2970	0.028163
469.5183	0.027086
469.7396	0.023625
469.9610	0.025651
470.1823	0.023266
470.4036	0.025440
470.6250	0.025567
470.8463	0.025778
471.0677	0.023540
471.2891	0.023688
471.5105	0.025081
471.7319	0.024110
471.9533	0.025567
472.1748	0.026854
472.3962	0.025377
472.6177	0.027065
472.8391	0.027297
473.0606	0.025524
473.2821	0.025947
473.5036	0.026242
473.7251	0.026664
473.9467	0.026664
474.1682	0.026685
474.3898	0.025461
474.6113	0.023984
474.8329	0.025503
475.0545	0.026031
475.2761	0.026791
475.4977	0.027867
475.7193	0.026706
475.9410	0.026601
476.1626	0.025503
476.3843	0.026010
476.6060	0.026369
476.8277	0.025440
477.0494	0.025356
477.2711	0.023984
477.4928	0.021809
477.7145	0.023730
477.9363	0.025567
478.1580	0.025651
478.3798	0.025440
478.6016	0.024997
478.8234	0.023582
479.0452	0.024279
479.2670	0.024427
479.4888	0.024743
479.7107	0.021345
479.9325	0.023730
480.1544	0.026179
480.3763	0.026791
480.5982	0.026200
480.8201	0.023160
481.0420	0.025524
481.2639	0.025208
481.4859	0.026137
481.7078	0.023899
481.9298	0.025018
482.1517	0.026875
482.3737	0.026010
482.5957	0.023815
482.8177	0.022400
483.0398	0.021957
483.2618	0.023836
483.4838	0.025187
483.7059	0.024152
483.9280	0.022400
484.1501	0.025778
484.3721	0.024575
484.5943	0.027255
484.8164	0.026749
485.0385	0.027825
485.2606	0.026580
485.4828	0.037492
485.7050	0.057988
485.9271	0.079475
486.1493	0.084225
486.3715	0.073460
486.5937	0.057502
486.8160	0.047054
487.0382	0.043445
487.2605	0.042917
487.4827	0.036184
487.7050	0.027973
487.9273	0.025419
488.1496	0.025630
488.3719	0.023519
488.5942	0.022168
488.8165	0.021197
489.0389	0.021894
489.2612	0.020353
489.4836	0.021514
489.7060	0.022105
489.9284	0.021493
490.1508	0.021007
490.3732	0.020205
490.5956	0.021028
490.8180	0.020290
491.0405	0.020459
491.2630	0.019530
491.4854	0.019298
491.7079	0.018981
491.9304	0.020522
492.1529	0.020860
492.3755	0.021028
492.5980	0.019572
492.8205	0.018749
493.0431	0.018559
493.2657	0.019129
493.4882	0.019846
493.7108	0.019868
493.9334	0.020015
494.1561	0.018601
494.3787	0.019382
494.6013	0.019340
494.8240	0.019192
495.0466	0.018960
495.2693	0.017461
495.4920	0.017356
495.7147	0.017102
495.9374	0.019403
496.1601	0.018474
496.3829	0.019445
496.6056	0.021957
496.8284	0.019319
497.0511	0.020290
497.2739	0.018453
497.4967	0.017335
497.7195	0.015773
497.9423	0.016744
498.1652	0.016849
498.3880	0.016617
498.6109	0.017841
498.8337	0.018496
499.0566	0.017968
499.2795	0.016427
499.5024	0.018095
499.7253	0.018348
499.9482	0.017757
500.1712	0.016153
500.3941	0.018137
500.6171	0.018137
500.8400	0.015308
501.0630	0.018686
501.2860	0.016511
501.5090	0.018390
501.7320	0.015182
501.9551	0.018897
502.1781	0.017145
502.4012	0.016807
502.6242	0.017630
502.8473	0.017124
503.0704	0.017377
503.2935	0.017377
503.5166	0.017482
503.7397	0.017546
503.9628	0.017377
504.1860	0.015667
504.4092	0.015203
504.6323	0.015963
504.8555	0.015857
505.0787	0.016364
505.3019	0.014591
505.5251	0.015034
505.7483	0.014295
505.9716	0.013957
506.1948	0.014928
506.4181	0.016976
506.6414	0.015667
506.8647	0.014971
507.0880	0.014358
507.3113	0.013915
507.5346	0.013303
507.7579	0.014781
507.9813	0.014274
508.2046	0.015562
508.4280	0.013514
508.6514	0.014760
508.8748	0.013936
509.0982	0.015498
509.3216	0.014865
509.5450	0.014337
509.7685	0.014675
509.9919	0.014401
510.2154	0.013366
510.4388	0.013113
510.6623	0.014422
510.8858	0.013155
511.1093	0.013430
511.3329	0.014295
511.5564	0.013810
511.7799	0.014865
512.0035	0.014084
512.2270	0.013514
512.4506	0.012733
512.6742	0.013725
512.8978	0.013957
513.1214	0.014126
513.3451	0.013303
513.5687	0.013472
513.7923	0.012374
514.0160	0.013134
514.2397	0.012585
514.4634	0.012100
514.6871	0.013409
514.9108	0.011572
515.1345	0.010960
515.3582	0.012037
515.5819	0.011277
515.8057	0.013409
516.0295	0.013071
516.2532	0.013303
516.4770	0.012269
516.7008	0.011467
516.9246	0.013071
517.1485	0.013430
517.3723	0.012607
517.5961	0.010939
517.8200	0.010855
518.0439	0.012649
518.2677	0.012395
518.4916	0.010918
518.7155	0.011868
518.9395	0.011045
519.1634	0.012248
519.3873	0.013282
519.6113	0.013240
519.8352	0.012227
520.0592	0.012058
520.2832	0.012480
520.5072	0.010939
520.7312	0.010833
520.9552	0.011235
521.1792	0.011636
521.4033	0.012480
521.6273	0.012079
521.8514	0.011868
522.0755	0.010960
522.2996	0.012733
522.5237	0.009841
522.7478	0.011910
522.9719	0.012058
523.1960	0.011087
523.4202	0.012163
523.6443	0.010390
523.8685	0.012585
524.0927	0.012374
524.3169	0.011425
524.5411	0.012374
524.7653	0.010095
524.9895	0.011614
525.2138	0.011889
525.4380	0.011213
525.6623	0.011150
525.8865	0.012184
526.1108	0.012269
526.3351	0.011847
526.5594	0.012670
526.7837	0.012417
527.0081	0.011382
527.2324	0.012353
527.4568	0.012269
527.6811	0.013050
527.9055	0.011509
528.1299	0.011910
528.3543	0.012480
528.5787	0.012818
528.8031	0.013113
529.0276	0.014021
529.2520	0.012691
529.4765	0.013303
529.7009	0.014337
529.9254	0.013155
530.1499	0.014907
530.3744	0.014738
530.5989	0.012248
530.8234	0.013683
531.0480	0.013556
531.2725	0.011931
531.4971	0.012290
531.7217	0.013577
531.9462	0.012543
532.1708	0.014380
532.3954	0.013873
532.6200	0.014401
532.8447	0.014781
533.0693	0.015857
533.2940	0.016089
533.5186	0.018158
533.7433	0.017461
533.9680	0.017187
534.1927	0.015583
534.4174	0.018643
534.6421	0.016828
534.8668	0.016934
535.0916	0.018664
535.3163	0.017630
535.5411	0.015878
535.7659	0.018052
535.9907	0.017335
536.2155	0.015562
536.4403	0.015562
536.6651	0.017693
536.8899	0.013957
537.1148	0.016026
537.3396	0.016132
537.5645	0.018179
537.7894	0.018116
538.0143	0.018010
538.2392	0.019846
538.4641	0.019551
538.6890	0.020733
538.9139	0.019931
539.1389	0.019762
539.3638	0.019234
539.5888	0.019467
539.8138	0.019361
540.0388	0.020522
540.2638	0.019319
540.4888	0.019678
540.7138	0.020543
540.9389	0.020670
541.1639	0.019192
541.3890	0.021619
541.6140	0.023055
541.8391	0.019994
542.0642	0.023730
542.2893	0.022970
542.5144	0.021788
542.7396	0.021662
542.9647	0.021915
543.1899	0.023878
543.4150	0.024575
543.6402	0.022654
543.8654	0.024174
544.0906	0.024047
544.3158	0.023878
544.5410	0.024828
544.7662	0.025841
544.9915	0.024596
545.2167	0.024300
545.4420	0.023772
545.6673	0.024553
545.8926	0.025820
546.1179	0.024321
546.3432	0.022780
546.5685	0.024743
546.7938	0.023899
547.0192	0.025419
547.2445	0.022612
547.4699	0.025292
547.6953	0.026073
547.9206	0.028479
548.1460	0.032532
548.3715	0.030379
548.5969	0.031413
548.8223	0.031603
549.0478	0.029260
549.2732	0.027086
549.4987	0.026284
549.7242	0.027910
549.9496	0.027466
550.1751	0.028543
550.4007	0.026516
550.6262	0.027129
550.8517	0.026854
551.0773	0.025208
551.3028	0.025229
551.5284	0.025672
551.7540	0.025419
551.9796	0.030168
552.2052	0.030379
552.4308	0.032595
552.6564	0.030886
552.8820	0.030738
553.1077	0.030400
553.3333	0.031012
553.5590	0.033018
553.7847	0.032532
554.0104	0.033820
554.2361	0.031878
554.4618	0.032110
554.6875	0.030063
554.9132	0.029809
555.1390	0.031477
555.3648	0.030949
555.5905	0.034052
555.8163	0.033229
556.0421	0.034643
556.2679	0.034263
556.4937	0.033229
556.7195	0.032300
556.9454	0.033672
557.1712	0.031709
557.3971	0.033777
557.6230	0.032722
557.8488	0.035128
558.0747	0.033989
558.3006	0.031941
558.5266	0.032807
558.7525	0.032638
558.9784	0.031413
559.2044	0.031477
559.4303	0.031814
559.6563	0.033229
559.8823	0.033714
560.1083	0.036078
560.3343	0.038020
560.5603	0.040384
560.7863	0.040891
561.0124	0.042410
561.2384	0.042875
561.4645	0.041883
561.6905	0.041334
561.9166	0.041777
562.1427	0.041503
562.3688	0.041060
562.5949	0.038506
562.8211	0.040996
563.0472	0.039498
563.2733	0.042516
563.4995	0.040806
563.7257	0.042706
563.9519	0.043297
564.1781	0.046168
564.4043	0.045070
564.6305	0.046822
564.8567	0.044627
565.0829	0.048701
565.3092	0.045851
565.5355	0.047244
565.7617	0.045091
565.9880	0.048933
566.2143	0.046674
566.4406	0.049207
566.6669	0.046949
566.8932	0.049439
567.1196	0.052162
567.3459	0.057460
567.5723	0.062758
567.7987	0.063581
568.0250	0.066769
568.2514	0.066452
568.4778	0.067697
568.7043	0.074705
568.9307	0.077618
569.1571	0.080826
569.3836	0.086061
569.6100	0.095243
569.8365	0.107570
570.0630	0.115675
570.2895	0.117427
570.5160	0.117891
570.7425	0.117385
570.9690	0.124498
571.1956	0.129859
571.4221	0.139885
571.6487	0.140181
571.8752	0.147695
572.1018	0.153078
572.3284	0.148244
572.5550	0.142355
572.7816	0.133912
573.0082	0.129332
573.2349	0.136445
573.4615	0.150228
573.6882	0.161774
573.9149	0.168064
574.1415	0.172243
574.3682	0.180391
574.5949	0.183367
574.8216	0.184676
575.0484	0.183789
575.2751	0.191304
575.5018	0.186364
575.7286	0.180623
575.9554	0.171188
576.1821	0.170893
576.4089	0.174017
576.6357	0.179399
576.8626	0.192422
577.0894	0.199515
577.3162	0.197298
577.5431	0.208042
577.7699	0.231281
577.9968	0.265117
578.2237	0.256231
578.4505	0.240168
578.6774	0.225266
578.9044	0.209330
579.1313	0.202638
579.3582	0.203905
579.5851	0.209963
579.8121	0.213087
580.0391	0.219567
580.2660	0.220622
580.4930	0.213973
580.7200	0.209308
580.9470	0.213446
581.1741	0.247661
581.4011	0.303026
581.6281	0.328292
581.8552	0.335891
582.0822	0.327195
582.3093	0.316430
582.5364	0.291354
582.7635	0.268515
582.9906	0.249497
583.2177	0.232675
583.4449	0.213530
583.6720	0.200591
583.8991	0.194406
584.1263	0.197995
584.3535	0.196053
584.5807	0.203061
584.8079	0.210469
585.0351	0.233097
585.2623	0.242046
585.4895	0.246183
585.7167	0.237846
585.9440	0.230923
586.1713	0.218617
586.3985	0.204475
586.6258	0.199240
586.8531	0.205024
587.0804	0.214184
587.3077	0.226849
587.5350	0.233477
587.7624	0.229255
587.9897	0.219693
588.2171	0.210659
588.4445	0.206839
588.6718	0.198037
588.8992	0.189615
589.1266	0.174692
589.3540	0.172687
589.5815	0.162618
589.8089	0.162935
590.0363	0.163252
590.2638	0.153964
590.4913	0.148920
590.7187	0.143896
590.9462	0.136002
591.1737	0.130471
591.4012	0.132435
591.6288	0.130197
591.8563	0.133068
592.0838	0.130640
592.3114	0.133342
592.5389	0.157278
592.7665	0.178808
592.9941	0.197404
593.2217	0.205509
593.4493	0.201055
593.6769	0.197615
593.9046	0.191430
594.1322	0.181510
594.3598	0.173236
594.5875	0.166819
594.8152	0.180855
595.0429	0.191515
595.2705	0.197910
595.4983	0.188032
595.7260	0.182797
595.9537	0.173236
596.1814	0.160824
596.4092	0.149701
596.6369	0.141300
596.8647	0.140455
597.0925	0.141426
597.3203	0.146450
597.5481	0.146555
597.7759	0.145753
598.0037	0.142186
598.2315	0.139970
598.4594	0.137648
598.6872	0.153627
598.9151	0.175473
599.1430	0.184444
599.3709	0.183663
599.5988	0.175220
599.8267	0.174945
600.0546	0.177352
600.2825	0.181404
600.5105	0.179758
600.7384	0.177626
600.9664	0.179589
601.1944	0.186027
601.4223	0.179357
601.6503	0.172391
601.8783	0.168022
602.1064	0.164307
602.3344	0.164877
602.5624	0.164286
602.7905	0.169415
603.0185	0.170112
603.2466	0.177309
603.4747	0.185246
603.7028	0.185415
603.9309	0.176697
604.1590	0.169837
604.3871	0.164708
604.6152	0.157743
604.8434	0.151051
605.0715	0.153964
605.2997	0.156181
605.5279	0.157278
605.7561	0.166692
605.9843	0.175431
606.2125	0.170006
606.4407	0.158629
606.6689	0.156877
606.8972	0.155442
607.1254	0.152740
607.3537	0.158735
607.5819	0.154028
607.8102	0.153373
608.0385	0.148371
608.2668	0.146577
608.4951	0.143516
608.7235	0.143136
608.9518	0.138492
609.1801	0.132857
609.4085	0.128530
609.6369	0.127643
609.8653	0.138978
610.0936	0.146323
610.3220	0.148244
610.5505	0.142228
610.7789	0.137395
611.0073	0.135938
611.2357	0.136065
611.4642	0.133004
611.6927	0.135432
611.9211	0.129226
612.1496	0.129923
612.3781	0.125532
612.6066	0.125300
612.8351	0.128931
613.0637	0.125005
613.2922	0.120129
613.5208	0.122007
613.7493	0.120234
613.9779	0.122050
614.2065	0.123358
614.4351	0.123696
614.6637	0.121100
614.8923	0.122324
615.1209	0.122028
615.3495	0.127031
615.5782	0.127643
615.8068	0.128825
616.0355	0.122324
616.2642	0.118018
616.4929	0.111580
616.7216	0.110039
616.9503	0.105607
617.1790	0.104193
617.4077	0.109659
617.6365	0.109005
617.8652	0.105987
618.0940	0.105797
618.3227	0.106662
618.5515	0.100541
618.7803	0.092077
619.0091	0.089924
619.2379	0.088045
619.4667	0.086694
619.6956	0.086209
619.9244	0.090367
620.1533	0.095475
620.3821	0.093217
620.6110	0.090979
620.8399	0.086061
621.0688	0.077006
621.2977	0.071455
621.5266	0.070315
621.7556	0.074663
621.9845	0.077914
622.2135	0.080214
622.4424	0.080552
622.6714	0.083993
622.9004	0.085639
623.1294	0.085597
623.3584	0.088235
623.5874	0.087243
623.8164	0.083064
624.0454	0.083507
624.2745	0.081143
624.5035	0.085491
624.7326	0.086040
624.9617	0.086610
625.1908	0.083064
625.4199	0.080995
625.6490	0.076499
625.8781	0.076394
626.1072	0.074389
626.3364	0.072932
626.5655	0.068162
626.7947	0.068141
627.0238	0.067423
627.2530	0.067106
627.4822	0.069470
627.7114	0.068732
627.9406	0.065186
628.1698	0.062378
628.3991	0.057291
628.6283	0.055940
628.8576	0.055181
629.0868	0.057418
629.3161	0.061513
629.5454	0.059698
629.7747	0.059803
630.0040	0.061703
630.2333	0.057735
630.4626	0.056342
630.6920	0.054463
630.9213	0.054611
631.1507	0.053175
631.3801	0.051782
631.6094	0.050178
631.8388	0.052014
632.0682	0.051044
632.2976	0.048722
632.5271	0.046949
632.7565	0.043065
632.9859	0.041334
633.2154	0.043930
633.4448	0.044606
633.6743	0.044922
633.9038	0.042263
634.1333	0.044226
634.3628	0.040553
634.5923	0.037978
634.8218	0.038653
635.0514	0.038717
635.2809	0.038337
635.5105	0.041228
635.7400	0.041608
635.9696	0.039603
636.1992	0.045745
636.4288	0.043719
636.6584	0.044015
636.8880	0.042980
637.1177	0.042199
637.3473	0.038252
637.5770	0.039308
637.8066	0.037872
638.0363	0.039160
638.2660	0.039835
638.4957	0.041988
638.7254	0.040532
638.9551	0.041228
639.1848	0.039603
639.4145	0.037366
639.6443	0.035158
639.8740	0.037656
640.1038	0.035062
640.3336	0.036634
640.5633	0.034155
640.7931	0.036775
641.0229	0.035669
641.2528	0.033894
641.4826	0.033134
641.7124	0.032427
641.9423	0.030361
642.1721	0.031097
642.4020	0.030612
642.6319	0.028678
642.8617	0.028744
643.0916	0.027960
643.3216	0.029347
643.5515	0.028227
643.7814	0.028574
644.0113	0.028398
644.2413	0.026581
644.4712	0.026369
644.7012	0.025961
644.9312	0.024848
645.1612	0.025686
645.3912	0.026363
645.6212	0.025056
645.8512	0.027305
646.0812	0.025678
646.3113	0.024836
646.5413	0.024837
646.7714	0.023560
647.0015	0.024440
647.2316	0.023339
647.4616	0.024041
647.6918	0.025020
647.9219	0.027658
648.1520	0.029295
648.3821	0.029790
648.6123	0.031327
648.8424	0.031582
649.0726	0.033928
649.3028	0.032757
649.5329	0.031269
649.7631	0.032331
649.9933	0.031214
650.2236	0.030576
650.4538	0.028595
650.6840	0.026661
650.9143	0.027668
651.1445	0.028138
651.3748	0.028241
651.6051	0.028070
651.8354	0.030563
652.0657	0.030400
652.2960	0.028986
652.5263	0.031019
652.7566	0.027175
652.9870	0.028474
653.2173	0.030118
653.4477	0.029985
653.6780	0.032702
653.9084	0.029596
654.1388	0.032890
654.3692	0.031663
654.5996	0.036155
654.8300	0.038000
655.0605	0.059201
655.2909	0.173209
655.5213	0.498412
655.7518	0.944090
655.9823	1.000000
656.2128	1.000000
656.4433	1.000000
656.6738	1.000000
656.9043	1.000000
657.1348	0.825259
657.3653	0.667584
657.5959	0.577492
657.8264	0.499336
658.0570	0.458093
658.2875	0.424052
658.5181	0.382151
658.7487	0.355213
658.9793	0.342740
659.2099	0.297887
659.4406	0.221183
659.6712	0.139286
659.9018	0.080623
660.1325	0.049237
660.3632	0.036031
660.5938	0.028359
660.8245	0.022908
661.0552	0.023852
661.2859	0.021561
661.5166	0.020053
661.7474	0.020315
661.9781	0.021175
662.2088	0.021717
662.4396	0.022833
662.6704	0.020238
662.9011	0.021981
663.1319	0.019202
663.3627	0.020694
663.5935	0.022028
663.8243	0.018802
664.0552	0.019888
664.2860	0.020660
664.5168	0.020928
664.7477	0.021520
664.9786	0.022102
665.2094	0.024459
665.4403	0.024132
665.6712	0.021768
665.9021	0.021379
666.1330	0.022976
666.3640	0.022083
666.5949	0.020772
666.8259	0.020806
667.0568	0.020152
667.2878	0.019791
667.5188	0.020080
667.7497	0.017549
667.9807	0.021182
668.2117	0.020085
668.4428	0.019509
668.6738	0.020754
668.9048	0.022126
669.1359	0.019593
669.3669	0.019530
669.5980	0.020311
669.8291	0.021556
670.0602	0.020543
670.2913	0.020522
670.5224	0.021324
670.7535	0.020606
670.9846	0.019720
671.2157	0.022738
671.4469	0.026031
671.6781	0.025588
671.9092	0.030654
672.1404	0.030231
672.3716	0.031667
672.6028	0.035804
672.8340	0.032216
673.0652	0.031941
673.2964	0.030991
673.5277	0.030041
673.7589	0.028775
673.9902	0.027762
674.2214	0.028522
674.4527	0.026917
674.6840	0.023772
674.9153	0.025904
675.1466	0.024237
675.3779	0.025419
675.6093	0.024701
675.8406	0.024406
676.0719	0.024933
676.3033	0.023984
676.5347	0.023245
676.7661	0.024237
676.9974	0.022105
677.2288	0.023561
677.4602	0.025377
677.6917	0.026875
677.9231	0.026981
678.1545	0.025546
678.3860	0.027888
678.6174	0.028458
678.8489	0.027403
679.0804	0.029260
679.3119	0.031899
679.5434	0.033440
679.7749	0.033524
680.0064	0.034558
680.2379	0.031582
680.4694	0.034284
680.7010	0.030970
680.9325	0.034347
681.1641	0.030654
681.3957	0.033883
681.6273	0.034791
681.8589	0.034516
682.0905	0.031097
682.3221	0.029725
682.5537	0.030696
682.7854	0.029387
683.0170	0.026896
683.2487	0.029366
683.4803	0.029324
683.7120	0.028121
683.9437	0.031667
684.1754	0.030379
684.4071	0.033271
684.6388	0.035339
684.8705	0.035128
685.1023	0.038717
685.3340	0.040532
685.5658	0.042769
685.7975	0.042938
686.0293	0.042854
686.2611	0.042284
686.4929	0.040447
686.7247	0.039709
686.9565	0.041355
687.1883	0.041862
687.4202	0.044817
687.6520	0.042242
687.8838	0.038484
688.1157	0.038147
688.3476	0.037703
688.5795	0.035403
688.8114	0.034115
689.0433	0.034390
689.2752	0.034558
689.5071	0.036036
689.7390	0.033756
689.9710	0.033081
690.2029	0.032785
690.4349	0.031350
690.6669	0.032849
690.8988	0.033799
691.1308	0.035361
691.3628	0.035825
691.5948	0.035867
691.8269	0.034622
692.0589	0.034263
692.2909	0.034474
692.5230	0.036247
692.7550	0.037281
692.9871	0.036986
693.2192	0.037366
693.4513	0.036648
693.6834	0.034812
693.9155	0.035888
694.1476	0.032617
694.3797	0.031223
694.6119	0.032722
694.8440	0.032680
695.0762	0.032279
695.3083	0.034136
695.5405	0.031392
695.7727	0.030822
696.0049	0.027593
696.2371	0.029155
696.4693	0.029746
696.7016	0.034833
696.9338	0.037450
697.1660	0.037281
697.3983	0.038083
697.6306	0.036331
697.8628	0.036437
698.0951	0.039730
698.3274	0.034284
698.5597	0.036416
698.7920	0.036543
699.0243	0.035762
699.2567	0.033081
699.4890	0.033735
699.7214	0.031245
699.9537	0.030844
700.1861	0.030252
700.4185	0.031392
700.6509	0.029767
700.8833	0.028416
701.1157	0.027276
701.3481	0.027509
701.5806	0.025778
701.8130	0.027002
702.0454	0.027551
702.2779	0.027825
702.5104	0.028184
702.7429	0.029197
702.9753	0.028881
703.2078	0.027551
703.4403	0.025440
703.6729	0.026559
703.9054	0.026158
704.1379	0.025651
704.3705	0.027741
704.6030	0.026242
704.8356	0.024553
705.0682	0.023139
705.3008	0.024553
705.5334	0.022928
705.7660	0.022675
705.9986	0.023435
706.2312	0.025546
706.4638	0.028226
706.6965	0.031456
706.9291	0.033081
707.1618	0.033355
707.3945	0.036289
707.6272	0.035994
707.8599	0.036458
708.0926	0.035677
708.3253	0.037302
708.5580	0.037682
708.7907	0.033165
709.0235	0.034727
709.2562	0.032279
709.4890	0.032680
709.7217	0.030949
709.9545	0.030822
710.1873	0.031814
710.4201	0.031139
710.6529	0.034242
710.8857	0.034326
711.1186	0.031793
711.3514	0.029640
711.5842	0.028859
711.8171	0.028036
712.0500	0.027382
712.2828	0.024976
712.5157	0.026580
712.7486	0.028733
712.9815	0.027445
713.2144	0.029218
713.4474	0.029134
713.6803	0.032975
713.9132	0.031751
714.1462	0.033419
714.3791	0.032300
714.6121	0.034896
714.8451	0.032553
715.0781	0.032427
715.3111	0.033588
715.5441	0.030949
715.7771	0.031012
716.0102	0.029873
716.2432	0.028859
716.4762	0.027255
716.7093	0.027171
716.9424	0.026453
717.1754	0.027361
717.4085	0.027509
717.6416	0.026411
717.8747	0.026115
718.1078	0.029514
718.3410	0.026664
718.5741	0.026031
718.8072	0.027044
719.0404	0.027530
719.2736	0.028859
719.5067	0.029028
719.7399	0.028712
719.9731	0.026115
720.2063	0.026516
720.4395	0.026770
720.6727	0.026728
720.9060	0.026791
721.1392	0.028986
721.3725	0.029640
721.6057	0.027677
721.8390	0.026094
722.0723	0.026369
722.3055	0.028691
722.5388	0.026706
722.7721	0.025144
723.0055	0.026052
723.2388	0.026664
723.4721	0.026200
723.7055	0.024427
723.9388	0.027572
724.1722	0.025187
724.4056	0.026706
724.6389	0.024891
724.8723	0.027741
725.1057	0.029809
725.3391	0.030632
725.5726	0.031392
725.8060	0.031118
726.0394	0.031392
726.2729	0.030717
726.5063	0.032152
726.7398	0.032258
726.9733	0.029282
727.2068	0.030696
727.4403	0.029556
727.6738	0.031962
727.9073	0.029303
728.1408	0.032785
728.3743	0.031709
728.6079	0.032216
728.8414	0.030421
729.0750	0.033777
729.3086	0.034115
729.5421	0.035551
729.7757	0.036458
730.0093	0.035276
730.2429	0.034896
730.4766	0.036310
730.7102	0.039856
730.9438	0.041693
731.1775	0.040110
731.4111	0.040236
731.6448	0.041904
731.8785	0.042685
732.1122	0.038632
732.3458	0.039962
732.5795	0.039308
732.8133	0.041165
733.0470	0.043994
733.2807	0.040616
733.5145	0.041482
733.7482	0.042833
733.9820	0.045302
734.2157	0.045661
734.4495	0.049207
734.6833	0.047793
734.9171	0.046653
735.1509	0.046294
735.3847	0.046780
735.6185	0.044479
735.8524	0.046885
736.0862	0.046337
736.3201	0.046569
736.5539	0.042980
736.7878	0.045703
737.0217	0.048532
737.2556	0.045577
737.4895	0.045872
737.7234	0.041798
737.9573	0.043994
738.1912	0.039878
738.4252	0.038843
738.6591	0.039688
738.8931	0.038273
739.1271	0.039751
739.3610	0.044648
739.5950	0.044331
739.8290	0.042284
740.0630	0.040046
740.2970	0.041946
740.5310	0.036479
740.7651	0.036521
740.9991	0.034854
741.2332	0.034917
741.4672	0.033609
741.7013	0.031413
741.9354	0.033841
742.1695	0.032173
742.4036	0.032785
742.6377	0.031435
742.8718	0.034706
743.1059	0.032152
743.3400	0.030274
743.5742	0.030379
743.8083	0.027487
744.0425	0.030611
744.2767	0.026643
744.5108	0.028247
744.7450	0.028437
744.9792	0.027656
745.2134	0.027783
745.4477	0.028881
745.6819	0.025672
745.9161	0.028437
746.1504	0.027614
746.3846	0.027783
746.6189	0.027297
746.8532	0.028395
747.0874	0.027424
747.3217	0.029725
747.5560	0.031413
747.7903	0.030759
748.0247	0.028226
748.2590	0.028289
748.4933	0.026580
748.7277	0.029535
748.9620	0.027846
749.1964	0.030358
749.4308	0.032321
749.6652	0.032617
749.8995	0.033250
750.1339	0.035825
750.3684	0.035656
750.6028	0.038020
750.8372	0.037514
751.0717	0.038569
751.3061	0.037197
751.5406	0.036120
751.7750	0.037324
752.0095	0.039603
752.2440	0.038738
752.4785	0.036754
752.7130	0.037028
752.9475	0.034495
753.1820	0.032912
753.4166	0.037260
753.6511	0.037429
753.8856	0.041186
754.1202	0.040236
754.3548	0.038780
754.5894	0.038083
754.8239	0.038442
755.0585	0.038696
755.2931	0.038611
755.5278	0.040870
755.7624	0.044162
755.9970	0.041334
756.2317	0.041988
756.4663	0.044901
756.7010	0.048110
756.9356	0.050431
757.1703	0.051086
757.4050	0.054062
757.6397	0.058051
757.8744	0.057798
758.1091	0.056025
758.3438	0.053281
758.5786	0.051233
758.8133	0.051740
759.0481	0.051677
759.2828	0.053809
759.5176	0.056743
759.7524	0.057629
759.9872	0.057460
760.2220	0.060078
760.4568	0.059951
760.6916	0.060901
760.9264	0.058769
761.1613	0.055962
761.3961	0.054927
761.6310	0.053492
761.8658	0.048975
762.1007	0.047265
762.3356	0.044331
762.5705	0.046442
762.8054	0.047244
763.0403	0.046674
763.2752	0.047497
763.5101	0.047329
763.7450	0.049376
763.9800	0.048827
764.2149	0.048173
764.4499	0.053513
764.6849	0.053112
764.9198	0.056848
765.1548	0.054568
765.3898	0.055666
765.6248	0.052521
765.8599	0.052057
766.0949	0.050030
766.3299	0.045028
766.5650	0.043339
766.8000	0.037155
767.0351	0.038062
767.2701	0.038400
767.5052	0.036564
767.7403	0.036564
767.9754	0.038358
768.2105	0.041228
768.4456	0.042347
768.6808	0.044373
768.9159	0.046949
769.1510	0.044753
769.3862	0.046653
769.6214	0.042516
769.8565	0.042453
770.0917	0.041418
770.3269	0.041819
770.5621	0.042790
770.7973	0.043719
771.0325	0.045619
771.2677	0.046864
771.5030	0.044563
771.7382	0.044268
771.9735	0.039835
772.2087	0.036944
772.4440	0.037809
772.6793	0.040447
772.9146	0.036374
773.1499	0.037851
773.3852	0.038400
773.6205	0.032996
773.8558	0.034537
774.0911	0.034727
774.3265	0.033186
774.5618	0.031223
774.7972	0.028078
775.0326	0.029640
775.2679	0.026960
775.5033	0.028585
775.7387	0.027424
775.9741	0.024722
776.2095	0.025503
776.4450	0.023498
776.6804	0.024174
776.9158	0.025187
777.1513	0.021514
777.3868	0.024406
777.6222	0.023667
777.8577	0.022105
778.0932	0.024448
778.3287	0.025060
778.5642	0.025630
778.7997	0.027846
779.0352	0.029070
779.2707	0.030464
779.5063	0.031287
779.7418	0.030210
779.9774	0.028817
780.2130	0.026622
780.4485	0.026390
780.6841	0.026601
780.9197	0.029640
781.1553	0.030654
781.3909	0.035192
781.6265	0.033461
781.8622	0.034453
782.0978	0.032701
782.3335	0.033018
782.5691	0.031751
782.8048	0.033777
783.0405	0.032321
783.2761	0.032701
783.5118	0.034094
783.7475	0.032384
783.9832	0.032595
784.2190	0.031202
784.4547	0.029788
784.6904	0.026643
784.9262	0.027361
785.1619	0.026664
785.3977	0.029070
785.6335	0.029218
785.8692	0.026791
786.1050	0.026749
786.3408	0.026875
786.5766	0.026538
786.8124	0.026538
787.0483	0.026601
787.2841	0.026010
787.5199	0.028142
787.7558	0.028691
787.9917	0.029873
788.2275	0.026896
788.4634	0.028691
788.6993	0.030084
788.9352	0.029028
789.1711	0.030041
789.4070	0.028859
789.6429	0.027382
789.8789	0.026432
790.1148	0.026158
790.3507	0.024870
790.5867	0.024617
790.8227	0.024849
791.0586	0.023203
791.2946	0.023688
791.5306	0.021683
791.7666	0.023815
792.0026	0.022358
792.2387	0.020712
792.4747	0.020480
792.7107	0.021725
792.9468	0.019762
793.1828	0.020036
793.4189	0.021514
793.6550	0.021978
793.8910	0.025419
794.1271	0.028353
794.3632	0.029788
794.5993	0.028817
794.8355	0.029155
795.0716	0.031540
795.3077	0.030865
795.5439	0.031392
795.7800	0.027804
796.0162	0.024933
796.2523	0.021957
796.4885	0.022379
796.7247	0.020079
796.9609	0.020986
797.1971	0.020522
797.4333	0.022865
797.6695	0.023751
797.9058	0.023772
798.1420	0.022527
798.3783	0.021831
798.6145	0.020522
798.8508	0.022147
799.0871	0.021852
799.3233	0.022084
799.5596	0.018918
799.7959	0.020015
800.0322	0.018918
800.2686	0.018770
800.5049	0.018284
800.7412	0.019825
800.9776	0.016427
801.2139	0.018348
801.4503	0.017841
801.6867	0.017672
801.9230	0.017145
802.1594	0.017546
802.3958	0.015161
802.6322	0.016216
802.8686	0.014506
803.1051	0.018897
803.3415	0.018137
803.5779	0.018284
803.8144	0.015963
804.0508	0.017482
804.2873	0.015287
804.5238	0.015667
804.7603	0.015963
804.9968	0.017905
805.2333	0.016427
805.4698	0.015667
805.7063	0.015942
805.9428	0.018770
806.1794	0.019572
806.4159	0.021514
806.6525	0.022717
806.8890	0.023181
807.1256	0.022443
807.3622	0.023181
807.5988	0.023139
807.8354	0.022210
808.0720	0.021535
808.3086	0.024828
808.5452	0.022168
808.7818	0.020606
809.0185	0.021598
809.2551	0.020480
809.4918	0.020670
809.7284	0.019023
809.9651	0.018812
810.2018	0.019403
810.4385	0.018854
810.6752	0.019150
810.9119	0.016596
811.1486	0.018284
811.3853	0.018770
811.6221	0.015920
811.8588	0.017102
812.0956	0.016343
812.3323	0.013345
812.5691	0.014886
812.8059	0.013979
813.0427	0.012733
813.2795	0.013915
813.5163	0.016153
813.7531	0.017588
813.9899	0.016321
814.2267	0.018390
814.4636	0.017841
814.7004	0.016955
814.9373	0.015984
815.1742	0.014000
815.4110	0.014928
815.6479	0.013366
815.8848	0.011678
816.1217	0.015604
816.3586	0.013409
816.5955	0.013620
816.8324	0.012649
817.0694	0.014063
817.3063	0.012775
817.5433	0.013071
817.7802	0.013535
818.0172	0.012163
818.2542	0.014443
818.4912	0.012058
818.7282	0.011467
818.9652	0.011952
819.2022	0.011488
819.4392	0.012311
819.6762	0.011636
819.9133	0.011636
820.1503	0.010285
820.3874	0.013641
820.6244	0.014190
820.8615	0.014949
821.0986	0.014147
821.3357	0.014042
821.5727	0.014232
821.8099	0.012902
822.0470	0.012839
822.2841	0.012417
822.5212	0.012374
822.7584	0.011340
822.9955	0.009863
823.2327	0.010812
823.4698	0.010496
823.7070	0.010031
823.9442	0.010369
824.1814	0.010559
824.4186	0.010855
824.6558	0.010327
824.8930	0.010622
825.1302	0.010665
825.3675	0.011129
825.6047	0.013324
825.8419	0.011931
826.0792	0.012016
826.3165	0.011171
826.5537	0.011636
826.7910	0.011192
827.0283	0.011826
827.2656	0.013704
827.5029	0.013556
827.7402	0.012986
827.9776	0.013936
828.2149	0.012016
828.4522	0.010221
828.6896	0.011446
828.9270	0.010285
829.1643	0.013113
829.4017	0.010960
829.6391	0.010707
829.8765	0.010179
830.1139	0.011002
830.3513	0.010242
830.5887	0.008596
830.8261	0.009398
831.0636	0.008681
831.3010	0.007203
831.5385	0.007900
831.7759	0.006591
832.0134	0.006633
832.2509	0.006886
832.4884	0.006401
832.7259	0.009504
832.9634	0.009567
833.2009	0.008596
833.4384	0.009187
833.6759	0.006760
833.9135	0.009461
834.1510	0.009567
834.3886	0.009863
834.6261	0.010411
834.8637	0.007836
835.1013	0.010812
835.3389	0.009651
835.5765	0.008765
835.8141	0.008047
836.0517	0.008174
836.2893	0.007351
836.5269	0.006886
836.7646	0.007921
837.0022	0.009293
837.2399	0.006485
837.4775	0.007161
837.7152	0.006295
837.9529	0.007330
838.1906	0.004565
838.4283	0.005768
838.6660	0.006950
838.9037	0.004628
839.1414	0.006063
839.3791	0.007435
839.6169	0.005937
839.8546	0.007414
840.0924	0.006464
840.3302	0.006865
840.5679	0.006126
840.8057	0.006950
841.0435	0.005430
841.2813	0.008216
841.5191	0.005282
841.7569	0.005535
841.9947	0.005472
842.2326	0.005134
842.4704	0.006021
842.7082	0.003889
842.9461	0.005409
843.1840	0.003741
843.4218	0.004016
843.6597	0.004438
843.8976	0.005768
844.1355	0.005177
844.3734	0.004776
844.6113	0.004607
844.8492	0.005409
845.0872	0.004691
845.3251	0.004227
845.5631	0.005915
845.8010	0.005894
846.0390	0.005303
846.2770	0.005029
846.5149	0.005725
846.7529	0.004206
846.9909	0.004649
847.2289	0.003931
847.4669	0.004396
847.7050	0.004628
847.9430	0.004754
848.1810	0.003551
848.4191	0.003868
848.6571	0.004206
848.8952	0.003931
849.1333	0.003910
849.3713	0.005937
849.6094	0.003868
849.8475	0.003952
850.0856	0.003530
850.3237	0.004353
850.5619	0.004459
850.8000	0.005219
851.0381	0.004016
851.2763	0.004311
851.5144	0.003003
851.7526	0.004565
851.9908	0.005346
852.2289	0.005219
852.4671	0.006401
852.7053	0.007878
852.9435	0.008638
853.1817	0.011256
853.4200	0.011847
853.6582	0.013029
853.8964	0.013282
854.1347	0.012733
854.3729	0.012986
854.6112	0.013620
854.8495	0.013725
855.0877	0.014886
855.3260	0.011720
855.5643	0.011488
855.8026	0.012100
856.0409	0.011804
856.2792	0.011171
856.5176	0.010960
856.7559	0.009926
856.9942	0.010812
857.2326	0.009504
857.4710	0.011614
857.7093	0.009609
857.9477	0.009905
858.1861	0.009820
858.4245	0.010960
858.6629	0.008533
858.9013	0.008870
859.1397	0.008174
859.3781	0.009018
859.6166	0.008554
859.8550	0.007984
860.0935	0.008638
860.3319	0.007520
860.5704	0.005937
860.8089	0.006992
861.0473	0.006591
861.2858	0.006675
861.5243	0.005493
861.7628	0.006359
862.0013	0.006274
862.2399	0.004586
862.4784	0.005430
862.7169	0.005852
862.9555	0.005620
863.1940	0.007372
863.4326	0.004839
863.6712	0.008279
863.9098	0.007013
864.1483	0.005641
864.3869	0.005789
864.6255	0.005029
864.8642	0.006190
865.1028	0.004944
865.3414	0.005831
865.5800	0.003931
865.8187	0.005177
866.0573	0.004712
866.2960	0.003509
866.5347	0.004142
866.7733	0.003277
867.0120	0.004881
867.2507	0.006739
867.4894	0.005514
867.7281	0.005831
867.9669	0.005683
868.2056	0.006042
868.4443	0.005725
868.6831	0.004100
868.9218	0.005409
869.1606	0.004121
869.3993	0.004417
869.6381	0.004332
869.8769	0.005430
870.1157	0.003045
870.3545	0.005725
870.5933	0.004396
870.8321	0.004501
871.0709	0.005177
871.3097	0.006190
871.5486	0.004543
871.7874	0.005789
872.0263	0.005725
872.2651	0.003952
872.5040	0.004121
872.7429	0.004459
872.9818	0.005050
873.2207	0.004860
873.4596	0.003910
873.6985	0.003214
873.9374	0.003910
874.1763	0.003488
874.4153	0.005388
874.6542	0.005198
874.8932	0.004459
875.1321	0.005472
875.3711	0.004332
875.6101	0.005852
875.8491	0.005578
876.0880	0.006190
876.3270	0.004902
876.5661	0.005071
876.8051	0.005134
877.0441	0.003298
877.2831	0.005599
877.5222	0.004396
877.7612	0.005472
878.0003	0.006485
878.2393	0.006718
878.4784	0.006063
878.7175	0.005493
878.9566	0.006654
879.1957	0.006401
879.4348	0.007034
879.6739	0.005810
879.9130	0.006760
880.1521	0.007583
880.3913	0.008174
880.6304	0.008111
880.8696	0.005641
881.1087	0.007815
881.3479	0.007140
881.5871	0.006464
881.8262	0.005346
882.0654	0.005894
882.3046	0.004332
882.5438	0.006338
882.7831	0.003720
883.0223	0.005324
883.2615	0.006316
883.5007	0.006084
883.7400	0.005641
883.9792	0.004375
884.2185	0.006422
884.4578	0.004860
884.6971	0.005092
884.9363	0.007140
885.1756	0.005535
885.4149	0.005177
885.6542	0.004860
885.8936	0.006570
886.1329	0.004818
886.3722	0.005810
886.6116	0.005810
886.8509	0.005937
887.0903	0.005219
887.3296	0.004543
887.5690	0.003995
887.8084	0.004459
888.0478	0.006338
888.2872	0.004628
888.5266	0.004332
888.7660	0.005303
889.0054	0.004290
889.2448	0.003995
889.4843	0.004269
889.7237	0.004311
889.9632	0.003762
890.2026	0.004586
890.4421	0.003193
890.6816	0.005451
890.9211	0.002243
891.1606	0.004628
891.4001	0.004754
891.6396	0.004269
891.8791	0.003277
892.1186	0.005177
892.3581	0.004417
892.5977	0.004079
892.8372	0.004480
893.0768	0.004480
893.3163	0.003952
893.5559	0.003805
893.7955	0.004142
894.0351	0.004269
894.2747	0.004691
894.5143	0.006359
894.7539	0.003298
894.9935	0.003762
895.2331	0.003615
895.4727	0.004206
895.7124	0.003108
895.9520	0.005177
896.1917	0.005050
896.4314	0.003720
896.6710	0.002939
896.9107	0.004607
897.1504	0.003678
897.3901	0.004438
897.6298	0.005008
897.8695	0.004712
898.1092	0.002834
898.3489	0.003699
898.5887	0.004396
898.8284	0.004923
899.0682	0.004818
899.3079	0.004353
899.5477	0.003974
899.7875	0.005852
900.0272	0.003193
900.2670	0.003404
900.5068	0.003488
900.7466	0.005071
900.9864	0.003615
901.2263	0.005219
901.4661	0.002580
901.7059	0.003699
901.9458	0.002264
902.1856	0.004375
902.4255	0.003762
902.6654	0.004417
902.9052	0.004987
903.1451	0.003741
903.3850	0.003045
903.6249	0.003446
903.8648	0.002559
904.1047	0.004163
904.3446	0.003108
904.5846	0.004142
904.8245	0.004733
905.0644	0.005303
905.3044	0.005050
905.5444	0.004586
905.7843	0.003805
906.0243	0.005282
906.2643	0.004522
906.5043	0.005725
906.7443	0.003974
906.9843	0.003446
907.2243	0.003847
907.4643	0.003657
907.7043	0.004058
907.9444	0.004058
908.1844	0.003425
908.4245	0.003868
908.6645	0.003530
908.9046	0.003572
909.1447	0.003003
909.3847	0.004586
909.6248	0.003678
909.8649	0.003657
910.1050	0.001863
910.3452	0.003003
910.5853	0.002348
910.8254	0.003699
911.0655	0.002813
911.3057	0.003762
911.5458	0.003319
911.7860	0.003382
912.0262	0.002939
912.2663	0.004670
912.5065	0.003235
912.7467	0.003615
912.9869	0.003805
913.2271	0.003868
913.4673	0.001483
913.7075	0.003129
913.9478	0.002053
914.1880	0.003425
914.4283	0.003699
914.6685	0.003024
914.9088	0.003045
915.1490	0.003805
915.3893	0.002855
915.6296	0.002791
915.8699	0.003108
916.1102	0.003995
916.3505	0.003256
916.5908	0.003193
916.8311	0.004565
917.0714	0.002538
917.3118	0.004269
917.5521	0.005050
917.7925	0.003193
918.0328	0.004944
918.2732	0.002517
918.5136	0.003425
918.7539	0.002158
918.9943	0.003657
919.2347	0.002369
919.4751	0.003826
919.7155	0.002918
919.9560	0.003678
920.1964	0.002348
920.4368	0.004417
920.6773	0.003045
920.9177	0.002390
921.1582	0.003594
921.3986	0.002264
921.6391	0.001715
921.8796	0.002348
922.1201	0.002813
922.3606	0.003066
922.6011	0.002813
922.8416	0.003657
923.0821	0.003298
923.3226	0.002158
923.5631	0.002454
923.8037	0.002770
924.0442	0.003594
924.2848	0.002686
924.5254	0.001483
924.7659	0.002897
925.0065	0.002496
925.2471	0.003214
925.4877	0.002749
925.7283	0.003361
925.9689	0.001905
926.2095	0.002348
926.4501	0.001419
926.6908	0.001905
926.9314	0.001757
927.1720	0.003615
927.4127	0.000427
927.6533	0.001821
927.8940	0.004163
928.1347	0.001905
928.3754	0.001441
928.6161	0.002243
928.8568	0.002179
929.0975	0.002433
929.3382	0.001884
929.5789	0.001251
929.8196	0.002200
930.0604	0.002011
930.3011	0.001293
930.5419	0.002032
930.7826	0.002644
931.0234	0.001799
931.2642	0.002602
931.5049	0.001968
931.7457	0.001483
931.9865	0.001715
932.2273	0.000850
932.4681	0.001863
932.7089	0.001736
932.9498	0.002116
933.1906	0.001082
933.4314	0.002855
933.6723	0.003066
933.9131	0.002412
934.1540	0.002960
934.3949	0.002243
934.6358	0.001546
934.8766	0.001968
935.1175	0.001588
935.3584	0.001757
935.5993	0.001082
935.8403	0.002369
936.0812	0.001694
936.3221	0.000744
936.5630	0.001398
936.8040	0.000892
937.0449	0.000512
937.2859	0.001124
937.5269	0.002179
937.7678	0.001863
938.0088	0.000470
938.2498	0.000216
938.4908	0.001842
938.7318	0.002369
938.9728	0.001757
939.2138	0.001166
939.4549	0.000449
939.6959	0.000449
939.9369	0.002032
940.1780	-0.001008
940.4190	-0.000544
940.6601	0.001652
940.9012	0.001145
941.1422	0.000681
941.3833	0.001842
941.6244	0.001715
941.8655	0.001335
942.1066	0.001272
942.3477	0.002264
942.5889	0.000216
942.8300	0.001525
943.0711	-0.000100
943.3123	0.000807
943.5534	0.000090
943.7946	0.000913
944.0357	0.001208
944.2769	0.001377
944.5181	0.000533
944.7593	0.000850
945.0005	0.000997
945.2417	0.001040
945.4829	0.001567
945.7241	0.000744
945.9653	0.000427
946.2066	-0.000459
946.4478	0.001778
946.6891	0.000385
946.9303	-0.000079
947.1716	0.001694
947.4128	0.000765
947.6541	-0.000860
947.8954	0.000681
948.1367	0.002855
948.3780	0.001061
948.6193	0.001103
948.8606	0.000491
949.1019	0.000660
949.3433	0.000322
949.5846	0.002032
949.8259	-0.000332
950.0673	0.000153
950.3086	0.000111
950.5500	0.000617
950.7914	-0.000565
951.0327	0.000090
951.2741	0.000850
951.5155	0.000364
951.7569	0.001504
951.9983	0.001103
952.2398	0.001673
952.4812	0.002602
952.7226	0.002116
952.9640	0.000765
953.2055	0.000744
953.4469	0.001842
953.6884	0.001588
953.9299	0.001166
954.1713	0.000090
954.4128	0.002095
954.6543	0.000069
954.8958	0.000047
955.1373	0.001947
955.3788	0.002095
955.6203	0.000174
955.8618	0.001715
956.1034	0.000069
956.3449	0.001483
956.5865	0.001061
956.8280	0.000090
957.0696	-0.000269
957.3111	0.000069
957.5527	0.000322
957.7943	0.002454
958.0359	0.000660
958.2775	0.000280
958.5191	0.000005
958.7607	0.001673
959.0023	0.000575
959.2439	0.000259
959.4856	0.001124
959.7272	-0.000480
959.9688	0.000660
960.2105	-0.000079
960.4522	0.000069
960.6938	0.000047
960.9355	-0.000269
961.1772	0.001061
961.4189	-0.000079
961.6606	0.001525
961.9023	-0.001367
962.1440	0.000005
962.3857	-0.001071
962.6274	0.002559
962.8692	0.000237
963.1109	-0.000206
963.3527	-0.000818
963.5944	0.001504
963.8362	0.000681
964.0779	-0.000755
964.3197	0.001061
964.5615	-0.000121
964.8033	0.001166
965.0451	0.002222
965.2869	0.001462
965.5287	-0.001240
965.7705	-0.000839
966.0123	0.001272
966.2542	0.000660
966.4960	0.001230
966.7379	0.001272
966.9797	0.000385
967.2216	-0.000058
967.4634	0.001251
967.7053	0.000132
967.9472	0.001124
968.1891	0.000533
968.4310	0.001968
968.6729	-0.000269
968.9148	0.000406
969.1567	0.000047
969.3987	0.002897
969.6406	-0.000565
969.8825	0.001884
970.1245	-0.000332
970.3664	0.002412
970.6084	-0.000628
970.8504	0.000744
971.0923	0.001272
971.3343	0.000195
971.5763	0.002095
971.8183	0.000892
972.0603	-0.000797
972.3023	0.000997
972.5443	0.000259
972.7864	0.001061
973.0284	0.000259
973.2704	0.000871
973.5125	-0.000881
973.7545	-0.000206
973.9966	-0.000691
974.2387	0.001609
974.4807	0.000343
974.7228	0.002834
974.9649	0.001082
975.2070	0.000596
975.4491	0.000871
975.6912	0.001272
975.9333	0.000216
976.1755	0.001398
976.4176	0.000807
976.6597	0.000955
976.9019	-0.000839
977.1440	-0.000839
977.3862	0.000617
977.6283	-0.000058
977.8705	-0.000100
978.1127	0.000554
978.3549	-0.001536
978.5971	0.002011
978.8393	-0.000248
979.0815	0.000069
979.3237	-0.000438
979.5659	0.001546
979.8082	-0.000079
980.0504	0.000723
980.2926	-0.000100
980.5349	0.001166
980.7771	0.000512
981.0194	-0.000354
981.2617	0.000301
981.5040	0.001335
981.7462	0.000723
981.9885	-0.000902
982.2308	0.001145
982.4731	0.000237
982.7155	-0.000164
982.9578	0.002053
983.2001	-0.000100
983.4424	0.001462
983.6848	-0.001198
983.9271	0.000385
984.1695	-0.000248
984.4118	0.001462
984.6542	0.000301
984.8966	0.000871
985.1390	0.001103
985.3814	0.001715
985.6238	0.000554
985.8662	0.000617
986.1086	-0.000480
986.3510	0.000132
986.5934	0.000617
986.8358	-0.000565
987.0783	-0.000185
987.3207	0.001040
987.5632	0.000828
987.8056	0.000871
988.0481	-0.000733
988.2906	0.001040
988.5331	0.000491
988.7756	-0.000438
989.0180	-0.000480
989.2605	0.000786
989.5031	-0.000565
989.7456	0.001103
989.9881	-0.000776
990.2306	0.000955
990.4732	-0.000733
990.7157	0.001314
990.9582	-0.000438
991.2008	0.000301
991.4434	-0.000860
991.6859	-0.000607
991.9285	-0.001367
992.1711	0.000322
992.4137	-0.000628
992.6563	0.000934
992.8989	-0.000945
993.1415	-0.000459
993.3841	-0.000733
993.6267	-0.000438
993.8694	0.000913
994.1120	0.000639
994.3547	0.001061
994.5973	-0.000206
994.8400	-0.001958
995.0826	0.000047
995.3253	-0.000121
995.5680	0.000406
995.8107	-0.000438
996.0534	0.000026
996.2961	0.000153
996.5388	0.000174
996.7815	-0.000480
997.0242	0.000301
997.2670	0.000322
997.5097	-0.001135
997.7524	-0.000691
997.9952	-0.000459
998.2379	0.000807
998.4807	0.000195
998.7235	-0.001958
998.9662	-0.000396
999.2090	-0.001071
999.4518	0.001187
999.6946	-0.000776
999.9374	0.001166
1000.1802	0.000216
1000.4230	-0.001493
1000.6659	0.000427
1000.9087	-0.000417
1001.1515	0.000406
1001.3944	0.000744
1001.6372	-0.001514
1001.8801	-0.000607
1002.1230	0.000512
1002.3658	0.000005
1002.6087	0.000153
1002.8516	-0.000860
1003.0945	-0.000037
1003.3374	0.000005
1003.5803	-0.001029
1003.8232	-0.001198
1004.0661	0.000026
1004.3091	-0.000142
1004.5520	0.000470
1004.7949	0.000026
1005.0379	-0.000755
1005.2808	0.000596
1005.5238	0.000807
1005.7667	-0.000058
1006.0097	0.001778
1006.2527	0.000195
1006.4957	-0.001177
1006.7387	0.000111
1006.9817	0.000512
1007.2247	-0.001536
1007.4677	-0.001261
1007.7107	0.000005
1007.9538	0.000195
1008.1968	0.001441
1008.4398	0.000554
1008.6829	-0.000332
1008.9259	0.000702
1009.1690	0.000850
1009.4121	0.000744
1009.6551	0.001398
1009.8982	-0.000375
1010.1413	0.000280
1010.3844	0.000871
1010.6275	-0.000332
1010.8706	-0.000501
1011.1137	-0.000396
1011.3568	0.000554
1011.6000	-0.000881
1011.8431	-0.000037
1012.0863	-0.001451
1012.3294	0.000174
1012.5726	0.000427
1012.8157	0.001040
1013.0589	-0.000185
1013.3021	-0.000839
1013.5452	0.000850
1013.7884	-0.000290
1014.0316	-0.000733
1014.2748	0.000153
1014.5180	0.000660
1014.7613	-0.000417
1015.0045	-0.001198
1015.2477	0.000047
1015.4909	0.000554
1015.7342	0.001546
1015.9774	-0.000058
1016.2207	0.000871
1016.4640	-0.000607
1016.7072	0.000385
1016.9505	-0.001346
1017.1938	0.000660
1017.4371	0.000364
1017.6804	-0.001346
1017.9237	-0.000607
1018.1670	0.000639
1018.4103	-0.000100
1018.6536	0.000934
1018.8969	-0.000164
1019.1403	0.000111
1019.3836	0.000533
1019.6270	0.000364
1019.8703	-0.000459
1020.1137	0.000385
1020.3571	0.001103
1020.6004	-0.000332
1020.8438	-0.001472
1021.0872	0.000132
1021.3306	-0.000058
1021.5740	0.000237
1021.8174	-0.000987
1022.0608	-0.000607
1022.3042	0.000301
1022.5477	0.000026
1022.7911	-0.000776
1023.0345	0.000280
