# Wavelength (nm)	Intensity (a.u.)
197.7802	0.001004
197.9842	-0.001022
198.1882	-0.000642
198.3922	0.001131
198.5963	0.000244
198.8003	0.000329
199.0044	-0.000980
199.2085	0.000160
199.4126	0.001067
199.6168	-0.000431
199.8209	0.000455
200.0251	-0.000557
200.2292	-0.000093
200.4334	0.000688
200.6376	0.000350
200.8418	0.000878
201.0461	0.001236
201.2503	-0.000199
201.4546	0.000814
201.6589	-0.000621
201.8631	0.002650
202.0674	-0.000980
202.2718	0.000076
202.4761	-0.001022
202.6805	-0.000262
202.8848	-0.001570
203.0892	-0.000157
203.2936	0.000244
203.4980	0.000139
203.7024	0.001194
203.9069	-0.000621
204.1113	-0.000114
204.3158	0.000202
204.5203	0.000266
204.7248	0.001046
204.9293	0.000329
205.1338	-0.000410
205.3384	0.000244
205.5430	-0.000515
205.7475	-0.000389
205.9521	-0.000072
206.1567	-0.001127
206.3614	0.000308
206.5660	0.002334
206.7706	0.000202
206.9753	-0.000790
207.1800	-0.000557
207.3847	-0.000663
207.5894	0.000624
207.7941	0.000477
207.9989	0.001342
208.2036	-0.000431
208.4084	0.000688
208.6132	0.000308
208.8180	0.000202
209.0228	-0.000937
209.2276	0.000772
209.4325	-0.000410
209.6373	-0.000199
209.8422	0.000561
210.0471	0.000667
210.2520	-0.000241
210.4569	0.000540
210.6618	0.000055
210.8668	0.000878
211.0718	-0.001127
211.2767	0.001764
211.4817	0.000371
211.6867	-0.000473
211.8918	-0.000494
212.0968	0.000983
212.3018	-0.000579
212.5069	0.001278
212.7120	0.000097
212.9171	-0.000473
213.1222	0.000793
213.3273	0.000223
213.5325	0.000709
213.7376	-0.000072
213.9428	0.001363
214.1480	0.000455
214.3532	0.000392
214.5584	0.000371
214.7636	0.000793
214.9689	0.000118
215.1741	-0.000958
215.3794	0.000413
215.5847	0.000181
215.7900	0.001046
215.9953	-0.000114
216.2007	0.001110
216.4060	0.000878
216.6114	0.002080
216.8168	0.001046
217.0222	0.001426
217.2276	-0.000072
217.4330	-0.000199
217.6384	0.000920
217.8439	0.000223
218.0494	0.000118
218.2548	0.000793
218.4603	-0.001676
218.6659	0.000983
218.8714	0.001785
219.0769	0.001363
219.2825	0.000033
219.4881	-0.000178
219.6936	0.001257
219.8992	0.000434
220.1049	-0.000346
220.3105	0.000371
220.5161	0.000223
220.7218	0.001848
220.9275	-0.000283
221.1332	0.001067
221.3389	-0.000304
221.5446	0.000097
221.7503	0.000582
221.9561	0.000033
222.1618	0.000181
222.3676	-0.000283
222.5734	0.000688
222.7792	0.000835
222.9850	0.000392
223.1909	0.000582
223.3967	0.000434
223.6026	0.000244
223.8085	0.000329
224.0144	0.000561
224.2203	0.000814
224.4262	0.000455
224.6322	-0.000368
224.8381	0.001152
225.0441	0.000139
225.2501	0.000012
225.4561	-0.001866
225.6621	0.000223
225.8681	0.000413
226.0742	0.000709
226.2802	-0.000747
226.4863	0.000983
226.6924	0.000223
226.8985	-0.000600
227.1046	-0.000051
227.3107	0.000709
227.5169	-0.000241
227.7230	-0.001127
227.9292	0.000076
228.1354	0.001468
228.3416	0.000139
228.5478	0.000540
228.7541	-0.000790
228.9603	0.001089
229.1666	-0.000536
229.3729	-0.000621
229.5791	0.000688
229.7855	0.000139
229.9918	-0.000114
230.1981	0.000603
230.4045	0.000181
230.6108	0.000856
230.8172	0.001215
231.0236	0.000667
231.2300	-0.000283
231.4364	-0.000431
231.6429	-0.000874
231.8493	-0.000030
232.0558	-0.000473
232.2623	-0.000811
232.4688	-0.000600
232.6753	-0.000811
232.8818	-0.000009
233.0884	0.000498
233.2949	0.000983
233.5015	0.001743
233.7081	0.000033
233.9147	-0.000663
234.1213	0.000688
234.3279	0.000688
234.5346	0.002334
234.7413	0.000392
234.9479	0.000244
235.1546	-0.000220
235.3613	0.000878
235.5680	0.000371
235.7748	0.000793
235.9815	-0.000051
236.1883	-0.000579
236.3951	0.000624
236.6018	-0.001317
236.8087	0.000434
237.0155	0.001194
237.2223	-0.000832
237.4292	-0.000473
237.6360	0.000139
237.8429	-0.000473
238.0498	0.000498
238.2567	-0.000368
238.4636	-0.000389
238.6706	-0.000135
238.8775	0.000878
239.0845	-0.001064
239.2915	0.000498
239.4985	-0.000346
239.7055	0.000730
239.9125	0.001616
240.1195	-0.000051
240.3266	-0.000220
240.5337	0.002249
240.7407	-0.000346
240.9478	0.000582
241.1549	0.000645
241.3621	-0.000135
241.5692	-0.000030
241.7764	0.001321
241.9835	-0.000410
242.1907	0.001004
242.3979	-0.000304
242.6051	0.002355
242.8124	0.001426
243.0196	0.002165
243.2269	-0.000389
243.4341	-0.000220
243.6414	-0.000600
243.8487	0.000118
244.0560	0.000413
244.2634	0.000645
244.4707	-0.001697
244.6781	0.000455
244.8854	-0.000705
245.0928	0.000350
245.3002	0.000202
245.5076	0.001067
245.7151	0.000498
245.9225	0.000878
246.1300	-0.000135
246.3375	0.000730
246.5449	0.000202
246.7524	0.001553
246.9600	-0.000178
247.1675	0.001321
247.3750	-0.000684
247.5826	0.001996
247.7902	-0.000452
247.9978	0.001236
248.2054	0.001363
248.4130	0.000118
248.6206	-0.000790
248.8283	0.000793
249.0359	0.000413
249.2436	0.000856
249.4513	0.000455
249.6590	-0.000072
249.8667	0.000814
250.0745	0.000941
250.2822	0.000308
250.4900	0.000751
250.6978	-0.000515
250.9056	0.000160
251.1134	0.000730
251.3212	0.001468
251.5290	0.000055
251.7369	0.000899
251.9447	0.000350
252.1526	-0.000051
252.3605	-0.000135
252.5684	0.001933
252.7763	0.000350
252.9843	-0.001233
253.1922	0.000287
253.4002	0.000582
253.6082	-0.000199
253.8162	0.001722
254.0242	0.001089
254.2322	0.001912
254.4402	-0.000072
254.6483	-0.000178
254.8564	0.000055
255.0644	0.000561
255.2725	0.000329
255.4806	0.000540
255.6888	-0.000642
255.8969	0.000624
256.1051	0.000856
256.3132	-0.000853
256.5214	-0.000452
256.7296	0.000645
256.9378	-0.001402
257.1460	0.001743
257.3543	-0.000684
257.5625	0.001342
257.7708	-0.000220
257.9791	0.001004
258.1874	0.000434
258.3957	0.001679
258.6040	0.000329
258.8124	-0.000178
259.0207	0.000793
259.2291	-0.000811
259.4375	0.000266
259.6459	0.001004
259.8543	-0.000009
260.0627	0.000667
260.2711	-0.000135
260.4796	0.000413
260.6881	0.000308
260.8965	-0.000030
261.1050	0.001764
261.3135	0.000814
261.5221	0.000856
261.7306	0.001785
261.9392	-0.000009
262.1477	0.001004
262.3563	0.000814
262.5649	0.000434
262.7735	0.000076
262.9822	0.000266
263.1908	-0.000515
263.3995	0.000413
263.6081	-0.000494
263.8168	-0.000389
264.0255	0.000033
264.2342	0.000329
264.4429	0.001827
264.6517	-0.000304
264.8604	-0.000072
265.0692	0.000033
265.2780	-0.000705
265.4868	0.000667
265.6956	-0.000684
265.9044	0.000498
266.1133	0.000139
266.3221	0.000202
266.5310	0.000941
266.7399	0.000076
266.9488	-0.000642
267.1577	-0.000600
267.3666	0.001743
267.5755	0.000477
267.7845	0.000519
267.9935	0.001722
268.2024	-0.000958
268.4114	0.001363
268.6205	0.001658
268.8295	0.000920
269.0385	0.000118
269.2476	0.001173
269.4566	0.000413
269.6657	0.001785
269.8748	0.000202
270.0839	-0.000346
270.2931	0.001004
270.5022	-0.000093
270.7114	0.000498
270.9205	0.000455
271.1297	-0.001423
271.3389	0.000097
271.5481	0.000160
271.7573	0.000878
271.9666	0.001067
272.1758	-0.000114
272.3851	0.001004
272.5944	0.000434
272.8037	0.000667
273.0130	0.000667
273.2223	0.001194
273.4316	0.001848
273.6410	-0.000051
273.8504	0.001827
274.0597	0.000392
274.2691	0.001363
274.4785	0.000709
274.6880	-0.000579
274.8974	-0.000494
275.1069	0.001131
275.3163	-0.000726
275.5258	-0.000114
275.7353	0.000329
275.9448	-0.000093
276.1543	-0.000346
276.3639	-0.000473
276.5734	0.000287
276.7830	-0.000072
276.9926	0.000033
277.2022	0.000561
277.4118	-0.000600
277.6214	0.000730
277.8310	0.000202
278.0407	0.002080
278.2503	-0.000325
278.4600	0.000139
278.6697	-0.000832
278.8794	-0.000093
279.0891	-0.000283
279.2989	0.000392
279.5086	-0.000473
279.7184	0.000350
279.9281	0.000097
280.1379	0.000498
280.3477	-0.000452
280.5576	0.000223
280.7674	0.001004
280.9772	0.000455
281.1871	0.001553
281.3970	0.001278
281.6069	0.000033
281.8168	0.000645
282.0267	0.000561
282.2366	-0.000093
282.4466	-0.000452
282.6565	0.001553
282.8665	0.001447
283.0765	0.000055
283.2865	-0.000009
283.4965	0.000160
283.7065	-0.000452
283.9166	0.000455
284.1266	0.000076
284.3367	0.000076
284.5468	-0.000199
284.7569	0.000709
284.9670	0.000055
285.1771	0.000603
285.3873	-0.000346
285.5974	0.001215
285.8076	0.000392
286.0178	0.001300
286.2280	-0.000684
286.4382	0.001321
286.6484	0.000582
286.8587	0.000329
287.0689	0.000540
287.2792	0.001025
287.4895	0.001363
287.6998	0.000498
287.9101	0.000455
288.1204	0.001004
288.3308	-0.000410
288.5411	-0.000874
288.7515	0.000223
288.9619	0.000835
289.1723	0.000540
289.3827	0.001764
289.5931	0.000962
289.8035	-0.000304
290.0140	0.001595
290.2245	0.000498
290.4349	0.000033
290.6454	0.001236
290.8559	-0.000114
291.0665	0.000118
291.2770	0.000181
291.4875	0.000371
291.6981	0.001131
291.9087	0.000371
292.1193	-0.000304
292.3299	0.000962
292.5405	-0.000980
292.7511	-0.000790
292.9618	0.002481
293.1724	-0.000368
293.3831	-0.000304
293.5938	0.000118
293.8045	0.000793
294.0152	0.001321
294.2260	0.000624
294.4367	-0.000726
294.6475	0.000498
294.8582	-0.000346
295.0690	0.001278
295.2798	0.001067
295.4906	-0.000473
295.7015	0.000540
295.9123	0.000033
296.1232	0.000899
296.3340	0.000899
296.5449	0.000624
296.7558	0.000519
296.9667	-0.000241
297.1777	-0.000135
297.3886	0.000434
297.5995	0.001743
297.8105	0.000498
298.0215	0.000033
298.2325	-0.000051
298.4435	-0.000030
298.6545	0.001806
298.8656	0.002756
299.0766	0.000835
299.2877	-0.000093
299.4988	-0.000811
299.7099	0.000477
299.9210	0.001848
300.1321	-0.000009
300.3432	-0.000790
300.5544	0.000392
300.7655	-0.000325
300.9767	-0.000030
301.1879	0.001152
301.3991	0.000350
301.6103	0.001152
301.8215	0.001384
302.0328	0.000540
302.2441	-0.000262
302.4553	0.000329
302.6666	-0.000663
302.8779	0.001300
303.0892	0.000392
303.3006	0.000308
303.5119	-0.000262
303.7233	0.001827
303.9346	-0.000051
304.1460	0.001595
304.3574	-0.000811
304.5688	0.000055
304.7803	-0.000030
304.9917	0.000962
305.2031	0.000772
305.4146	0.000603
305.6261	0.000118
305.8376	-0.000515
306.0491	0.000329
306.2606	0.000033
306.4722	0.000287
306.6837	0.000920
306.8953	0.000160
307.1069	0.001236
307.3184	0.000181
307.5301	-0.000093
307.7417	0.000033
307.9533	0.001067
308.1650	0.000308
308.3766	0.000835
308.5883	-0.000283
308.8000	0.000793
309.0117	-0.000389
309.2234	0.000223
309.4351	-0.000199
309.6469	-0.000051
309.8586	0.000751
310.0704	0.002017
310.2822	0.001173
310.4940	0.001046
310.7058	-0.000072
310.9176	0.000962
311.1295	-0.000684
311.3413	0.002228
311.5532	0.001363
311.7651	0.001405
311.9770	0.000371
312.1889	0.000181
312.4008	0.001257
312.6127	-0.000431
312.8247	0.000730
313.0366	0.000772
313.2486	-0.000705
313.4606	0.001679
313.6726	0.000498
313.8846	-0.000241
314.0967	0.000287
314.3087	0.000413
314.5208	0.000751
314.7328	0.000667
314.9449	-0.001043
315.1570	0.001806
315.3692	0.001152
315.5813	0.001658
315.7934	0.000434
316.0056	0.001173
316.2177	0.000899
316.4299	0.001933
316.6421	0.001236
316.8543	0.002418
317.0666	0.000540
317.2788	0.001300
317.4911	0.000266
317.7033	0.001257
317.9156	0.001490
318.1279	0.000582
318.3402	0.000076
318.5525	0.000920
318.7649	0.000055
318.9772	0.001595
319.1896	0.000709
319.4019	0.001743
319.6143	0.002059
319.8267	0.000899
320.0392	0.001616
320.2516	0.000645
320.4640	0.001532
320.6765	0.001511
320.8890	0.001912
321.1014	0.001490
321.3139	0.000076
321.5265	0.001405
321.7390	0.001827
321.9515	0.000878
322.1641	0.000455
322.3766	0.000709
322.5892	0.001490
322.8018	0.001848
323.0144	0.000709
323.2270	0.002334
323.4397	0.001637
323.6523	0.000688
323.8650	0.000561
324.0777	0.001173
324.2904	0.000455
324.5031	0.002080
324.7158	0.000878
324.9285	0.003009
325.1412	0.001490
325.3540	0.002334
325.5668	0.001384
325.7796	0.001890
325.9924	0.001468
326.2052	0.001574
326.4180	-0.000072
326.6308	0.000856
326.8437	0.001848
327.0566	0.001490
327.2694	0.001426
327.4823	0.002798
327.6952	0.001553
327.9082	0.001278
328.1211	0.000118
328.3340	0.001574
328.5470	0.000983
328.7600	0.002080
328.9730	0.001342
329.1860	0.003283
329.3990	0.001679
329.6120	0.001321
329.8251	0.001933
330.0381	0.000920
330.2512	0.002439
330.4643	0.002692
330.6774	0.000983
330.8905	0.001046
331.1036	0.001468
331.3167	0.001933
331.5299	0.003220
331.7431	0.002144
331.9562	0.002102
332.1694	0.002861
332.3826	0.002713
332.5959	0.001701
332.8091	0.001194
333.0223	0.001764
333.2356	0.000941
333.4489	0.003347
333.6622	0.001046
333.8755	0.002798
334.0888	0.001004
334.3021	0.002249
334.5154	0.001912
334.7288	0.003853
334.9422	0.001511
335.1555	0.003347
335.3689	0.001616
335.5823	0.001131
335.7958	0.002418
336.0092	0.001827
336.2227	0.002671
336.4361	0.001869
336.6496	0.002692
336.8631	0.001954
337.0766	0.002650
337.2901	0.001236
337.5036	0.004592
337.7172	0.003515
337.9307	0.002608
338.1443	0.002819
338.3579	0.002334
338.5715	0.002080
338.7851	0.001679
338.9987	0.003072
339.2124	0.002439
339.4260	0.002692
339.6397	0.002481
339.8533	0.002270
340.0670	0.001658
340.2807	0.003241
340.4945	0.002228
340.7082	0.003283
340.9219	0.002840
341.1357	0.002756
341.3495	0.001152
341.5633	0.002460
341.7771	0.002798
341.9909	0.004338
342.2047	0.002650
342.4185	0.003262
342.6324	0.002355
342.8463	0.002481
343.0601	0.002102
343.2740	0.002165
343.4879	0.002840
343.7019	0.004170
343.9158	0.002228
344.1297	0.002481
344.3437	0.002502
344.5577	0.002207
344.7717	0.001616
344.9857	0.002313
345.1997	0.004993
345.4137	0.003790
345.6277	0.003093
345.8418	0.003494
346.0559	0.002228
346.2699	0.001785
346.4840	0.003600
346.6981	0.003832
346.9123	0.004149
347.1264	0.003304
347.3406	0.003494
347.5547	0.004317
347.7689	0.001996
347.9831	0.003093
348.1973	0.003874
348.4115	0.004381
348.6257	0.002165
348.8400	0.003832
349.0542	0.000624
349.2685	0.003832
349.4828	0.002502
349.6971	0.004296
349.9114	0.003199
350.1257	0.004592
350.3400	0.003980
350.5544	0.003663
350.7687	0.002988
350.9831	0.003811
351.1975	0.004170
351.4119	0.004613
351.6263	0.003621
351.8407	0.004423
352.0552	0.002777
352.2696	0.003515
352.4841	0.003916
352.6986	0.002756
352.9131	0.004381
353.1276	0.003410
353.3421	0.004402
353.5566	0.004085
353.7712	0.003093
353.9858	0.004191
354.2003	0.003368
354.4149	0.004043
354.6295	0.002439
354.8441	0.004887
355.0588	0.004254
355.2734	0.004085
355.4881	0.003199
355.7027	0.004972
355.9174	0.005246
356.1321	0.004043
356.3468	0.003325
356.5615	0.003537
356.7763	0.005225
356.9910	0.003030
357.2058	0.004254
357.4206	0.004634
357.6353	0.004486
357.8501	0.003642
358.0650	0.003916
358.2798	0.004929
358.4946	0.003832
358.7095	0.004381
358.9243	0.004233
359.1392	0.006090
359.3541	0.005119
359.5690	0.005752
359.7839	0.004866
359.9989	0.006829
360.2138	0.005183
360.4288	0.004824
360.6438	0.006048
360.8587	0.006533
361.0737	0.005351
361.2888	0.004760
361.5038	0.005858
361.7188	0.006786
361.9339	0.006449
362.1489	0.005478
362.3640	0.005161
362.5791	0.004676
362.7942	0.008031
363.0093	0.007504
363.2245	0.006554
363.4396	0.004993
363.6548	0.004191
363.8699	0.005816
364.0851	0.005584
364.3003	0.006280
364.5155	0.005562
364.7308	0.006596
364.9460	0.006871
365.1612	0.007040
365.3765	0.004908
365.5918	0.007082
365.8071	0.005267
366.0224	0.007652
366.2377	0.005984
366.4530	0.007019
366.6684	0.007884
366.8837	0.008327
367.0991	0.006913
367.3145	0.008242
367.5299	0.008031
367.7453	0.008749
367.9607	0.007377
368.1761	0.009066
368.3916	0.007166
368.6070	0.008833
368.8225	0.007947
369.0380	0.007483
369.2535	0.006491
369.4690	0.007483
369.6845	0.007082
369.9001	0.007377
370.1156	0.008306
370.3312	0.009572
370.5468	0.008749
370.7624	0.007947
370.9780	0.006596
371.1936	0.008306
371.4092	0.008939
371.6249	0.007926
371.8405	0.008601
372.0562	0.007863
372.2719	0.008918
372.4876	0.009614
372.7033	0.009023
372.9190	0.007926
373.1348	0.008728
373.3505	0.009361
373.5663	0.010353
373.7820	0.010859
373.9978	0.009340
374.2136	0.010142
374.4294	0.010100
374.6453	0.010944
374.8611	0.011239
375.0770	0.009783
375.2928	0.010332
375.5087	0.011914
375.7246	0.011028
375.9405	0.011134
376.1564	0.011640
376.3724	0.010395
376.5883	0.010712
376.8043	0.012294
377.0203	0.011556
377.2362	0.012505
377.4522	0.014383
377.6682	0.013729
377.8843	0.013497
378.1003	0.013793
378.3164	0.013560
378.5324	0.013476
378.7485	0.013877
378.9646	0.014890
379.1807	0.016409
379.3968	0.016051
379.6129	0.014130
379.8291	0.015101
380.0452	0.013666
380.2614	0.014151
380.4776	0.014742
380.6938	0.015164
380.9100	0.016262
381.1262	0.017275
381.3424	0.014890
381.5587	0.015692
381.7749	0.016557
381.9912	0.015523
382.2075	0.017253
382.4238	0.019828
382.6401	0.017507
382.8564	0.017021
383.0728	0.018456
383.2891	0.017612
383.5055	0.018140
383.7219	0.018456
383.9382	0.018161
384.1546	0.019068
384.3711	0.017865
384.5875	0.016578
384.8039	0.017486
385.0204	0.018731
385.2368	0.019512
385.4533	0.018900
385.6698	0.018794
385.8863	0.019005
386.1028	0.019322
386.3194	0.020356
386.5359	0.019934
386.7525	0.019406
386.9690	0.018456
387.1856	0.021770
387.4022	0.021854
387.6188	0.022192
387.8355	0.020398
388.0521	0.020799
388.2687	0.022614
388.4854	0.022276
388.7021	0.020567
388.9188	0.024006
389.1355	0.022782
389.3522	0.021031
389.5689	0.020672
389.7856	0.022719
390.0024	0.021453
390.2192	0.021896
390.4359	0.022698
390.6527	0.022424
390.8695	0.020166
391.0863	0.024534
391.3032	0.024239
391.5200	0.021770
391.7369	0.023394
391.9537	0.026665
392.1706	0.022360
392.3875	0.027615
392.6044	0.025674
392.8213	0.027868
393.0383	0.028670
393.2552	0.027678
393.4722	0.027235
393.6891	0.027552
393.9061	0.027953
394.1231	0.027172
394.3401	0.027404
394.5572	0.028058
394.7742	0.028902
394.9912	0.027889
395.2083	0.026159
395.4254	0.028860
395.6425	0.026518
395.8596	0.027995
396.0767	0.027299
396.2938	0.027911
396.5109	0.029746
396.7281	0.030190
396.9453	0.029198
397.1624	0.029219
397.3796	0.027805
397.5968	0.030084
397.8140	0.031899
398.0313	0.031308
398.2485	0.034642
398.4658	0.034241
398.6830	0.034896
398.9003	0.033545
399.1176	0.034410
399.3349	0.033629
399.5522	0.032342
399.7696	0.032785
399.9869	0.033017
400.2043	0.033587
400.4216	0.033651
400.6390	0.031878
400.8564	0.032616
401.0738	0.030970
401.2912	0.032004
401.5087	0.031266
401.7261	0.032026
401.9436	0.032764
402.1610	0.032891
402.3785	0.031604
402.5960	0.033629
402.8135	0.033566
403.0310	0.032469
403.2486	0.032828
403.4661	0.031857
403.6837	0.032743
403.9013	0.033946
404.1189	0.034748
404.3365	0.032785
404.5541	0.033819
404.7717	0.033461
404.9893	0.035592
405.2070	0.033482
405.4246	0.033840
405.6423	0.033798
405.8600	0.036056
406.0777	0.033376
406.2954	0.034347
406.5131	0.034136
406.7309	0.034241
406.9486	0.033039
407.1664	0.032194
407.3842	0.029071
407.6020	0.033060
407.8198	0.032194
408.0376	0.032828
408.2554	0.035887
408.4733	0.034178
408.6911	0.035149
408.9090	0.034199
409.1269	0.034347
409.3448	0.034368
409.5627	0.034263
409.7806	0.033503
409.9985	0.031034
410.2165	0.035212
410.4344	0.034241
410.6524	0.034642
410.8704	0.033967
411.0884	0.033883
411.3064	0.034558
411.5244	0.033081
411.7424	0.032996
411.9605	0.034326
412.1785	0.032722
412.3966	0.033988
412.6147	0.034896
412.8328	0.035318
413.0509	0.036964
413.2690	0.036753
413.4871	0.034157
413.7053	0.035465
413.9234	0.035782
414.1416	0.035149
414.3598	0.035170
414.5780	0.035634
414.7962	0.035719
415.0144	0.034030
415.2326	0.035655
415.4509	0.036499
415.6692	0.037344
415.8874	0.034600
416.1057	0.035170
416.3240	0.034663
416.5423	0.034136
416.7606	0.037934
416.9790	0.035655
417.1973	0.035381
417.4157	0.035930
417.6341	0.034832
417.8524	0.036035
418.0708	0.036710
418.2893	0.035761
418.5077	0.036436
418.7261	0.035339
418.9446	0.036753
419.1630	0.036584
419.3815	0.034326
419.6000	0.037512
419.8185	0.036668
420.0370	0.039053
420.2555	0.039728
420.4741	0.042239
420.6926	0.039559
420.9112	0.039475
421.1298	0.041184
421.3483	0.043885
421.5669	0.044371
421.7856	0.042345
422.0042	0.045911
422.2228	0.044075
422.4415	0.043020
422.6601	0.041860
422.8788	0.043379
423.0975	0.042239
423.3162	0.040804
423.5349	0.041944
423.7536	0.041733
423.9724	0.040868
424.1911	0.038167
424.4099	0.041501
424.6287	0.040403
424.8475	0.039327
425.0663	0.041121
425.2851	0.039813
425.5039	0.040994
425.7228	0.040804
425.9416	0.038589
426.1605	0.036288
426.3793	0.037217
426.5982	0.037934
426.8171	0.037196
427.0361	0.039960
427.2550	0.038293
427.4739	0.044160
427.6929	0.041079
427.9118	0.038736
428.1308	0.036457
428.3498	0.039074
428.5688	0.041374
428.7878	0.040952
429.0068	0.039981
429.2259	0.037829
429.4449	0.041332
429.6640	0.045363
429.8831	0.045384
430.1022	0.046207
430.3213	0.048570
430.5404	0.046882
430.7595	0.045257
430.9787	0.044730
431.1978	0.045405
431.4170	0.044497
431.6362	0.041037
431.8553	0.039412
432.0745	0.037723
432.2938	0.040171
432.5130	0.038568
432.7322	0.038483
432.9515	0.037597
433.1707	0.036584
433.3900	0.040361
433.6093	0.044624
433.8286	0.046566
434.0479	0.047241
434.2673	0.044709
434.4866	0.042345
434.7059	0.041100
434.9253	0.041058
435.1447	0.040003
435.3641	0.042239
435.5835	0.041037
435.8029	0.043105
436.0223	0.040994
436.2418	0.041754
436.4612	0.044835
436.6807	0.045384
436.9001	0.043991
437.1196	0.044265
437.3391	0.044392
437.5586	0.042239
437.7782	0.043463
437.9977	0.044624
438.2173	0.043274
438.4368	0.043527
438.6564	0.046144
438.8760	0.044793
439.0956	0.044392
439.3152	0.041670
439.5348	0.048486
439.7545	0.044139
439.9741	0.044139
440.1938	0.042429
440.4135	0.044561
440.6331	0.043801
440.8528	0.047452
441.0725	0.050237
441.2923	0.052031
441.5120	0.055534
441.7318	0.054880
441.9515	0.055513
442.1713	0.051272
442.3911	0.055534
442.6109	0.052116
442.8307	0.052263
443.0505	0.051736
443.2703	0.051968
443.4902	0.054922
443.7101	0.054543
443.9299	0.053973
444.1498	0.052559
444.3697	0.053593
444.5896	0.052960
444.8095	0.051841
445.0295	0.052939
445.2494	0.052263
445.4694	0.052939
445.6894	0.052559
445.9093	0.052095
446.1293	0.051061
446.3493	0.052116
446.5694	0.052327
446.7894	0.054479
447.0094	0.051398
447.2295	0.051989
447.4496	0.053614
447.6696	0.051293
447.8897	0.051356
448.1098	0.051715
448.3300	0.050343
448.5501	0.051250
448.7702	0.050195
448.9904	0.050512
449.2106	0.051187
449.4307	0.051124
449.6509	0.049077
449.8711	0.051947
450.0914	0.048971
450.3116	0.050997
450.5318	0.049330
450.7521	0.049963
450.9724	0.048402
451.1926	0.049942
451.4129	0.046038
451.6332	0.048359
451.8535	0.047135
452.0739	0.047684
452.2942	0.048908
452.5146	0.049309
452.7349	0.049077
452.9553	0.047494
453.1757	0.047874
453.3961	0.046945
453.6165	0.045299
453.8369	0.048781
454.0574	0.046544
454.2778	0.046122
454.4983	0.045236
454.7188	0.046059
454.9393	0.048212
455.1597	0.046924
455.3803	0.047220
455.6008	0.050153
455.8213	0.048507
456.0419	0.049203
456.2624	0.044709
456.4830	0.046355
456.7036	0.047156
456.9242	0.046988
457.1448	0.048001
457.3654	0.048402
457.5860	0.052559
457.8067	0.050512
458.0274	0.051314
458.2480	0.052749
458.4687	0.050554
458.6894	0.052960
458.9101	0.051820
459.1308	0.051483
459.3516	0.051778
459.5723	0.053150
459.7931	0.054669
460.0138	0.051694
460.2346	0.049541
460.4554	0.050090
460.6762	0.051356
460.8970	0.047958
461.1178	0.051061
461.3387	0.052770
461.5595	0.048908
461.7804	0.048950
462.0013	0.045764
462.2222	0.045721
462.4431	0.047325
462.6640	0.045637
462.8849	0.045700
463.1059	0.043210
463.3268	0.048528
463.5478	0.048655
463.7687	0.049436
463.9897	0.050913
464.2107	0.052664
464.4317	0.050744
464.6528	0.053952
464.8738	0.052221
465.0948	0.054986
465.3159	0.055408
465.5370	0.057455
465.7581	0.055745
465.9792	0.058341
466.2003	0.053719
466.4214	0.052960
466.6425	0.052284
466.8637	0.048929
467.0848	0.050617
467.3060	0.048781
467.5272	0.047494
467.7484	0.047030
467.9696	0.046312
468.1908	0.049794
468.4120	0.046924
468.6333	0.045637
468.8545	0.044856
469.0758	0.043485
469.2970	0.044033
469.5183	0.042514
469.7396	0.041395
469.9610	0.042408
470.1823	0.042429
470.4036	0.040467
470.6250	0.040952
470.8463	0.042282
471.0677	0.040235
471.2891	0.038335
471.5105	0.040045
471.7319	0.042176
471.9533	0.041480
472.1748	0.041860
472.3962	0.041986
472.6177	0.043928
472.8391	0.044835
473.0606	0.044265
473.2821	0.045426
473.5036	0.046587
473.7251	0.047156
473.9467	0.046418
474.1682	0.043928
474.3898	0.047009
474.6113	0.043653
474.8329	0.045595
475.0545	0.047579
475.2761	0.049372
475.4977	0.049014
475.7193	0.049056
475.9410	0.046861
476.1626	0.049098
476.3843	0.046840
476.6060	0.047726
476.8277	0.045848
477.0494	0.046418
477.2711	0.042873
477.4928	0.046755
477.7145	0.044624
477.9363	0.047811
478.1580	0.048802
478.3798	0.048169
478.6016	0.045806
478.8234	0.046882
479.0452	0.047262
479.2670	0.047600
479.4888	0.047621
479.7107	0.047304
479.9325	0.049014
480.1544	0.053466
480.3763	0.054458
480.5982	0.053931
480.8201	0.052432
481.0420	0.051145
481.2639	0.050955
481.4859	0.052896
481.7078	0.055513
481.9298	0.053382
482.1517	0.051504
482.3737	0.052179
482.5957	0.050427
482.8177	0.053086
483.0398	0.050997
483.2618	0.051398
483.4838	0.050385
483.7059	0.051018
483.9280	0.049837
484.1501	0.054205
484.3721	0.056294
484.5943	0.059333
484.8164	0.058911
485.0385	0.058721
485.2606	0.057581
485.4828	0.080309
485.7050	0.132265
485.9271	0.184221
486.1493	0.196207
486.3715	0.165544
486.5937	0.129711
486.8160	0.109938
487.0382	0.103417
487.2605	0.097698
487.4827	0.082525
487.7050	0.068534
487.9273	0.060388
488.1496	0.055387
488.3719	0.053487
488.5942	0.054564
488.8165	0.054142
489.0389	0.053340
489.2612	0.052812
489.4836	0.053361
489.7060	0.051715
489.9284	0.054690
490.1508	0.053719
490.3732	0.051884
490.5956	0.051778
490.8180	0.051483
491.0405	0.052496
491.2630	0.052960
491.4854	0.050955
491.7079	0.052284
491.9304	0.049604
492.1529	0.050723
492.3755	0.054226
492.5980	0.051145
492.8205	0.048634
493.0431	0.050449
493.2657	0.050512
493.4882	0.052960
493.7108	0.051588
493.9334	0.053319
494.1561	0.052052
494.3787	0.050048
494.6013	0.052728
494.8240	0.053593
495.0466	0.051061
495.2693	0.049457
495.4920	0.046502
495.7147	0.048127
495.9374	0.050512
496.1601	0.053234
496.3829	0.056611
496.6056	0.058468
496.8284	0.057434
497.0511	0.054838
497.2739	0.053065
497.4967	0.050343
497.7195	0.048444
497.9423	0.049499
498.1652	0.046713
498.3880	0.050090
498.6109	0.050048
498.8337	0.053044
499.0566	0.053361
499.2795	0.051694
499.5024	0.054732
499.7253	0.054922
499.9482	0.054205
500.1712	0.055176
500.3941	0.053129
500.6171	0.051272
500.8400	0.049879
501.0630	0.050765
501.2860	0.053888
501.5090	0.055133
501.7320	0.058299
501.9551	0.053551
502.1781	0.053846
502.4012	0.054627
502.6242	0.053065
502.8473	0.055429
503.0704	0.056505
503.2935	0.054142
503.5166	0.054669
503.7397	0.055070
503.9628	0.053086
504.1860	0.052707
504.4092	0.053108
504.6323	0.050195
504.8555	0.050512
505.0787	0.047367
505.3019	0.050216
505.5251	0.051145
505.7483	0.049794
505.9716	0.049900
506.1948	0.048423
506.4181	0.050174
506.6414	0.053403
506.8647	0.052116
507.0880	0.049604
507.3113	0.048824
507.5346	0.044519
507.7579	0.046734
507.9813	0.047916
508.2046	0.050554
508.4280	0.049478
508.6514	0.050470
508.8748	0.048718
509.0982	0.049562
509.3216	0.048191
509.5450	0.048317
509.7685	0.046228
509.9919	0.050005
510.2154	0.047874
510.4388	0.049942
510.6623	0.046333
510.8858	0.047135
511.1093	0.046967
511.3329	0.047790
511.5564	0.047790
511.7799	0.047747
512.0035	0.048148
512.2270	0.045278
512.4506	0.045553
512.6742	0.042851
512.8978	0.044139
513.1214	0.045194
513.3451	0.042429
513.5687	0.044941
513.7923	0.044898
514.0160	0.044730
514.2397	0.045152
514.4634	0.043928
514.6871	0.044286
514.9108	0.045173
515.1345	0.041501
515.3582	0.041564
515.5819	0.041522
515.8057	0.042282
516.0295	0.042282
516.2532	0.043717
516.4770	0.040045
516.7008	0.040952
516.9246	0.043421
517.1485	0.042830
517.3723	0.040720
517.5961	0.041332
517.8200	0.037365
518.0439	0.041227
518.2677	0.041353
518.4916	0.039201
518.7155	0.038441
518.9395	0.040129
519.1634	0.041142
519.3873	0.041395
519.6113	0.040467
519.8352	0.041332
520.0592	0.040319
520.2832	0.039876
520.5072	0.038272
520.7312	0.036605
520.9552	0.039960
521.1792	0.037238
521.4033	0.038694
521.6273	0.036077
521.8514	0.037808
522.0755	0.037998
522.2996	0.037745
522.5237	0.037090
522.7478	0.037069
522.9719	0.038335
523.1960	0.037956
523.4202	0.037259
523.6443	0.036162
523.8685	0.037829
524.0927	0.037533
524.3169	0.036858
524.5411	0.037766
524.7653	0.037344
524.9895	0.037154
525.2138	0.033840
525.4380	0.037069
525.6623	0.037111
525.8865	0.037766
526.1108	0.035444
526.3351	0.035339
526.5594	0.037196
526.7837	0.037344
527.0081	0.037850
527.2324	0.036310
527.4568	0.036985
527.6811	0.037977
527.9055	0.035866
528.1299	0.038209
528.3543	0.037006
528.5787	0.038061
528.8031	0.039454
529.0276	0.040045
529.2520	0.040298
529.4765	0.041817
529.7009	0.036900
529.9254	0.040361
530.1499	0.039686
530.3744	0.037681
530.5989	0.037723
530.8234	0.038272
531.0480	0.036310
531.2725	0.037154
531.4971	0.037639
531.7217	0.037175
531.9462	0.037428
532.1708	0.039011
532.3954	0.034769
532.6200	0.036288
532.8447	0.039454
533.0693	0.041480
533.2940	0.043316
533.5186	0.042535
533.7433	0.046355
533.9680	0.043611
534.1927	0.045131
534.4174	0.044033
534.6421	0.045869
534.8668	0.045658
535.0916	0.047621
535.3163	0.045869
535.5411	0.043611
535.7659	0.042556
535.9907	0.043801
536.2155	0.043780
536.4403	0.041817
536.6651	0.037787
536.8899	0.038420
537.1148	0.038356
537.3396	0.040889
537.5645	0.040467
537.7894	0.041395
538.0143	0.041838
538.2392	0.044308
538.4641	0.044181
538.6890	0.046355
538.9139	0.045109
539.1389	0.046038
539.3638	0.047979
539.5888	0.046798
539.8138	0.047916
540.0388	0.044983
540.2638	0.044898
540.4888	0.041986
540.7138	0.045384
540.9389	0.045637
541.1639	0.047389
541.3890	0.047832
541.6140	0.044941
541.8391	0.046967
542.0642	0.046376
542.2893	0.048064
542.5144	0.046333
542.7396	0.049520
542.9647	0.045954
543.1899	0.045447
543.4150	0.047072
543.6402	0.048465
543.8654	0.048570
544.0906	0.049752
544.3158	0.050765
544.5410	0.050660
544.7662	0.049182
544.9915	0.051293
545.2167	0.051968
545.4420	0.049436
545.6673	0.048296
545.8926	0.048613
546.1179	0.046460
546.3432	0.043485
546.5685	0.045932
546.7938	0.043738
547.0192	0.044983
547.2445	0.046840
547.4699	0.048380
547.6953	0.050280
547.9206	0.055513
548.1460	0.056189
548.3715	0.058151
548.5969	0.054859
548.8223	0.053108
549.0478	0.054901
549.2732	0.050807
549.4987	0.048971
549.7242	0.049414
549.9496	0.049414
550.1751	0.049837
550.4007	0.046376
550.6262	0.046544
550.8517	0.045342
551.0773	0.042282
551.3028	0.043020
551.5284	0.043041
551.7540	0.044793
551.9796	0.048591
552.2052	0.052411
552.4308	0.055028
552.6564	0.051673
552.8820	0.052137
553.1077	0.051483
553.3333	0.052580
553.5590	0.052052
553.7847	0.051715
554.0104	0.053741
554.2361	0.050976
554.4618	0.049710
554.6875	0.044434
554.9132	0.046650
555.1390	0.047557
555.3648	0.051778
555.5905	0.053171
555.8163	0.053234
556.0421	0.052601
556.2679	0.053762
556.4937	0.053551
556.7195	0.052664
556.9454	0.050048
557.1712	0.049288
557.3971	0.050153
557.6230	0.051778
557.8488	0.049626
558.0747	0.050828
558.3006	0.050132
558.5266	0.047009
558.7525	0.045975
558.9784	0.045954
559.2044	0.045975
559.4303	0.047346
559.6563	0.047536
559.8823	0.048971
560.1083	0.051799
560.3343	0.055471
560.5603	0.054015
560.7863	0.056990
561.0124	0.060979
561.2384	0.059227
561.4645	0.058025
561.6905	0.057982
561.9166	0.060578
562.1427	0.057286
562.3688	0.058257
562.5949	0.055661
562.8211	0.055155
563.0472	0.054057
563.2733	0.056252
563.4995	0.056547
563.7257	0.058700
563.9519	0.057729
564.1781	0.059164
564.4043	0.060747
564.6305	0.060726
564.8567	0.061253
565.0829	0.061295
565.3092	0.061549
565.5355	0.061570
565.7617	0.059080
565.9880	0.058805
566.2143	0.063954
566.4406	0.063321
566.6669	0.063174
566.8932	0.063554
567.1196	0.066445
567.3459	0.072564
567.5723	0.081428
567.7987	0.080499
568.0250	0.078832
568.2514	0.082588
568.4778	0.089067
568.7043	0.091241
568.9307	0.098479
569.1571	0.102193
569.3836	0.109263
569.6100	0.121671
569.8365	0.132307
570.0630	0.138976
570.2895	0.146636
570.5160	0.142120
570.7425	0.146573
570.9690	0.155816
571.1956	0.160501
571.4221	0.166768
571.6487	0.174344
571.8752	0.180654
572.1018	0.185086
572.3284	0.183820
572.5550	0.171158
572.7816	0.157103
573.0082	0.155478
573.2349	0.169955
573.4615	0.182849
573.6882	0.193168
573.9149	0.201420
574.1415	0.205809
574.3682	0.211992
574.5949	0.220518
574.8216	0.223409
575.0484	0.224654
575.2751	0.227608
575.5018	0.218830
575.7286	0.212815
575.9554	0.201905
576.1821	0.199647
576.4089	0.204395
576.6357	0.217141
576.8626	0.226173
577.0894	0.228621
577.3162	0.237337
577.5431	0.238519
577.7699	0.266607
577.9968	0.305985
578.2237	0.292205
578.4505	0.275639
578.6774	0.259326
578.9044	0.242507
579.1313	0.231449
579.3582	0.233623
579.5851	0.244913
579.8121	0.244470
580.0391	0.247150
580.2660	0.252426
580.4930	0.243604
580.7200	0.238434
580.9470	0.241410
581.1741	0.282962
581.4011	0.339876
581.6281	0.372987
581.8552	0.378727
582.0822	0.372438
582.3093	0.355408
582.5364	0.332195
582.7635	0.302862
582.9906	0.277559
583.2177	0.258187
583.4449	0.240291
583.6720	0.223789
583.8991	0.218998
584.1263	0.218724
584.3535	0.227566
584.5807	0.228326
584.8079	0.238244
585.0351	0.259537
585.2623	0.264074
585.4895	0.266733
585.7167	0.267345
585.9440	0.258187
586.1713	0.243330
586.3985	0.227735
586.6258	0.220877
586.8531	0.222607
587.0804	0.238202
587.3077	0.251244
587.5350	0.256330
587.7624	0.251370
587.9897	0.243225
588.2171	0.230352
588.4445	0.220961
588.6718	0.218471
588.8992	0.210937
589.1266	0.191332
589.3540	0.185508
589.5815	0.182490
589.8089	0.178101
590.0363	0.177658
590.2638	0.170968
590.4913	0.164890
590.7187	0.156365
590.9462	0.151933
591.1737	0.141993
591.4012	0.139208
591.6288	0.140495
591.8563	0.147016
592.0838	0.142162
592.3114	0.146932
592.5389	0.167212
592.7665	0.193675
592.9941	0.215875
593.2217	0.220560
593.4493	0.215094
593.6769	0.217099
593.9046	0.206168
594.1322	0.194329
594.3598	0.185128
594.5875	0.185487
594.8152	0.194962
595.0429	0.210241
595.2705	0.210747
595.4983	0.205577
595.7260	0.198149
595.9537	0.186626
596.1814	0.174766
596.4092	0.162020
596.6369	0.158095
596.8647	0.151996
597.0925	0.155478
597.3203	0.157082
597.5481	0.161260
597.7759	0.159825
598.0037	0.151405
598.2315	0.149591
598.4594	0.147733
598.6872	0.163772
598.9151	0.185402
599.1430	0.198824
599.3709	0.195701
599.5988	0.185276
599.8267	0.189897
600.0546	0.189243
600.2825	0.194413
600.5105	0.194308
600.7384	0.190362
600.9664	0.195215
601.1944	0.196735
601.4223	0.196059
601.6503	0.182870
601.8783	0.181920
602.1064	0.177489
602.3344	0.174070
602.5624	0.175125
602.7905	0.179493
603.0185	0.179937
603.2466	0.189011
603.4747	0.202306
603.7028	0.196840
603.9309	0.193105
604.1590	0.178818
604.3871	0.175294
604.6152	0.167802
604.8434	0.165692
605.0715	0.163497
605.2997	0.163413
605.5279	0.169807
605.7561	0.176835
605.9843	0.183144
606.2125	0.182047
606.4407	0.167676
606.6689	0.164025
606.8972	0.159762
607.1254	0.164152
607.3537	0.167507
607.5819	0.165439
607.8102	0.165354
608.0385	0.160522
608.2668	0.155162
608.4951	0.154085
608.7235	0.148789
608.9518	0.146109
609.1801	0.142901
609.4085	0.137710
609.6369	0.138174
609.8653	0.138870
610.0936	0.153241
610.3220	0.155964
610.5505	0.151448
610.7789	0.146868
611.0073	0.144040
611.2357	0.137921
611.4642	0.140073
611.6927	0.144378
611.9211	0.140031
612.1496	0.136654
612.3781	0.131674
612.6066	0.128783
612.8351	0.132328
613.0637	0.131737
613.2922	0.134038
613.5208	0.131231
613.7493	0.129585
613.9779	0.131210
614.2065	0.129458
614.4351	0.129458
614.6637	0.127854
614.8923	0.128002
615.1209	0.127854
615.3495	0.129353
615.5782	0.134185
615.8068	0.133215
616.0355	0.127791
616.2642	0.120764
616.4929	0.117345
616.7216	0.112724
616.9503	0.111816
617.1790	0.111415
617.4077	0.114116
617.6365	0.113209
617.8652	0.111711
618.0940	0.113990
618.3227	0.110782
618.5515	0.103586
618.7803	0.097951
619.0091	0.092612
619.2379	0.093098
619.4667	0.088919
619.6956	0.095060
619.9244	0.093984
620.1533	0.098901
620.3821	0.099745
620.6110	0.097128
620.8399	0.088983
621.0688	0.079128
621.2977	0.076595
621.5266	0.074464
621.7556	0.079085
621.9845	0.080394
622.2135	0.084277
622.4424	0.082736
622.6714	0.084087
622.9004	0.087970
623.1294	0.088624
623.3584	0.090502
623.5874	0.085712
623.8164	0.088856
624.0454	0.088160
624.2745	0.088624
624.5035	0.089025
624.7326	0.093245
624.9617	0.094469
625.1908	0.088286
625.4199	0.081386
625.6490	0.080183
625.8781	0.080204
626.1072	0.080520
626.3364	0.076637
626.5655	0.071868
626.7947	0.073029
627.0238	0.072628
627.2530	0.072375
627.4822	0.071277
627.7114	0.070496
627.9406	0.067331
628.1698	0.062604
628.3991	0.062583
628.6283	0.056590
628.8576	0.058658
629.0868	0.063089
629.3161	0.062688
629.5454	0.065115
629.7747	0.060895
630.0040	0.063406
630.2333	0.061443
630.4626	0.060135
630.6920	0.053804
630.9213	0.054289
631.1507	0.053340
631.3801	0.054585
631.6094	0.051968
631.8388	0.054205
632.0682	0.055302
632.2976	0.051335
632.5271	0.048148
632.7565	0.045299
632.9859	0.042788
633.2154	0.045067
633.4448	0.044519
633.6743	0.044666
633.9038	0.042809
634.1333	0.043569
634.3628	0.043611
634.5923	0.042345
634.8218	0.043041
635.0514	0.042450
635.2809	0.039834
635.5105	0.039918
635.7400	0.041649
635.9696	0.042071
636.1992	0.043358
636.4288	0.044814
636.6584	0.044814
636.8880	0.043274
637.1177	0.041585
637.3473	0.042514
637.5770	0.040382
637.8066	0.037639
638.0363	0.042851
638.2660	0.041670
638.4957	0.040298
638.7254	0.043801
638.9551	0.040256
639.1848	0.040340
639.4145	0.041163
639.6443	0.037076
639.8740	0.036166
640.1038	0.038149
640.3336	0.039851
640.5633	0.037622
640.7931	0.037030
641.0229	0.035458
641.2528	0.032203
641.4826	0.032519
641.7124	0.033956
641.9423	0.031592
642.1721	0.031416
642.4020	0.029996
642.6319	0.029416
642.8617	0.028660
643.0916	0.029940
643.3216	0.029196
643.5515	0.028695
643.7814	0.027936
644.0113	0.030563
644.2413	0.026196
644.4712	0.026505
644.7012	0.024580
644.9312	0.026944
645.1612	0.027661
645.3912	0.027708
645.6212	0.028039
645.8512	0.025510
646.0812	0.025613
646.3113	0.028604
646.5413	0.024728
646.7714	0.024717
647.0015	0.026154
647.2316	0.024581
647.4616	0.023422
647.6918	0.026267
647.9219	0.025759
648.1520	0.030877
648.3821	0.029572
648.6123	0.031327
648.8424	0.032498
649.0726	0.035331
649.3028	0.032021
649.5329	0.033495
649.7631	0.033355
649.9933	0.033976
650.2236	0.030198
650.4538	0.029604
650.6840	0.030324
650.9143	0.028498
651.1445	0.028331
651.3748	0.029563
651.6051	0.026461
651.8354	0.029714
652.0657	0.030973
652.2960	0.031375
652.5263	0.033327
652.7566	0.030121
652.9870	0.030925
653.2173	0.029444
653.4477	0.029943
653.6780	0.032337
653.9084	0.032313
654.1388	0.033231
654.3692	0.035305
654.5996	0.036026
654.8300	0.040006
655.0605	0.063418
655.2909	0.178489
655.5213	0.512651
655.7518	0.965851
655.9823	1.000000
656.2128	1.000000
656.4433	1.000000
656.6738	1.000000
656.9043	1.000000
657.1348	0.868683
657.3653	0.709866
657.5959	0.612229
657.8264	0.528874
658.0570	0.480162
658.2875	0.441790
658.5181	0.400763
658.7487	0.374347
658.9793	0.365992
659.2099	0.316691
659.4406	0.230754
659.6712	0.146546
659.9018	0.087082
660.1325	0.053649
660.3632	0.037366
660.5938	0.028803
660.8245	0.025177
661.0552	0.024107
661.2859	0.022240
661.5166	0.023193
661.7474	0.021883
661.9781	0.022532
662.2088	0.022058
662.4396	0.023211
662.6704	0.021239
662.9011	0.021983
663.1319	0.022088
663.3627	0.021055
663.5935	0.020879
663.8243	0.023853
664.0552	0.022302
664.2860	0.022052
664.5168	0.022322
664.7477	0.021942
664.9786	0.021176
665.2094	0.023305
665.4403	0.023737
665.6712	0.023676
665.9021	0.023693
666.1330	0.025015
666.3640	0.022843
666.5949	0.022020
666.8259	0.021419
667.0568	0.020748
667.2878	0.020109
667.5188	0.020020
667.7497	0.019512
667.9807	0.021441
668.2117	0.019920
668.4428	0.022192
668.6738	0.019343
668.9048	0.020102
669.1359	0.020630
669.3669	0.021474
669.5980	0.019385
669.8291	0.021326
670.0602	0.022571
670.2913	0.021390
670.5224	0.021706
670.7535	0.021347
670.9846	0.021369
671.2157	0.023648
671.4469	0.025357
671.6781	0.029578
671.9092	0.030992
672.1404	0.031793
672.3716	0.034727
672.6028	0.034663
672.8340	0.034284
673.0652	0.032553
673.2964	0.031245
673.5277	0.030612
673.7589	0.029979
673.9902	0.029620
674.2214	0.027488
674.4527	0.029514
674.6840	0.025378
674.9153	0.028227
675.1466	0.025948
675.3779	0.025083
675.6093	0.026750
675.8406	0.024682
676.0719	0.026602
676.3033	0.024344
676.5347	0.024597
676.7661	0.025252
676.9974	0.022318
677.2288	0.023922
677.4602	0.024935
677.6917	0.027341
677.9231	0.027573
678.1545	0.030612
678.3860	0.028712
678.6174	0.028248
678.8489	0.030717
679.0804	0.030654
679.3119	0.032785
679.5434	0.036204
679.7749	0.033144
680.0064	0.034431
680.2379	0.034389
680.4694	0.035191
680.7010	0.033629
680.9325	0.030781
681.1641	0.034663
681.3957	0.033714
681.6273	0.034917
681.8589	0.036204
682.0905	0.034389
682.3221	0.031667
682.5537	0.031983
682.7854	0.030527
683.0170	0.028248
683.2487	0.029957
683.4803	0.031245
683.7120	0.030211
683.9437	0.031540
684.1754	0.035360
684.4071	0.034558
684.6388	0.037555
684.8705	0.037217
685.1023	0.039897
685.3340	0.042767
685.5658	0.045046
685.7975	0.045131
686.0293	0.043991
686.2611	0.044118
686.4929	0.044075
686.7247	0.043590
686.9565	0.040488
687.1883	0.045468
687.4202	0.043400
687.6520	0.042050
687.8838	0.041923
688.1157	0.037365
688.3476	0.039939
688.5795	0.038652
688.8114	0.037006
689.0433	0.035866
689.2752	0.035676
689.5071	0.037365
689.7390	0.037998
689.9710	0.037386
690.2029	0.032954
690.4349	0.032469
690.6669	0.034284
690.8988	0.034136
691.1308	0.038314
691.3628	0.037470
691.5948	0.036921
691.8269	0.038504
692.0589	0.037006
692.2909	0.036605
692.5230	0.040235
692.7550	0.038441
692.9871	0.038230
693.2192	0.040340
693.4513	0.038145
693.6834	0.036858
693.9155	0.038019
694.1476	0.034769
694.3797	0.034474
694.6119	0.031836
694.8440	0.031815
695.0762	0.037639
695.3083	0.034284
695.5405	0.031604
695.7727	0.031160
696.0049	0.029831
696.2371	0.027847
696.4693	0.030548
696.7016	0.035423
696.9338	0.038800
697.1660	0.038673
697.3983	0.037555
697.6306	0.037977
697.8628	0.038525
698.0951	0.035444
698.3274	0.037871
698.5597	0.036394
698.7920	0.037998
699.0243	0.034241
699.2567	0.035782
699.4890	0.034263
699.7214	0.033165
699.9537	0.032680
700.1861	0.031034
700.4185	0.031772
700.6509	0.030295
700.8833	0.029894
701.1157	0.027974
701.3481	0.027995
701.5806	0.028269
701.8130	0.026370
702.0454	0.029113
702.2779	0.029683
702.5104	0.033587
702.7429	0.028480
702.9753	0.028776
703.2078	0.029472
703.4403	0.027742
703.6729	0.027024
703.9054	0.027932
704.1379	0.029134
704.3705	0.029303
704.6030	0.027510
704.8356	0.026961
705.0682	0.025589
705.3008	0.023690
705.5334	0.022888
705.7660	0.024935
705.9986	0.024471
706.2312	0.026644
706.4638	0.030316
706.6965	0.032384
706.9291	0.036267
707.1618	0.036373
707.3945	0.037639
707.6272	0.037238
707.8599	0.036668
708.0926	0.037934
708.3253	0.037491
708.5580	0.037533
708.7907	0.037512
709.0235	0.034431
709.2562	0.033250
709.4890	0.033123
709.7217	0.034051
709.9545	0.032237
710.1873	0.032638
710.4201	0.033672
710.6529	0.033397
710.8857	0.036056
711.1186	0.033439
711.3514	0.032152
711.5842	0.032469
711.8171	0.029367
712.0500	0.029409
712.2828	0.026876
712.5157	0.029029
712.7486	0.028227
712.9815	0.029620
713.2144	0.028670
713.4474	0.031498
713.6803	0.032152
713.9132	0.033988
714.1462	0.033672
714.3791	0.036014
714.6121	0.033524
714.8451	0.035676
715.0781	0.036098
715.3111	0.032975
715.5441	0.034896
715.7771	0.032785
716.0102	0.031604
716.2432	0.030506
716.4762	0.030105
716.7093	0.029557
716.9424	0.026623
717.1754	0.028607
717.4085	0.026518
717.6416	0.026011
717.8747	0.028354
718.1078	0.029303
718.3410	0.028818
718.5741	0.027636
718.8072	0.029704
719.0404	0.029134
719.2736	0.030274
719.5067	0.029219
719.7399	0.028670
719.9731	0.027045
720.2063	0.029177
720.4395	0.027636
720.6727	0.030021
720.9060	0.029493
721.1392	0.029514
721.3725	0.029768
721.6057	0.028670
721.8390	0.028860
722.0723	0.029303
722.3055	0.029852
722.5388	0.028016
722.7721	0.027510
723.0055	0.027721
723.2388	0.025209
723.4721	0.027678
723.7055	0.027024
723.9388	0.029409
724.1722	0.028945
724.4056	0.026961
724.6389	0.026644
724.8723	0.026644
725.1057	0.029620
725.3391	0.030738
725.5726	0.032321
725.8060	0.032806
726.0394	0.032595
726.2729	0.034600
726.5063	0.032975
726.7398	0.032785
726.9733	0.033060
727.2068	0.030949
727.4403	0.029852
727.6738	0.032194
727.9073	0.031498
728.1408	0.031688
728.3743	0.034706
728.6079	0.033313
728.8414	0.032722
729.0750	0.034178
729.3086	0.034284
729.5421	0.036542
729.7757	0.038757
730.0093	0.038715
730.2429	0.035318
730.4766	0.037871
730.7102	0.040340
730.9438	0.043168
731.1775	0.040446
731.4111	0.043105
731.6448	0.044603
731.8785	0.041923
732.1122	0.041733
732.3458	0.040425
732.5795	0.042113
732.8133	0.041986
733.0470	0.041796
733.2807	0.043379
733.5145	0.041522
733.7482	0.043928
733.9820	0.048781
734.2157	0.047747
734.4495	0.052833
734.6833	0.050660
734.9171	0.047473
735.1509	0.047093
735.3847	0.046122
735.6185	0.048254
735.8524	0.048929
736.0862	0.047030
736.3201	0.047768
736.5539	0.047832
736.7878	0.047367
737.0217	0.046544
737.2556	0.050005
737.4895	0.047304
737.7234	0.044286
737.9573	0.039496
738.1912	0.042725
738.4252	0.040868
738.6591	0.039327
738.8931	0.041522
739.1271	0.045131
739.3610	0.046249
739.5950	0.044519
739.8290	0.046144
740.0630	0.042936
740.2970	0.041374
740.5310	0.038821
740.7651	0.040129
740.9991	0.037301
741.2332	0.037322
741.4672	0.034495
741.7013	0.033439
741.9354	0.034178
742.1695	0.034811
742.4036	0.034073
742.6377	0.036225
742.8718	0.034790
743.1059	0.035465
743.3400	0.030633
743.5742	0.030844
743.8083	0.030844
744.0425	0.030675
744.2767	0.029240
744.5108	0.027425
744.7450	0.029261
744.9792	0.028438
745.2134	0.030422
745.4477	0.028649
745.6819	0.028417
745.9161	0.026961
746.1504	0.028037
746.3846	0.029261
746.6189	0.028459
746.8532	0.027277
747.0874	0.030147
747.3217	0.029620
747.5560	0.031076
747.7903	0.030169
748.0247	0.026834
748.2590	0.028945
748.4933	0.029662
748.7277	0.030084
748.9620	0.028417
749.1964	0.031393
749.4308	0.031034
749.6652	0.033714
749.8995	0.037808
750.1339	0.036563
750.3684	0.039897
750.6028	0.040509
750.8372	0.039770
751.0717	0.038863
751.3061	0.038103
751.5406	0.042345
751.7750	0.038209
752.0095	0.038905
752.2440	0.040277
752.4785	0.036668
752.7130	0.035212
752.9475	0.035719
753.1820	0.037386
753.4166	0.035571
753.6511	0.041395
753.8856	0.042387
754.1202	0.041902
754.3548	0.040214
754.5894	0.040361
754.8239	0.041860
755.0585	0.038568
755.2931	0.041501
755.5278	0.043041
755.7624	0.042303
755.9970	0.043991
756.2317	0.045785
756.4663	0.050237
756.7010	0.048402
756.9356	0.050449
757.1703	0.052939
757.4050	0.055281
757.6397	0.059354
757.8744	0.059248
758.1091	0.058383
758.3438	0.056990
758.5786	0.052263
758.8133	0.054289
759.0481	0.055007
759.2828	0.055028
759.5176	0.058172
759.7524	0.056695
759.9872	0.059966
760.2220	0.059966
760.4568	0.065347
760.6916	0.061084
760.9264	0.064208
761.1613	0.060494
761.3961	0.058067
761.6310	0.053698
761.8658	0.052073
762.1007	0.048423
762.3356	0.048486
762.5705	0.048634
762.8054	0.048992
763.0403	0.047979
763.2752	0.048085
763.5101	0.048296
763.7450	0.050343
763.9800	0.049161
764.2149	0.049520
764.4499	0.056885
764.6849	0.054163
764.9198	0.057919
765.1548	0.059523
765.3898	0.055239
765.6248	0.054859
765.8599	0.053382
766.0949	0.049436
766.3299	0.047114
766.5650	0.043084
766.8000	0.041438
767.0351	0.039116
767.2701	0.037344
767.5052	0.039032
767.7403	0.037090
767.9754	0.041290
768.2105	0.043527
768.4456	0.043295
768.6808	0.047304
768.9159	0.047874
769.1510	0.048655
769.3862	0.048148
769.6214	0.044751
769.8565	0.043949
770.0917	0.044856
770.3269	0.044730
770.5621	0.043337
770.7973	0.045384
771.0325	0.048317
771.2677	0.049182
771.5030	0.048613
771.7382	0.044772
771.9735	0.043105
772.2087	0.041522
772.4440	0.038800
772.6793	0.039369
772.9146	0.040952
773.1499	0.037027
773.3852	0.039665
773.6205	0.035993
773.8558	0.037597
774.0911	0.036225
774.3265	0.033503
774.5618	0.032553
774.7972	0.032194
775.0326	0.030654
775.2679	0.030548
775.5033	0.030717
775.7387	0.028881
775.9741	0.025716
776.2095	0.025652
776.4450	0.024112
776.6804	0.025864
776.9158	0.023479
777.1513	0.024365
777.3868	0.023648
777.6222	0.025484
777.8577	0.025505
778.0932	0.023690
778.3287	0.024154
778.5642	0.025990
778.7997	0.027932
779.0352	0.029240
779.2707	0.030190
779.5063	0.032511
779.7418	0.031540
779.9774	0.030316
780.2130	0.028037
780.4485	0.028565
780.6841	0.027488
780.9197	0.030485
781.1553	0.034305
781.3909	0.036077
781.6265	0.038272
781.8622	0.036077
782.0978	0.034706
782.3335	0.035529
782.5691	0.034263
782.8048	0.035402
783.0405	0.032173
783.2761	0.032490
783.5118	0.035064
783.7475	0.033714
783.9832	0.034241
784.2190	0.031477
784.4547	0.030063
784.6904	0.028185
784.9262	0.026412
785.1619	0.028016
785.3977	0.027109
785.6335	0.029831
785.8692	0.028290
786.1050	0.030105
786.3408	0.029282
786.5766	0.029493
786.8124	0.026876
787.0483	0.026328
787.2841	0.029557
787.5199	0.028333
787.7558	0.029704
787.9917	0.030021
788.2275	0.029303
788.4634	0.030717
788.6993	0.030633
788.9352	0.030591
789.1711	0.032279
789.4070	0.030633
789.6429	0.027552
789.8789	0.025990
790.1148	0.026750
790.3507	0.027425
790.5867	0.025146
790.8227	0.025188
791.0586	0.025927
791.2946	0.023922
791.5306	0.023036
791.7666	0.021917
792.0026	0.024365
792.2387	0.022867
792.4747	0.021601
792.7107	0.021601
792.9468	0.021727
793.1828	0.022170
793.4189	0.022360
793.6550	0.021685
793.8910	0.025906
794.1271	0.029282
794.3632	0.031287
794.5993	0.029725
794.8355	0.030316
795.0716	0.032764
795.3077	0.030380
795.5439	0.031899
795.7800	0.030084
796.0162	0.024766
796.2523	0.023268
796.4885	0.021812
796.7247	0.021347
796.9609	0.019406
797.1971	0.021643
797.4333	0.023162
797.6695	0.020757
797.9058	0.023859
798.1420	0.022339
798.3783	0.023183
798.6145	0.022930
798.8508	0.023099
799.0871	0.022656
799.3233	0.021305
799.5596	0.022107
799.7959	0.021052
800.0322	0.020546
800.2686	0.019089
800.5049	0.018414
800.7412	0.018013
800.9776	0.018414
801.2139	0.018773
801.4503	0.017950
801.6867	0.021263
801.9230	0.017465
802.1594	0.018119
802.3958	0.017169
802.6322	0.016177
802.8686	0.015840
803.1051	0.014130
803.3415	0.018921
803.5779	0.017359
803.8144	0.017802
804.0508	0.017612
804.2873	0.015924
804.5238	0.015734
804.7603	0.015059
804.9968	0.015017
805.2333	0.017169
805.4698	0.016283
805.7063	0.016874
805.9428	0.019807
806.1794	0.022192
806.4159	0.022825
806.6525	0.024239
806.8890	0.023584
807.1256	0.024450
807.3622	0.022930
807.5988	0.022234
807.8354	0.021474
808.0720	0.022846
808.3086	0.023015
808.5452	0.022403
808.7818	0.023627
809.0185	0.024091
809.2551	0.022656
809.4918	0.019448
809.7284	0.019997
809.9651	0.021094
810.2018	0.018034
810.4385	0.018731
810.6752	0.017549
810.9119	0.017908
811.1486	0.019195
811.3853	0.018857
811.6221	0.018013
811.8588	0.016346
812.0956	0.016768
812.3323	0.014573
812.5691	0.015903
812.8059	0.013497
813.0427	0.014932
813.2795	0.012991
813.5163	0.015629
813.7531	0.016008
813.9899	0.019279
814.2267	0.018921
814.4636	0.018794
814.7004	0.017633
814.9373	0.018034
815.1742	0.016262
815.4110	0.016304
815.6479	0.015607
815.8848	0.015502
816.1217	0.014383
816.3586	0.013328
816.5955	0.015249
816.8324	0.013518
817.0694	0.012358
817.3063	0.015924
817.5433	0.015671
817.7802	0.014405
818.0172	0.013771
818.2542	0.013582
818.4912	0.013539
818.7282	0.012780
818.9652	0.013371
819.2022	0.012526
819.4392	0.011682
819.6762	0.012442
819.9133	0.012231
820.1503	0.012400
820.3874	0.014172
820.6244	0.012970
820.8615	0.016177
821.0986	0.015692
821.3357	0.015396
821.5727	0.014742
821.8099	0.014025
822.0470	0.013349
822.2841	0.013835
822.5212	0.012210
822.7584	0.013455
822.9955	0.011893
823.2327	0.011703
823.4698	0.012104
823.7070	0.011598
823.9442	0.009234
824.1814	0.009593
824.4186	0.011260
824.6558	0.010184
824.8930	0.013392
825.1302	0.012822
825.3675	0.012948
825.6047	0.012421
825.8419	0.014489
826.0792	0.012104
826.3165	0.012780
826.5537	0.012611
826.7910	0.012716
827.0283	0.011450
827.2656	0.013371
827.5029	0.012653
827.7402	0.013202
827.9776	0.014468
828.2149	0.012653
828.4522	0.010965
828.6896	0.009952
828.9270	0.012548
829.1643	0.012484
829.4017	0.011830
829.6391	0.011471
829.8765	0.012315
830.1139	0.011809
830.3513	0.010838
830.5887	0.009488
830.8261	0.008369
831.0636	0.009171
831.3010	0.009509
831.5385	0.009087
831.7759	0.009635
832.0134	0.006871
832.2509	0.007462
832.4884	0.008622
832.7259	0.008369
832.9634	0.007715
833.2009	0.011239
833.4384	0.008242
833.6759	0.009804
833.9135	0.009044
834.1510	0.011112
834.3886	0.010775
834.6261	0.010690
834.8637	0.009530
835.1013	0.010142
835.3389	0.009699
835.5765	0.009635
835.8141	0.009720
836.0517	0.009488
836.2893	0.009699
836.5269	0.009783
836.7646	0.008285
837.0022	0.007293
837.2399	0.006807
837.4775	0.006934
837.7152	0.006006
837.9529	0.006681
838.1906	0.007441
838.4283	0.006048
838.6660	0.006132
838.9037	0.006913
839.1414	0.006512
839.3791	0.007082
839.6169	0.005942
839.8546	0.007820
840.0924	0.007989
840.3302	0.005963
840.5679	0.006512
840.8057	0.008179
841.0435	0.008390
841.2813	0.007652
841.5191	0.006301
841.7569	0.006618
841.9947	0.007040
842.2326	0.006111
842.4704	0.004866
842.7082	0.006048
842.9461	0.006554
843.1840	0.005267
843.4218	0.005984
843.6597	0.004022
843.8976	0.005288
844.1355	0.006470
844.3734	0.004528
844.6113	0.004950
844.8492	0.004655
845.0872	0.004929
845.3251	0.005731
845.5631	0.005520
845.8010	0.005098
846.0390	0.004993
846.2770	0.004465
846.5149	0.005900
846.7529	0.004233
846.9909	0.005288
847.2289	0.003832
847.4669	0.004676
847.7050	0.004866
847.9430	0.005562
848.1810	0.005225
848.4191	0.006006
848.6571	0.002988
848.8952	0.004423
849.1333	0.004908
849.3713	0.004760
849.6094	0.005752
849.8475	0.005963
850.0856	0.004233
850.3237	0.004866
850.5619	0.004993
850.8000	0.004106
851.0381	0.004803
851.2763	0.004043
851.5144	0.005457
851.7526	0.004908
851.9908	0.006027
852.2289	0.006913
852.4671	0.007652
852.7053	0.007926
852.9435	0.009213
853.1817	0.011556
853.4200	0.013181
853.6582	0.014658
853.8964	0.015270
854.1347	0.013666
854.3729	0.013814
854.6112	0.015565
854.8495	0.014911
855.0877	0.013560
855.3260	0.013603
855.5643	0.011830
855.8026	0.011112
856.0409	0.011682
856.2792	0.011914
856.5176	0.013054
856.7559	0.012210
856.9942	0.011028
857.2326	0.011387
857.4710	0.010564
857.7093	0.009762
857.9477	0.010247
858.1861	0.010247
858.4245	0.009087
858.6629	0.009867
858.9013	0.009973
859.1397	0.009867
859.3781	0.009066
859.6166	0.009044
859.8550	0.008728
860.0935	0.007546
860.3319	0.007377
860.5704	0.005394
860.8089	0.006618
861.0473	0.005858
861.2858	0.007019
861.5243	0.004972
861.7628	0.005921
862.0013	0.007398
862.2399	0.006069
862.4784	0.005288
862.7169	0.005035
862.9555	0.005394
863.1940	0.005816
863.4326	0.006639
863.6712	0.009002
863.9098	0.006533
864.1483	0.006090
864.3869	0.005858
864.6255	0.005077
864.8642	0.005900
865.1028	0.007272
865.3414	0.004655
865.5800	0.006132
865.8187	0.004549
866.0573	0.004170
866.2960	0.005858
866.5347	0.004613
866.7733	0.004803
867.0120	0.005647
867.2507	0.004507
867.4894	0.005942
867.7281	0.005541
867.9669	0.005605
868.2056	0.004634
868.4443	0.005077
868.6831	0.004549
868.9218	0.005605
869.1606	0.003494
869.3993	0.005014
869.6381	0.003980
869.8769	0.004465
870.1157	0.004634
870.3545	0.005752
870.5933	0.005457
870.8321	0.005752
871.0709	0.005394
871.3097	0.006111
871.5486	0.004972
871.7874	0.004465
872.0263	0.005014
872.2651	0.005140
872.5040	0.004676
872.7429	0.004866
872.9818	0.004760
873.2207	0.006407
873.4596	0.004022
873.6985	0.005394
873.9374	0.003937
874.1763	0.006217
874.4153	0.005351
874.6542	0.004064
874.8932	0.006027
875.1321	0.005731
875.3711	0.005921
875.6101	0.006174
875.8491	0.005415
876.0880	0.005984
876.3270	0.004043
876.5661	0.004296
876.8051	0.004782
877.0441	0.005415
877.2831	0.005605
877.5222	0.004972
877.7612	0.005035
878.0003	0.006871
878.2393	0.007588
878.4784	0.006407
878.7175	0.006364
878.9566	0.006132
879.1957	0.008369
879.4348	0.007335
879.6739	0.008369
879.9130	0.008559
880.1521	0.008665
880.3913	0.008411
880.6304	0.008897
880.8696	0.006807
881.1087	0.008475
881.3479	0.006280
881.5871	0.006596
881.8262	0.005942
882.0654	0.007631
882.3046	0.006259
882.5438	0.005731
882.7831	0.004655
883.0223	0.007293
883.2615	0.005140
883.5007	0.007040
883.7400	0.004528
883.9792	0.006195
884.2185	0.004528
884.4578	0.004613
884.6971	0.005710
884.9363	0.005921
885.1756	0.007124
885.4149	0.005457
885.6542	0.006765
885.8936	0.007947
886.1329	0.005668
886.3722	0.006997
886.6116	0.004739
886.8509	0.005647
887.0903	0.005900
887.3296	0.006575
887.5690	0.004887
887.8084	0.006491
888.0478	0.006639
888.2872	0.006681
888.5266	0.005394
888.7660	0.005140
889.0054	0.004782
889.2448	0.005668
889.4843	0.006132
889.7237	0.005900
889.9632	0.004782
890.2026	0.005351
890.4421	0.003769
890.6816	0.004866
890.9211	0.005098
891.1606	0.006090
891.4001	0.004507
891.6396	0.004866
891.8791	0.005161
892.1186	0.004486
892.3581	0.003790
892.5977	0.003726
892.8372	0.003895
893.0768	0.005225
893.3163	0.005942
893.5559	0.003558
893.7955	0.004338
894.0351	0.004655
894.2747	0.004170
894.5143	0.004423
894.7539	0.003558
894.9935	0.003663
895.2331	0.004993
895.4727	0.003790
895.7124	0.003072
895.9520	0.004993
896.1917	0.005879
896.4314	0.005225
896.6710	0.005647
896.9107	0.003515
897.1504	0.005520
897.3901	0.004866
897.6298	0.004043
897.8695	0.004507
898.1092	0.002587
898.3489	0.004127
898.5887	0.004972
898.8284	0.004676
899.0682	0.004022
899.3079	0.005795
899.5477	0.004191
899.7875	0.004507
900.0272	0.003937
900.2670	0.004296
900.5068	0.003537
900.7466	0.004993
900.9864	0.004149
901.2263	0.003642
901.4661	0.003579
901.7059	0.003748
901.9458	0.002566
902.1856	0.004338
902.4255	0.003262
902.6654	0.004296
902.9052	0.004212
903.1451	0.003579
903.3850	0.003579
903.6249	0.004170
903.8648	0.004170
904.1047	0.004528
904.3446	0.002017
904.5846	0.003937
904.8245	0.003368
905.0644	0.005394
905.3044	0.005309
905.5444	0.006512
905.7843	0.005394
906.0243	0.007356
906.2643	0.005183
906.5043	0.004803
906.7443	0.005035
906.9843	0.004170
907.2243	0.003895
907.4643	0.004360
907.7043	0.004528
907.9444	0.004782
908.1844	0.004845
908.4245	0.005267
908.6645	0.005795
908.9046	0.003431
909.1447	0.002566
909.3847	0.003790
909.6248	0.003790
909.8649	0.004592
910.1050	0.003874
910.3452	0.003114
910.5853	0.002967
910.8254	0.004085
911.0655	0.001595
911.3057	0.003748
911.5458	0.003916
911.7860	0.003558
912.0262	0.002819
912.2663	0.005140
912.5065	0.003199
912.7467	0.002988
912.9869	0.003853
913.2271	0.003157
913.4673	0.003114
913.7075	0.003895
913.9478	0.004465
914.1880	0.002819
914.4283	0.004149
914.6685	0.002545
914.9088	0.002988
915.1490	0.003347
915.3893	0.001996
915.6296	0.002650
915.8699	0.004760
916.1102	0.003368
916.3505	0.003579
916.5908	0.003853
916.8311	0.002840
917.0714	0.005077
917.3118	0.004381
917.5521	0.004212
917.7925	0.004127
918.0328	0.004444
918.2732	0.003705
918.5136	0.003853
918.7539	0.002903
918.9943	0.003811
919.2347	0.004655
919.4751	0.003600
919.7155	0.002587
919.9560	0.003748
920.1964	0.003473
920.4368	0.003874
920.6773	0.003537
920.9177	0.003262
921.1582	0.002566
921.3986	0.003389
921.6391	0.002798
921.8796	0.002524
922.1201	0.002566
922.3606	0.003051
922.6011	0.001848
922.8416	0.003726
923.0821	0.004760
923.3226	0.003199
923.5631	0.003537
923.8037	0.002650
924.0442	0.002102
924.2848	0.002671
924.5254	0.002629
924.7659	0.004170
925.0065	0.002861
925.2471	0.002165
925.4877	0.002713
925.7283	0.001933
925.9689	0.002713
926.2095	0.003579
926.4501	0.002334
926.6908	0.004360
926.9314	0.003030
927.1720	0.002524
927.4127	0.001912
927.6533	0.001532
927.8940	0.001975
928.1347	0.003473
928.3754	0.003114
928.6161	0.002946
928.8568	0.001679
929.0975	0.002376
929.3382	0.002207
929.5789	0.002123
929.8196	0.002102
930.0604	0.002038
930.3011	0.003199
930.5419	0.003473
930.7826	0.002861
931.0234	0.003684
931.2642	0.001637
931.5049	0.002334
931.7457	0.003684
931.9865	0.002566
932.2273	0.002418
932.4681	0.002713
932.7089	0.000667
932.9498	0.001701
933.1906	0.001764
933.4314	0.004149
933.6723	0.002988
933.9131	0.002566
934.1540	0.003410
934.3949	0.002207
934.6358	0.001848
934.8766	0.001257
935.1175	0.001110
935.3584	0.001764
935.5993	0.002017
935.8403	0.000645
936.0812	0.000899
936.3221	0.001553
936.5630	0.002650
936.8040	0.002671
937.0449	0.001743
937.2859	0.001468
937.5269	0.002059
937.7678	0.001447
938.0088	0.001890
938.2498	0.001511
938.4908	0.002186
938.7318	0.001110
938.9728	0.002038
939.2138	0.001869
939.4549	0.001975
939.6959	0.001996
939.9369	0.003199
940.1780	0.001215
940.4190	0.001553
940.6601	-0.000199
940.9012	0.001912
941.1422	0.001933
941.3833	0.000287
941.6244	0.001954
941.8655	0.000645
942.1066	0.001490
942.3477	0.001089
942.5889	-0.000114
942.8300	0.000920
943.0711	0.000118
943.3123	0.000645
943.5534	0.000455
943.7946	0.001890
944.0357	0.001300
944.2769	0.000329
944.5181	0.000540
944.7593	0.000709
945.0005	-0.000030
945.2417	0.001046
945.4829	0.000055
945.7241	0.001574
945.9653	0.000181
946.2066	0.002334
946.4478	0.000856
946.6891	0.001468
946.9303	0.000878
947.1716	0.000097
947.4128	0.000477
947.6541	0.001785
947.8954	0.000856
948.1367	0.002502
948.3780	0.001004
948.6193	0.000772
948.8606	-0.001127
949.1019	0.000540
949.3433	0.001067
949.5846	0.000455
949.8259	0.001110
950.0673	0.001363
950.3086	-0.000304
950.5500	-0.000093
950.7914	0.001848
951.0327	0.001004
951.2741	0.000688
951.5155	0.002671
951.7569	0.001574
951.9983	0.001743
952.2398	-0.000874
952.4812	0.001152
952.7226	0.001595
952.9640	0.003009
953.2055	0.002123
953.4469	0.001278
953.6884	0.002439
953.9299	0.002355
954.1713	0.001405
954.4128	0.001595
954.6543	-0.000241
954.8958	0.000329
955.1373	0.001933
955.3788	0.000645
955.6203	0.001152
955.8618	0.001194
956.1034	0.000983
956.3449	0.000287
956.5865	0.000540
956.8280	0.002502
957.0696	0.002165
957.3111	-0.000051
957.5527	0.001067
957.7943	0.000751
958.0359	0.000519
958.2775	0.001722
958.5191	0.000434
958.7607	0.000540
959.0023	-0.000262
959.2439	0.000223
959.4856	0.000878
959.7272	0.000856
959.9688	0.001743
960.2105	0.000772
960.4522	-0.000684
960.6938	0.001110
960.9355	0.000033
961.1772	0.001637
961.4189	0.000076
961.6606	-0.000368
961.9023	0.000878
962.1440	0.000160
962.3857	0.000793
962.6274	0.000413
962.8692	-0.000051
963.1109	0.001637
963.3527	-0.000663
963.5944	0.000308
963.8362	0.001806
964.0779	0.000287
964.3197	0.000308
964.5615	0.000603
964.8033	0.001215
965.0451	0.001194
965.2869	0.000856
965.5287	0.001848
965.7705	0.000519
966.0123	0.001342
966.2542	0.000519
966.4960	0.001975
966.7379	0.000920
966.9797	0.001194
967.2216	0.000878
967.4634	0.000688
967.7053	-0.000072
967.9472	-0.000346
968.1891	0.000434
968.4310	0.000455
968.6729	0.001194
968.9148	0.001215
969.1567	0.000160
969.3987	0.001679
969.6406	0.000413
969.8825	0.001468
970.1245	-0.000494
970.3664	0.000941
970.6084	0.000835
970.8504	0.002165
971.0923	0.000266
971.3343	0.000603
971.5763	0.001511
971.8183	0.000561
972.0603	0.000856
972.3023	0.000540
972.5443	-0.000325
972.7864	-0.000093
973.0284	0.001321
973.2704	0.001236
973.5125	0.000139
973.7545	0.001468
973.9966	0.001405
974.2387	0.000266
974.4807	0.000287
974.7228	0.000772
974.9649	-0.000790
975.2070	0.000962
975.4491	-0.000895
975.6912	-0.000135
975.9333	-0.000262
976.1755	0.001342
976.4176	0.000561
976.6597	0.000561
976.9019	0.000899
977.1440	0.001426
977.3862	0.001257
977.6283	0.001300
977.8705	0.000223
978.1127	0.000962
978.3549	-0.000368
978.5971	0.001236
978.8393	-0.000832
979.0815	0.000667
979.3237	0.000751
979.5659	0.001405
979.8082	0.000055
980.0504	0.000455
980.2926	0.000434
980.5349	0.000160
980.7771	0.000878
981.0194	0.000055
981.2617	0.000645
981.5040	0.001046
981.7462	0.000033
981.9885	0.000667
982.2308	0.000413
982.4731	0.000455
982.7155	0.000308
982.9578	0.000772
983.2001	0.000266
983.4424	-0.000262
983.6848	-0.000853
983.9271	0.000899
984.1695	0.001278
984.4118	0.000962
984.6542	0.001004
984.8966	-0.000769
985.1390	0.001384
985.3814	0.001890
985.6238	0.000076
985.8662	0.001806
986.1086	0.000287
986.3510	0.001067
986.5934	0.000181
986.8358	0.000730
987.0783	-0.000600
987.3207	-0.000072
987.5632	0.000667
987.8056	0.000751
988.0481	-0.000262
988.2906	0.001173
988.5331	0.001300
988.7756	-0.000600
989.0180	-0.000241
989.2605	0.001426
989.5031	0.001004
989.7456	0.000498
989.9881	0.000202
990.2306	0.000139
990.4732	-0.000642
990.7157	0.001447
990.9582	-0.000431
991.2008	0.001110
991.4434	0.000287
991.6859	0.001764
991.9285	-0.000557
992.1711	-0.000600
992.4137	0.001532
992.6563	0.001089
992.8989	-0.000811
993.1415	-0.000241
993.3841	-0.000114
993.6267	0.001173
993.8694	0.000202
994.1120	0.000751
994.3547	0.000920
994.5973	-0.000283
994.8400	-0.000473
995.0826	0.000329
995.3253	0.000371
995.5680	0.000624
995.8107	0.001785
996.0534	0.000287
996.2961	0.000582
996.5388	-0.000093
996.7815	0.000878
997.0242	0.001363
997.2670	-0.001402
997.5097	-0.000030
997.7524	-0.000093
997.9952	-0.000135
998.2379	0.000371
998.4807	0.000350
998.7235	-0.000093
998.9662	0.000582
999.2090	0.000498
999.4518	0.000181
999.6946	0.000540
999.9374	-0.000304
1000.1802	-0.000410
1000.4230	-0.000389
1000.6659	0.000835
1000.9087	-0.000030
1001.1515	0.001764
1001.3944	-0.000114
1001.6372	0.002313
1001.8801	-0.000178
1002.1230	0.000392
1002.3658	0.001827
1002.6087	0.001152
1002.8516	-0.000283
1003.0945	0.001278
1003.3374	-0.000705
1003.5803	-0.000093
1003.8232	-0.000600
1004.0661	0.000076
1004.3091	0.001743
1004.5520	-0.000684
1004.7949	-0.000220
1005.0379	0.000350
1005.2808	0.000223
1005.5238	0.000983
1005.7667	-0.000684
1006.0097	-0.000051
1006.2527	0.000287
1006.4957	0.000223
1006.7387	0.000012
1006.9817	0.001363
1007.2247	0.000582
1007.4677	0.000856
1007.7107	0.001194
1007.9538	-0.000072
1008.1968	0.000076
1008.4398	0.000603
1008.6829	0.000139
1008.9259	-0.000642
1009.1690	-0.000346
1009.4121	0.000920
1009.6551	0.000118
1009.8982	-0.000283
1010.1413	0.000413
1010.3844	0.001131
1010.6275	-0.000769
1010.8706	0.001363
1011.1137	-0.000494
1011.3568	0.001532
1011.6000	-0.000283
1011.8431	-0.000663
1012.0863	0.000582
1012.3294	0.001236
1012.5726	0.001131
1012.8157	-0.000157
1013.0589	0.000202
1013.3021	0.000772
1013.5452	-0.000515
1013.7884	0.000645
1014.0316	-0.000958
1014.2748	-0.000811
1014.5180	0.000266
1014.7613	0.000582
1015.0045	-0.000557
1015.2477	-0.000114
1015.4909	0.001321
1015.7342	0.000730
1015.9774	0.000287
1016.2207	0.000329
1016.4640	-0.001402
1016.7072	0.001490
1016.9505	-0.000494
1017.1938	0.000329
1017.4371	-0.000304
1017.6804	0.000709
1017.9237	0.000287
1018.1670	-0.000093
1018.4103	-0.001127
1018.6536	0.001004
1018.8969	0.001321
1019.1403	0.000645
1019.3836	-0.000051
1019.6270	0.001236
1019.8703	0.001046
1020.1137	-0.000009
1020.3571	-0.000410
1020.6004	-0.000114
1020.8438	-0.000199
1021.0872	-0.000579
1021.3306	0.000962
1021.5740	0.000455
1021.8174	-0.001022
1022.0608	0.000118
1022.3042	-0.000135
1022.5477	-0.000325
1022.7911	-0.000325
1023.0345	0.000730
