# Wavelength (nm)	Intensity (a.u.)
197.7802	0.001033
197.9842	0.000717
198.1882	0.001835
198.3922	0.001012
198.5963	0.002172
198.8003	0.000127
199.0044	0.001413
199.2085	0.000211
199.4126	0.002236
199.6168	0.000295
199.8209	0.002151
200.0251	0.000675
200.2292	0.000337
200.4334	-0.000443
200.6376	0.000443
200.8418	0.000654
201.0461	0.001118
201.2503	-0.000675
201.4546	0.001856
201.6589	0.001308
201.8631	0.000991
202.0674	0.000443
202.2718	0.001561
202.4761	0.001076
202.6805	0.002151
202.8848	0.000105
203.0892	0.001350
203.2936	0.000970
203.4980	0.000443
203.7024	0.001181
203.9069	0.001202
204.1113	0.000527
204.3158	0.001118
204.5203	0.001413
204.7248	0.000253
204.9293	0.000991
205.1338	0.001371
205.3384	0.000759
205.5430	0.001076
205.7475	0.000021
205.9521	0.001244
206.1567	0.000295
206.3614	0.001582
206.5660	0.000274
206.7706	0.001392
206.9753	0.000169
207.1800	0.000612
207.3847	0.000801
207.5894	0.000359
207.7941	0.000063
207.9989	0.000548
208.2036	0.000949
208.4084	0.001097
208.6132	0.000569
208.8180	0.001476
209.0228	0.000169
209.2276	0.002678
209.4325	0.000295
209.6373	0.000569
209.8422	-0.000295
210.0471	0.001519
210.2520	0.002594
210.4569	0.001835
210.6618	0.000084
210.8668	0.001476
211.0718	0.000907
211.2767	0.002320
211.4817	0.001139
211.6867	0.000949
211.8918	-0.000823
212.0968	0.001118
212.3018	0.001708
212.5069	0.001223
212.7120	0.000717
212.9171	0.001139
213.1222	-0.000042
213.3273	0.000401
213.5325	0.000485
213.7376	0.003121
213.9428	0.001033
214.1480	0.001772
214.3532	0.000464
214.5584	0.002805
214.7636	0.000000
214.9689	0.001371
215.1741	0.001055
215.3794	0.000907
215.5847	0.000823
215.7900	0.001497
215.9953	-0.001265
216.2007	0.002236
216.4060	0.000274
216.6114	0.000527
216.8168	0.000337
217.0222	0.000063
217.2276	0.000717
217.4330	0.001139
217.6384	0.001561
217.8439	0.000654
218.0494	0.001371
218.2548	0.001751
218.4603	-0.000127
218.6659	0.002109
218.8714	0.000844
219.0769	0.000654
219.2825	0.000485
219.4881	0.001181
219.6936	0.000928
219.8992	0.001455
220.1049	-0.000042
220.3105	-0.000063
220.5161	0.000359
220.7218	0.000907
220.9275	0.001476
221.1332	0.001097
221.3389	0.000907
221.5446	0.000907
221.7503	0.000443
221.9561	0.002109
222.1618	0.000654
222.3676	0.000928
222.5734	-0.000084
222.7792	0.001287
222.9850	0.001666
223.1909	0.000591
223.3967	0.001476
223.6026	0.001287
223.8085	0.002404
224.0144	0.001308
224.2203	0.000591
224.4262	0.000949
224.6322	0.002214
224.8381	0.002193
225.0441	-0.000021
225.2501	0.000485
225.4561	0.000190
225.6621	0.002151
225.8681	0.001181
226.0742	0.001308
226.2802	0.001139
226.4863	0.001540
226.6924	0.000633
226.8985	0.001476
227.1046	-0.000021
227.3107	0.001519
227.5169	0.001181
227.7230	0.000527
227.9292	0.001350
228.1354	0.000464
228.3416	-0.000274
228.5478	0.001898
228.7541	0.000865
228.9603	0.000548
229.1666	0.000970
229.3729	0.001476
229.5791	0.000380
229.7855	0.000380
229.9918	0.000801
230.1981	0.001012
230.4045	0.000759
230.6108	0.000949
230.8172	0.000823
231.0236	0.002257
231.2300	-0.000295
231.4364	0.000823
231.6429	0.000907
231.8493	0.000823
232.0558	-0.000295
232.2623	0.002657
232.4688	0.001202
232.6753	-0.000717
232.8818	0.000084
233.0884	0.001223
233.2949	0.001118
233.5015	0.000105
233.7081	-0.001497
233.9147	0.000675
234.1213	0.001287
234.3279	0.000422
234.5346	0.000253
234.7413	0.001160
234.9479	0.000000
235.1546	0.000548
235.3613	0.000548
235.5680	0.002636
235.7748	0.000000
235.9815	0.000042
236.1883	0.000148
236.3951	0.002067
236.6018	0.000232
236.8087	0.002362
237.0155	0.000190
237.2223	0.001371
237.4292	0.002489
237.6360	0.000949
237.8429	-0.000190
238.0498	0.001055
238.2567	0.000506
238.4636	0.001540
238.6706	0.000907
238.8775	0.001181
239.0845	0.000464
239.2915	0.000844
239.4985	0.000000
239.7055	0.001582
239.9125	0.000717
240.1195	0.001392
240.3266	0.000042
240.5337	0.002067
240.7407	0.000105
240.9478	0.000401
241.1549	0.000801
241.3621	0.000654
241.5692	0.000612
241.7764	0.002088
241.9835	0.000464
242.1907	0.000696
242.3979	0.000970
242.6051	-0.000527
242.8124	0.000127
243.0196	0.001223
243.2269	0.001603
243.4341	0.001308
243.6414	0.000232
243.8487	0.002468
244.0560	0.001687
244.2634	0.001624
244.4707	0.001729
244.6781	0.001413
244.8854	0.001012
245.0928	0.002636
245.3002	0.000759
245.5076	0.002826
245.7151	0.000127
245.9225	0.000548
246.1300	0.000485
246.3375	0.000907
246.5449	0.002552
246.7524	0.000886
246.9600	0.000316
247.1675	-0.000169
247.3750	0.000865
247.5826	0.001350
247.7902	0.001455
247.9978	0.001497
248.2054	0.000865
248.4130	0.000823
248.6206	0.000591
248.8283	0.001582
249.0359	0.000527
249.2436	0.000886
249.4513	0.001223
249.6590	0.001244
249.8667	0.000506
250.0745	0.000253
250.2822	0.001287
250.4900	0.001308
250.6978	-0.000063
250.9056	0.001076
251.1134	0.001687
251.3212	0.001729
251.5290	0.000569
251.7369	0.002109
251.9447	0.001371
252.1526	0.001982
252.3605	-0.000485
252.5684	0.002573
252.7763	0.001308
252.9843	0.000169
253.1922	0.000675
253.4002	0.001687
253.6082	-0.000401
253.8162	0.001160
254.0242	0.001751
254.2322	0.000738
254.4402	0.000696
254.6483	0.002193
254.8564	0.001118
255.0644	0.000253
255.2725	0.000823
255.4806	0.002151
255.6888	0.000844
255.8969	0.001287
256.1051	0.001012
256.3132	-0.000591
256.5214	0.000169
256.7296	0.002404
256.9378	0.002615
257.1460	0.000759
257.3543	0.001265
257.5625	0.001898
257.7708	0.001118
257.9791	0.000401
258.1874	-0.000021
258.3957	0.002805
258.6040	0.001497
258.8124	0.002067
259.0207	-0.000337
259.2291	-0.000527
259.4375	0.001012
259.6459	0.000801
259.8543	0.001413
260.0627	0.000485
260.2711	0.001055
260.4796	0.000295
260.6881	0.000696
260.8965	-0.000042
261.1050	0.001244
261.3135	0.000886
261.5221	0.000886
261.7306	0.000865
261.9392	0.000548
262.1477	0.001898
262.3563	0.001434
262.5649	0.002383
262.7735	-0.000443
262.9822	0.000084
263.1908	0.002236
263.3995	0.001940
263.6081	0.000738
263.8168	0.000612
264.0255	0.000211
264.2342	0.000717
264.4429	0.001033
264.6517	0.000886
264.8604	0.001645
265.0692	0.002446
265.2780	0.000190
265.4868	0.001476
265.6956	0.000928
265.9044	0.002130
266.1133	0.000422
266.3221	0.001729
266.5310	-0.000337
266.7399	0.001308
266.9488	0.001076
267.1577	0.001561
267.3666	0.000738
267.5755	0.001497
267.7845	0.000886
267.9935	0.000823
268.2024	0.002657
268.4114	-0.000380
268.6205	0.001329
268.8295	0.001076
269.0385	0.000084
269.2476	0.000485
269.4566	0.000591
269.6657	0.000169
269.8748	0.000738
270.0839	0.001308
270.2931	0.000886
270.5022	0.000527
270.7114	-0.000042
270.9205	0.002383
271.1297	-0.000084
271.3389	-0.000169
271.5481	0.000105
271.7573	0.000633
271.9666	0.000823
272.1758	0.001434
272.3851	0.001287
272.5944	0.000844
272.8037	-0.000232
273.0130	0.000654
273.2223	0.001118
273.4316	0.001097
273.6410	0.001202
273.8504	-0.000084
274.0597	0.000970
274.2691	0.002784
274.4785	0.000970
274.6880	0.000274
274.8974	0.000443
275.1069	0.001012
275.3163	0.001540
275.5258	0.000148
275.7353	0.001097
275.9448	0.002573
276.1543	0.000063
276.3639	0.000527
276.5734	0.000422
276.7830	0.001033
276.9926	0.001160
277.2022	0.000211
277.4118	0.000443
277.6214	0.001350
277.8310	0.000717
278.0407	0.000401
278.2503	0.000633
278.4600	0.001540
278.6697	-0.000380
278.8794	0.000527
279.0891	-0.000042
279.2989	0.001476
279.5086	0.001012
279.7184	0.001118
279.9281	-0.000527
280.1379	0.001287
280.3477	0.002446
280.5576	-0.000105
280.7674	-0.000464
280.9772	0.000042
281.1871	0.000780
281.3970	0.000865
281.6069	0.000274
281.8168	0.000865
282.0267	-0.000612
282.2366	0.001645
282.4466	0.000485
282.6565	0.000127
282.8665	0.000823
283.0765	0.002446
283.2865	0.001961
283.4965	0.000380
283.7065	0.000548
283.9166	0.000464
284.1266	0.001835
284.3367	0.001392
284.5468	0.000886
284.7569	0.001160
284.9670	0.000569
285.1771	0.000759
285.3873	0.001877
285.5974	0.001181
285.8076	0.001055
286.0178	0.002320
286.2280	-0.000148
286.4382	0.001940
286.6484	0.001097
286.8587	0.000970
287.0689	0.001160
287.2792	0.002172
287.4895	0.001202
287.6998	0.000190
287.9101	0.000422
288.1204	-0.000675
288.3308	0.001139
288.5411	0.000169
288.7515	-0.000127
288.9619	0.001666
289.1723	0.001645
289.3827	0.001012
289.5931	0.000633
289.8035	0.001793
290.0140	0.000253
290.2245	0.001940
290.4349	0.000464
290.6454	0.000844
290.8559	0.000021
291.0665	0.000464
291.2770	0.000949
291.4875	0.002341
291.6981	0.001308
291.9087	0.002383
292.1193	0.000316
292.3299	0.000084
292.5405	0.002025
292.7511	0.001160
292.9618	0.000801
293.1724	0.001519
293.3831	-0.000801
293.5938	0.002678
293.8045	0.000949
294.0152	0.000823
294.2260	0.000422
294.4367	0.001476
294.6475	-0.000422
294.8582	0.001413
295.0690	0.000569
295.2798	0.000675
295.4906	0.001308
295.7015	0.000865
295.9123	0.000591
296.1232	0.001265
296.3340	0.001751
296.5449	0.001940
296.7558	0.001835
296.9667	0.000316
297.1777	0.000253
297.3886	-0.000148
297.5995	0.000717
297.8105	0.000084
298.0215	-0.000021
298.2325	0.002552
298.4435	-0.000443
298.6545	-0.000084
298.8656	0.001033
299.0766	0.000780
299.2877	0.001012
299.4988	0.000569
299.7099	0.000380
299.9210	0.000569
300.1321	-0.000380
300.3432	0.001434
300.5544	0.001772
300.7655	0.001097
300.9767	0.000190
301.1879	-0.000211
301.3991	0.000127
301.6103	0.000591
301.8215	0.000949
302.0328	0.002299
302.2441	0.001751
302.4553	0.000865
302.6666	0.001202
302.8779	0.000295
303.0892	0.000359
303.3006	0.000316
303.5119	0.000211
303.7233	0.001308
303.9346	0.001603
304.1460	0.003037
304.3574	0.000633
304.5688	0.001582
304.7803	0.001835
304.9917	0.000295
305.2031	0.000970
305.4146	0.001371
305.6261	0.000633
305.8376	0.000717
306.0491	0.001392
306.2606	0.001772
306.4722	0.000823
306.6837	0.000316
306.8953	0.001434
307.1069	0.001603
307.3184	0.001982
307.5301	0.001181
307.7417	0.000548
307.9533	-0.001265
308.1650	0.001308
308.3766	-0.000105
308.5883	0.001392
308.8000	0.000232
309.0117	0.000548
309.2234	0.001940
309.4351	0.000422
309.6469	0.001033
309.8586	0.000949
310.0704	0.002109
310.2822	0.000464
310.4940	0.001202
310.7058	0.000464
310.9176	0.002974
311.1295	0.001012
311.3413	0.001308
311.5532	0.001497
311.7651	0.001181
311.9770	0.001751
312.1889	0.003796
312.4008	0.002257
312.6127	0.002214
312.8247	0.000780
313.0366	0.000907
313.2486	0.000548
313.4606	0.002151
313.6726	0.001561
313.8846	0.002193
314.0967	-0.000591
314.3087	0.001097
314.5208	0.002046
314.7328	0.001814
314.9449	0.001645
315.1570	0.000422
315.3692	0.002594
315.5813	0.002172
315.7934	0.001244
316.0056	0.002889
316.2177	0.002067
316.4299	0.001624
316.6421	0.001687
316.8543	0.001519
317.0666	0.002151
317.2788	0.002214
317.4911	0.002172
317.7033	0.000886
317.9156	0.000316
318.1279	0.001772
318.3402	-0.000548
318.5525	0.000991
318.7649	0.000654
318.9772	0.001033
319.1896	0.001645
319.4019	0.002425
319.6143	0.002151
319.8267	0.001940
320.0392	0.001139
320.2516	0.001202
320.4640	0.000548
320.6765	0.002425
320.8890	0.001434
321.1014	0.001835
321.3139	0.001687
321.5265	0.001708
321.7390	0.001033
321.9515	0.001982
322.1641	0.001118
322.3766	0.002510
322.5892	0.002805
322.8018	0.002573
323.0144	0.002721
323.2270	0.000928
323.4397	0.002974
323.6523	0.002425
323.8650	0.002236
324.0777	0.002742
324.2904	0.001645
324.5031	0.003016
324.7158	0.001497
324.9285	0.002109
325.1412	0.001982
325.3540	0.001877
325.5668	0.001919
325.7796	0.002573
325.9924	0.001308
326.2052	0.000970
326.4180	0.001856
326.6308	0.002847
326.8437	0.001919
327.0566	0.002953
327.2694	0.001919
327.4823	0.001982
327.6952	0.001919
327.9082	0.004788
328.1211	0.002109
328.3340	0.002826
328.5470	0.001835
328.7600	0.002763
328.9730	0.003185
329.1860	0.003923
329.3990	0.001814
329.6120	0.002552
329.8251	0.002130
330.0381	0.002742
330.2512	0.000928
330.4643	0.003290
330.6774	0.002847
330.8905	0.003332
331.1036	0.000970
331.3167	0.001877
331.5299	0.001877
331.7431	0.003965
331.9562	0.004028
332.1694	0.002362
332.3826	0.000633
332.5959	0.003923
332.8091	0.002510
333.0223	0.002404
333.2356	0.001097
333.4489	0.001708
333.6622	0.002067
333.8755	0.004661
334.0888	0.001814
334.3021	0.002721
334.5154	0.001329
334.7288	0.003712
334.9422	0.003396
335.1555	0.002446
335.3689	0.002404
335.5823	0.003438
335.7958	0.003269
336.0092	0.002657
336.2227	0.001898
336.4361	0.002552
336.6496	0.002889
336.8631	0.004028
337.0766	0.002404
337.2901	0.003100
337.5036	0.003332
337.7172	0.002889
337.9307	0.000780
338.1443	0.004070
338.3579	0.003417
338.5715	0.003775
338.7851	0.003374
338.9987	0.004302
339.2124	0.002130
339.4260	0.003501
339.6397	0.001519
339.8533	0.004302
340.0670	0.003754
340.2807	0.002953
340.4945	0.003079
340.7082	0.002278
340.9219	0.004092
341.1357	0.003142
341.3495	0.002657
341.5633	0.003754
341.7771	0.002826
341.9909	0.003227
342.2047	0.002341
342.4185	0.003332
342.6324	0.001856
342.8463	0.003417
343.0601	0.003522
343.2740	0.004872
343.4879	0.003501
343.7019	0.003480
343.9158	0.004155
344.1297	0.003501
344.3437	0.002594
344.5577	0.003754
344.7717	0.003965
344.9857	0.004007
345.1997	0.002425
345.4137	0.004324
345.6277	0.003396
345.8418	0.004070
346.0559	0.002784
346.2699	0.003585
346.4840	0.003206
346.6981	0.004007
346.9123	0.005652
347.1264	0.004092
347.3406	0.003775
347.5547	0.003417
347.7689	0.004176
347.9831	0.003185
348.1973	0.004092
348.4115	0.005062
348.6257	0.003248
348.8400	0.004302
349.0542	0.005020
349.2685	0.003227
349.4828	0.005610
349.6971	0.004134
349.9114	0.003944
350.1257	0.004007
350.3400	0.004302
350.5544	0.003881
350.7687	0.005104
350.9831	0.004661
351.1975	0.003459
351.4119	0.004070
351.6263	0.002721
351.8407	0.005315
352.0552	0.004366
352.2696	0.003944
352.4841	0.005273
352.6986	0.004703
352.9131	0.003902
353.1276	0.005209
353.3421	0.004092
353.5566	0.003838
353.7712	0.004640
353.9858	0.005547
354.2003	0.004977
354.4149	0.004577
354.6295	0.003417
354.8441	0.005336
355.0588	0.005167
355.2734	0.006222
355.4881	0.005715
355.7027	0.005441
355.9174	0.004851
356.1321	0.004619
356.3468	0.004851
356.5615	0.004956
356.7763	0.003986
356.9910	0.003417
357.2058	0.005378
357.4206	0.006327
357.6353	0.004935
357.8501	0.006665
358.0650	0.004302
358.2798	0.005146
358.4946	0.004872
358.7095	0.005800
358.9243	0.005357
359.1392	0.006201
359.3541	0.005758
359.5690	0.004049
359.7839	0.003417
359.9989	0.006390
360.2138	0.005990
360.4288	0.006517
360.6438	0.004239
360.8587	0.005336
361.0737	0.005990
361.2888	0.005779
361.5038	0.004830
361.7188	0.006116
361.9339	0.004703
362.1489	0.005568
362.3640	0.006665
362.5791	0.007382
362.7942	0.005483
363.0093	0.005294
363.2245	0.006981
363.4396	0.006665
363.6548	0.006496
363.8699	0.007782
364.0851	0.006306
364.3003	0.006854
364.5155	0.005694
364.7308	0.007846
364.9460	0.006475
365.1612	0.006179
365.3765	0.006791
365.5918	0.008879
365.8071	0.005800
366.0224	0.007445
366.2377	0.007487
366.4530	0.006770
366.6684	0.007951
366.8837	0.008225
367.0991	0.007297
367.3145	0.008352
367.5299	0.007614
367.7453	0.009069
367.9607	0.008162
368.1761	0.008710
368.3916	0.007782
368.6070	0.009997
368.8225	0.008710
369.0380	0.007445
369.2535	0.008647
369.4690	0.009006
369.6845	0.007719
369.9001	0.009617
370.1156	0.008563
370.3312	0.007825
370.5468	0.009470
370.7624	0.009849
370.9780	0.008647
371.1936	0.009090
371.4092	0.008563
371.6249	0.009069
371.8405	0.009533
372.0562	0.008647
372.2719	0.008605
372.4876	0.007972
372.7033	0.009955
372.9190	0.011051
373.1348	0.010756
373.3505	0.009512
373.5663	0.010039
373.7820	0.012401
373.9978	0.010587
374.2136	0.012612
374.4294	0.010925
374.6453	0.008584
374.8611	0.009891
375.0770	0.012190
375.2928	0.011811
375.5087	0.011895
375.7246	0.012696
375.9405	0.010904
376.1564	0.012633
376.3724	0.013013
376.5883	0.012549
376.8043	0.012739
377.0203	0.012401
377.2362	0.014299
377.4522	0.012612
377.6682	0.013667
377.8843	0.013730
378.1003	0.014278
378.3164	0.014004
378.5324	0.015101
378.7485	0.014025
378.9646	0.015059
379.1807	0.015164
379.3968	0.016493
379.6129	0.014932
379.8291	0.015544
380.0452	0.015438
380.2614	0.016261
380.4776	0.013835
380.6938	0.016682
380.9100	0.017294
381.1262	0.016218
381.3424	0.017210
381.5587	0.016429
381.7749	0.016936
381.9912	0.016914
382.2075	0.016303
382.4238	0.017716
382.6401	0.018096
382.8564	0.018475
383.0728	0.016767
383.2891	0.018222
383.5055	0.018728
383.7219	0.017990
383.9382	0.018918
384.1546	0.019319
384.3711	0.018074
384.5875	0.018665
384.8039	0.019466
385.0204	0.020774
385.2368	0.019213
385.4533	0.018159
385.6698	0.020205
385.8863	0.019614
386.1028	0.020605
386.3194	0.019361
386.5359	0.020669
386.7525	0.019635
386.9690	0.021491
387.1856	0.023684
387.4022	0.021322
387.6188	0.020964
387.8355	0.023537
388.0521	0.023263
388.2687	0.023031
388.4854	0.023305
388.7021	0.020985
388.9188	0.023263
389.1355	0.021217
389.3522	0.021175
389.5689	0.022440
389.7856	0.022482
390.0024	0.021175
390.2192	0.023537
390.4359	0.020943
390.6527	0.023389
390.8695	0.022588
391.0863	0.022989
391.3032	0.023663
391.5200	0.024338
391.7369	0.023621
391.9537	0.024887
392.1706	0.026321
392.3875	0.025119
392.6044	0.027122
392.8213	0.029126
393.0383	0.028936
393.2552	0.029632
393.4722	0.029147
393.6891	0.027228
393.9061	0.025435
394.1231	0.026574
394.3401	0.026890
394.5572	0.028704
394.7742	0.026194
394.9912	0.029295
395.2083	0.026679
395.4254	0.026953
395.6425	0.026996
395.8596	0.028809
396.0767	0.029189
396.2938	0.028852
396.5109	0.028219
396.7281	0.028135
396.9453	0.028978
397.1624	0.029716
397.3796	0.029632
397.5968	0.029716
397.8140	0.031509
398.0313	0.031066
398.2485	0.034398
398.4658	0.034293
398.6830	0.033470
398.9003	0.033238
399.1176	0.033302
399.3349	0.033238
399.5522	0.033998
399.7696	0.033070
399.9869	0.031825
400.2043	0.033449
400.4216	0.031572
400.6390	0.031678
400.8564	0.032711
401.0738	0.032015
401.2912	0.032268
401.5087	0.032648
401.7261	0.031235
401.9436	0.031235
402.1610	0.031741
402.3785	0.033365
402.5960	0.031530
402.8135	0.033006
403.0310	0.031256
403.2486	0.031572
403.4661	0.032268
403.6837	0.033702
403.9013	0.032374
404.1189	0.035537
404.3365	0.033428
404.5541	0.033871
404.7717	0.034272
404.9893	0.033702
405.2070	0.035242
405.4246	0.034377
405.6423	0.038300
405.8600	0.036845
406.0777	0.034905
406.2954	0.035221
406.5131	0.033070
406.7309	0.032142
406.9486	0.032289
407.1664	0.030433
407.3842	0.032121
407.6020	0.031446
407.8198	0.031404
408.0376	0.031593
408.2554	0.034251
408.4733	0.034968
408.6911	0.031741
408.9090	0.034757
409.1269	0.034588
409.3448	0.032500
409.5627	0.035242
409.7806	0.034947
409.9985	0.034504
410.2165	0.034968
410.4344	0.035748
410.6524	0.034715
410.8704	0.035643
411.0884	0.033112
411.3064	0.034061
411.5244	0.032564
411.7424	0.035221
411.9605	0.033217
412.1785	0.033934
412.3966	0.034377
412.6147	0.036022
412.8328	0.035643
413.0509	0.034609
413.2690	0.036360
413.4871	0.034926
413.7053	0.036360
413.9234	0.036571
414.1416	0.036486
414.3598	0.035685
414.5780	0.034609
414.7962	0.034377
415.0144	0.037604
415.2326	0.035579
415.4509	0.034609
415.6692	0.036212
415.8874	0.034989
416.1057	0.033913
416.3240	0.034715
416.5423	0.035411
416.7606	0.033513
416.9790	0.035284
417.1973	0.035727
417.4157	0.036803
417.6341	0.036254
417.8524	0.035495
418.0708	0.035073
418.2893	0.036739
418.5077	0.036022
418.7261	0.037920
418.9446	0.036866
419.1630	0.037414
419.3815	0.037140
419.6000	0.036571
419.8185	0.036571
420.0370	0.037583
420.2555	0.039334
420.4741	0.037435
420.6926	0.040641
420.9112	0.042392
421.1298	0.041126
421.3483	0.042624
421.5669	0.044332
421.7856	0.044121
422.0042	0.043172
422.2228	0.044227
422.4415	0.044290
422.6601	0.042139
422.8788	0.040831
423.0975	0.042708
423.3162	0.041653
423.5349	0.042645
423.7536	0.042750
423.9724	0.043362
424.1911	0.041211
424.4099	0.041189
424.6287	0.039144
424.8475	0.040704
425.0663	0.040177
425.2851	0.039249
425.5039	0.039481
425.7228	0.040599
425.9416	0.037583
426.1605	0.036824
426.3793	0.037478
426.5982	0.036339
426.8171	0.037731
427.0361	0.037457
427.2550	0.039608
427.4739	0.041042
427.6929	0.039059
427.9118	0.039861
428.1308	0.039819
428.3498	0.039249
428.5688	0.039587
428.7878	0.040304
429.0068	0.038110
429.2259	0.041696
429.4449	0.041738
429.6640	0.044754
429.8831	0.047981
430.1022	0.046673
430.3213	0.046019
430.5404	0.047074
430.7595	0.048065
430.9787	0.046061
431.1978	0.043868
431.4170	0.044627
431.6362	0.041485
431.8553	0.041970
432.0745	0.036950
432.2938	0.037857
432.5130	0.038068
432.7322	0.039608
432.9515	0.039840
433.1707	0.037731
433.3900	0.041211
433.6093	0.042371
433.8286	0.047875
434.0479	0.047390
434.2673	0.045724
434.4866	0.043214
434.7059	0.042117
434.9253	0.042265
435.1447	0.042518
435.3641	0.042518
435.5835	0.042075
435.8029	0.038469
436.0223	0.041949
436.2418	0.043657
436.4612	0.042286
436.6807	0.044353
436.9001	0.045450
437.1196	0.044227
437.3391	0.043805
437.5586	0.044184
437.7782	0.042497
437.9977	0.043720
438.2173	0.044922
438.4368	0.042413
438.6564	0.045597
438.8760	0.045956
439.0956	0.043552
439.3152	0.045576
439.5348	0.045450
439.7545	0.046399
439.9741	0.042223
440.1938	0.043826
440.4135	0.043847
440.6331	0.045281
440.8528	0.045956
441.0725	0.049162
441.2923	0.050047
441.5120	0.054603
441.7318	0.052726
441.9515	0.054287
442.1713	0.055172
442.3911	0.051988
442.6109	0.052852
442.8307	0.051819
443.0505	0.049457
443.2703	0.054287
443.4902	0.054519
443.7101	0.054202
443.9299	0.054919
444.1498	0.054455
444.3697	0.054076
444.5896	0.052410
444.8095	0.052325
445.0295	0.052515
445.2494	0.054223
445.4694	0.052156
445.6894	0.049014
445.9093	0.054012
446.1293	0.053823
446.3493	0.052916
446.5694	0.053274
446.7894	0.052220
447.0094	0.051271
447.2295	0.055046
447.4496	0.051903
447.6696	0.048023
447.8897	0.050997
448.1098	0.048508
448.3300	0.051671
448.5501	0.051988
448.7702	0.050216
448.9904	0.052388
449.2106	0.051967
449.4307	0.052684
449.6509	0.052410
449.8711	0.050680
450.0914	0.050511
450.3116	0.051250
450.5318	0.048318
450.7521	0.050912
450.9724	0.049984
451.1926	0.049815
451.4129	0.046715
451.6332	0.049583
451.8535	0.049267
452.0739	0.048339
452.2942	0.048044
452.5146	0.047010
452.7349	0.047453
452.9553	0.047706
453.1757	0.047053
453.3961	0.045893
453.6165	0.044817
453.8369	0.047116
454.0574	0.043910
454.2778	0.044437
454.4983	0.044501
454.7188	0.045471
454.9393	0.043995
455.1597	0.048381
455.3803	0.048445
455.6008	0.046357
455.8213	0.046146
456.0419	0.048719
456.2624	0.045872
456.4830	0.047221
456.7036	0.047074
456.9242	0.046399
457.1448	0.046800
457.3654	0.045956
457.5860	0.047200
457.8067	0.049879
458.0274	0.049373
458.2480	0.051693
458.4687	0.051861
458.6894	0.052135
458.9101	0.050849
459.1308	0.049773
459.3516	0.047812
459.5723	0.053591
459.7931	0.053190
460.0138	0.051608
460.2346	0.050174
460.4554	0.047791
460.6762	0.050153
460.8970	0.049225
461.1178	0.049373
461.3387	0.051882
461.5595	0.046399
461.7804	0.049562
462.0013	0.044922
462.2222	0.046040
462.4431	0.045471
462.6640	0.043088
462.8849	0.042202
463.1059	0.043552
463.3268	0.047032
463.5478	0.050279
463.7687	0.051714
463.9897	0.048824
464.2107	0.051271
464.4317	0.051777
464.6528	0.053316
464.8738	0.053232
465.0948	0.055679
465.3159	0.054455
465.5370	0.056185
465.7581	0.057977
465.9792	0.057830
466.2003	0.055046
466.4214	0.052093
466.6425	0.051819
466.8637	0.051988
467.0848	0.049647
467.3060	0.046821
467.5272	0.044142
467.7484	0.047938
467.9696	0.047622
468.1908	0.049225
468.4120	0.046167
468.6333	0.044690
468.8545	0.044922
469.0758	0.044944
469.2970	0.044163
469.5183	0.042139
469.7396	0.040768
469.9610	0.042328
470.1823	0.044121
470.4036	0.041147
470.6250	0.041189
470.8463	0.040030
471.0677	0.041126
471.2891	0.039397
471.5105	0.040198
471.7319	0.039080
471.9533	0.041211
472.1748	0.041464
472.3962	0.044437
472.6177	0.041801
472.8391	0.045576
473.0606	0.046989
473.2821	0.045513
473.5036	0.047369
473.7251	0.044817
473.9467	0.044944
474.1682	0.046399
474.3898	0.045365
474.6113	0.044332
474.8329	0.046040
475.0545	0.048107
475.2761	0.048866
475.4977	0.047960
475.7193	0.048339
475.9410	0.045682
476.1626	0.048297
476.3843	0.047116
476.6060	0.048466
476.8277	0.048445
477.0494	0.046968
477.2711	0.044374
477.4928	0.046378
477.7145	0.045787
477.9363	0.046884
478.1580	0.046863
478.3798	0.048360
478.6016	0.049183
478.8234	0.047496
479.0452	0.046652
479.2670	0.048065
479.4888	0.047728
479.7107	0.047411
479.9325	0.047010
480.1544	0.047833
480.3763	0.052051
480.5982	0.052220
480.8201	0.050026
481.0420	0.051292
481.2639	0.050849
481.4859	0.051144
481.7078	0.054076
481.9298	0.052979
482.1517	0.052156
482.3737	0.052852
482.5957	0.051334
482.8177	0.050195
483.0398	0.050511
483.2618	0.050258
483.4838	0.051250
483.7059	0.051144
483.9280	0.051271
484.1501	0.050828
484.3721	0.056332
484.5943	0.057071
484.8164	0.057598
485.0385	0.060804
485.2606	0.060529
485.4828	0.079469
485.7050	0.133882
485.9271	0.183528
486.1493	0.192492
486.3715	0.163134
486.5937	0.128040
486.8160	0.112243
487.0382	0.103322
487.2605	0.097754
487.4827	0.082527
487.7050	0.067468
487.9273	0.059749
488.1496	0.056986
488.3719	0.054708
488.5942	0.054392
488.8165	0.052388
489.0389	0.054814
489.2612	0.052789
489.4836	0.053907
489.7060	0.051924
489.9284	0.052958
490.1508	0.054160
490.3732	0.051186
490.5956	0.051861
490.8180	0.053274
491.0405	0.048634
491.2630	0.053612
491.4854	0.050047
491.7079	0.051924
491.9304	0.049815
492.1529	0.050322
492.3755	0.052599
492.5980	0.049984
492.8205	0.051587
493.0431	0.050722
493.2657	0.050216
493.4882	0.051861
493.7108	0.053696
493.9334	0.052979
494.1561	0.050069
494.3787	0.051967
494.6013	0.050617
494.8240	0.053717
495.0466	0.049626
495.2693	0.047559
495.4920	0.047749
495.7147	0.047917
495.9374	0.048887
496.1601	0.052852
496.3829	0.055784
496.6056	0.056986
496.8284	0.058463
497.0511	0.056121
497.2739	0.052388
497.4967	0.051777
497.7195	0.050364
497.9423	0.049056
498.1652	0.047074
498.3880	0.049267
498.6109	0.049098
498.8337	0.050997
499.0566	0.051777
499.2795	0.054202
499.5024	0.052979
499.7253	0.054434
499.9482	0.053274
500.1712	0.054034
500.3941	0.051207
500.6171	0.049984
500.8400	0.048972
501.0630	0.051608
501.2860	0.051397
501.5090	0.056269
501.7320	0.054498
501.9551	0.050617
502.1781	0.051903
502.4012	0.054962
502.6242	0.053021
502.8473	0.053042
503.0704	0.054962
503.2935	0.054244
503.5166	0.055025
503.7397	0.054076
503.9628	0.054540
504.1860	0.053633
504.4092	0.052178
504.6323	0.050322
504.8555	0.052473
505.0787	0.050258
505.3019	0.049098
505.5251	0.052747
505.7483	0.050301
505.9716	0.050279
506.1948	0.048234
506.4181	0.051461
506.6414	0.053759
506.8647	0.049499
507.0880	0.049794
507.3113	0.047685
507.5346	0.047517
507.7579	0.046800
507.9813	0.047221
508.2046	0.048592
508.4280	0.049773
508.6514	0.051250
508.8748	0.047137
509.0982	0.048655
509.3216	0.046778
509.5450	0.048339
509.7685	0.049942
509.9919	0.047770
510.2154	0.046019
510.4388	0.047559
510.6623	0.046336
510.8858	0.047601
511.1093	0.047327
511.3329	0.048824
511.5564	0.045070
511.7799	0.048339
512.0035	0.045618
512.2270	0.045597
512.4506	0.045766
512.6742	0.045682
512.8978	0.042581
513.1214	0.046082
513.3451	0.047285
513.5687	0.045344
513.7923	0.044374
514.0160	0.043699
514.2397	0.043151
514.4634	0.045260
514.6871	0.045471
514.9108	0.043573
515.1345	0.043720
515.3582	0.043320
515.5819	0.040958
515.8057	0.041000
516.0295	0.043151
516.2532	0.042518
516.4770	0.041400
516.7008	0.041000
516.9246	0.044290
517.1485	0.042729
517.3723	0.041717
517.5961	0.040367
517.8200	0.041548
518.0439	0.041168
518.2677	0.042898
518.4916	0.041042
518.7155	0.039544
518.9395	0.042392
519.1634	0.042096
519.3873	0.041780
519.6113	0.043109
519.8352	0.042835
520.0592	0.038638
520.2832	0.036739
520.5072	0.037182
520.7312	0.036782
520.9552	0.035601
521.1792	0.038848
521.4033	0.037414
521.6273	0.038321
521.8514	0.036086
522.0755	0.035158
522.2996	0.036486
522.5237	0.037646
522.7478	0.035685
522.9719	0.036908
523.1960	0.036444
523.4202	0.035326
523.6443	0.038384
523.8685	0.039418
524.0927	0.038448
524.3169	0.038722
524.5411	0.038785
524.7653	0.037520
524.9895	0.037309
525.2138	0.035622
525.4380	0.036950
525.6623	0.037414
525.8865	0.037372
526.1108	0.037520
526.3351	0.038616
526.5594	0.035748
526.7837	0.036107
527.0081	0.038469
527.2324	0.036486
527.4568	0.035516
527.6811	0.036149
527.9055	0.036170
528.1299	0.037077
528.3543	0.037203
528.5787	0.039608
528.8031	0.041400
529.0276	0.042455
529.2520	0.038891
529.4765	0.039966
529.7009	0.038363
529.9254	0.039165
530.1499	0.040578
530.3744	0.036803
530.5989	0.038258
530.8234	0.039987
531.0480	0.037203
531.2725	0.036465
531.4971	0.036065
531.7217	0.039249
531.9462	0.037583
532.1708	0.040156
532.3954	0.038469
532.6200	0.037014
532.8447	0.039502
533.0693	0.039144
533.2940	0.039798
533.5186	0.043720
533.7433	0.045239
533.9680	0.043678
534.1927	0.045492
534.4174	0.044944
534.6421	0.045450
534.8668	0.045893
535.0916	0.043720
535.3163	0.044880
535.5411	0.044944
535.7659	0.043214
535.9907	0.041885
536.2155	0.043003
536.4403	0.042982
536.6651	0.040599
536.8899	0.039165
537.1148	0.040704
537.3396	0.040177
537.5645	0.041253
537.7894	0.042645
538.0143	0.041590
538.2392	0.042349
538.4641	0.045260
538.6890	0.043784
538.9139	0.045640
539.1389	0.043615
539.3638	0.045323
539.5888	0.049815
539.8138	0.046357
540.0388	0.042603
540.2638	0.044480
540.4888	0.043193
540.7138	0.046947
540.9389	0.045534
541.1639	0.047812
541.3890	0.046947
541.6140	0.046357
541.8391	0.045597
542.0642	0.046525
542.2893	0.045112
542.5144	0.049921
542.7396	0.047833
542.9647	0.045893
543.1899	0.044733
543.4150	0.045850
543.6402	0.046568
543.8654	0.049710
544.0906	0.049183
544.3158	0.049689
544.5410	0.049900
544.7662	0.050617
544.9915	0.050849
545.2167	0.050828
545.4420	0.048149
545.6673	0.049351
545.8926	0.045365
546.1179	0.044079
546.3432	0.046462
546.5685	0.046040
546.7938	0.045597
547.0192	0.048149
547.2445	0.048213
547.4699	0.049183
547.6953	0.051018
547.9206	0.054582
548.1460	0.054392
548.3715	0.056501
548.5969	0.056058
548.8223	0.054519
549.0478	0.050554
549.2732	0.048655
549.4987	0.049246
549.7242	0.047348
549.9496	0.048592
550.1751	0.048972
550.4007	0.048866
550.6262	0.044248
550.8517	0.047348
551.0773	0.044817
551.3028	0.045049
551.5284	0.044669
551.7540	0.046019
551.9796	0.049077
552.2052	0.050406
552.4308	0.053211
552.6564	0.053127
552.8820	0.052262
553.1077	0.053084
553.3333	0.049394
553.5590	0.052979
553.7847	0.053823
554.0104	0.051376
554.2361	0.051165
554.4618	0.051165
554.6875	0.047432
554.9132	0.047390
555.1390	0.049499
555.3648	0.052220
555.5905	0.052937
555.8163	0.053295
556.0421	0.054181
556.2679	0.052199
556.4937	0.052642
556.7195	0.053232
556.9454	0.049162
557.1712	0.049141
557.3971	0.048192
557.6230	0.050132
557.8488	0.048887
558.0747	0.050912
558.3006	0.051671
558.5266	0.046378
558.7525	0.045471
558.9784	0.046800
559.2044	0.046821
559.4303	0.043952
559.6563	0.047896
559.8823	0.047453
560.1083	0.049963
560.3343	0.049225
560.5603	0.056164
560.7863	0.057007
561.0124	0.058800
561.2384	0.059222
561.4645	0.057809
561.6905	0.059158
561.9166	0.058188
562.1427	0.058209
562.3688	0.056100
562.5949	0.053780
562.8211	0.054940
563.0472	0.054814
563.2733	0.055299
563.4995	0.058842
563.7257	0.055615
563.9519	0.055932
564.1781	0.057366
564.4043	0.059580
564.6305	0.058463
564.8567	0.061204
565.0829	0.060108
565.3092	0.060487
565.5355	0.061964
565.7617	0.059243
565.9880	0.058737
566.2143	0.060867
566.4406	0.063334
566.6669	0.061057
566.8932	0.063967
567.1196	0.068628
567.3459	0.072382
567.5723	0.079026
567.7987	0.082843
568.0250	0.081135
568.2514	0.083202
568.4778	0.088896
568.7043	0.091490
568.9307	0.096488
569.1571	0.103406
569.3836	0.108341
569.6100	0.119540
569.8365	0.132658
570.0630	0.139808
570.2895	0.143794
570.5160	0.141495
570.7425	0.146388
570.9690	0.152715
571.1956	0.159654
571.4221	0.169082
571.6487	0.174586
571.8752	0.177602
572.1018	0.188485
572.3284	0.180027
572.5550	0.177011
572.7816	0.158853
573.0082	0.153981
573.2349	0.163029
573.4615	0.182031
573.6882	0.194031
573.9149	0.199473
574.1415	0.204366
574.3682	0.214004
574.5949	0.218834
574.8216	0.219213
575.0484	0.219973
575.2751	0.223811
575.5018	0.221512
575.7286	0.209427
575.9554	0.198903
576.1821	0.199937
576.4089	0.202953
576.6357	0.213561
576.8626	0.218454
577.0894	0.228873
577.3162	0.226890
577.5431	0.239228
577.7699	0.264452
577.9968	0.300200
578.2237	0.290604
578.4505	0.271876
578.6774	0.257851
578.9044	0.239481
579.1313	0.228620
579.3582	0.226911
579.5851	0.242877
579.8121	0.241885
580.0391	0.244374
580.2660	0.248761
580.4930	0.239882
580.7200	0.235938
580.9470	0.242771
581.1741	0.280671
581.4011	0.337341
581.6281	0.373721
581.8552	0.370347
582.0822	0.366255
582.3093	0.351787
582.5364	0.329242
582.7635	0.298576
582.9906	0.270020
583.2177	0.254139
583.4449	0.239080
583.6720	0.223474
583.8991	0.218897
584.1263	0.221913
584.3535	0.226384
584.5807	0.223727
584.8079	0.234398
585.0351	0.252072
585.2623	0.265001
585.4895	0.265633
585.7167	0.260382
585.9440	0.256902
586.1713	0.240304
586.3985	0.225857
586.6258	0.221196
586.8531	0.223495
587.0804	0.236423
587.3077	0.250490
587.5350	0.254730
587.7624	0.254139
587.9897	0.239376
588.2171	0.228071
588.4445	0.217821
588.6718	0.215628
588.8992	0.204450
589.1266	0.193989
589.3540	0.181525
589.5815	0.179416
589.8089	0.174228
590.0363	0.176590
590.2638	0.170727
590.4913	0.160941
590.7187	0.156596
590.9462	0.151091
591.1737	0.143225
591.4012	0.141748
591.6288	0.144659
591.8563	0.145376
592.0838	0.142001
592.3114	0.143689
592.5389	0.164505
592.7665	0.195655
592.9941	0.210545
593.2217	0.217990
593.4493	0.215965
593.6769	0.211579
593.9046	0.208352
594.1322	0.197111
594.3598	0.186228
594.5875	0.183296
594.8152	0.193167
595.0429	0.203079
595.2705	0.210081
595.4983	0.204302
595.7260	0.192808
595.9537	0.182685
596.1814	0.169693
596.4092	0.160202
596.6369	0.156069
596.8647	0.148940
597.0925	0.153812
597.3203	0.159296
597.5481	0.156216
597.7759	0.156933
598.0037	0.152884
598.2315	0.144996
598.4594	0.145734
598.6872	0.164505
598.9151	0.179943
599.1430	0.196035
599.3709	0.187957
599.5988	0.183128
599.8267	0.185532
600.0546	0.190298
600.2825	0.191922
600.5105	0.192070
600.7384	0.187852
600.9664	0.191543
601.1944	0.197638
601.4223	0.189771
601.6503	0.179880
601.8783	0.178066
602.1064	0.174333
602.3344	0.170727
602.5624	0.173658
602.7905	0.179036
603.0185	0.178889
603.2466	0.186080
603.4747	0.196246
603.7028	0.190383
603.9309	0.186059
604.1590	0.180323
604.3871	0.174818
604.6152	0.163092
604.8434	0.161341
605.0715	0.158832
605.2997	0.162902
605.5279	0.168681
605.7561	0.177644
605.9843	0.179817
606.2125	0.176231
606.4407	0.166276
606.6689	0.162902
606.8972	0.160308
607.1254	0.159317
607.3537	0.162649
607.5819	0.162122
607.8102	0.161848
608.0385	0.157081
608.2668	0.155963
608.4951	0.150649
608.7235	0.147654
608.9518	0.144237
609.1801	0.140335
609.4085	0.132658
609.6369	0.133354
609.8653	0.140631
610.0936	0.151851
610.3220	0.153032
610.5505	0.147021
610.7789	0.147232
611.0073	0.142782
611.2357	0.139956
611.4642	0.138247
611.6927	0.141537
611.9211	0.139154
612.1496	0.133692
612.3781	0.134093
612.6066	0.128483
612.8351	0.129010
613.0637	0.130676
613.2922	0.133122
613.5208	0.129263
613.7493	0.130107
613.9779	0.130381
614.2065	0.130170
614.4351	0.129200
614.6637	0.127217
614.8923	0.129115
615.1209	0.125867
615.3495	0.126669
615.5782	0.129959
615.8068	0.133797
616.0355	0.126458
616.2642	0.119477
616.4929	0.114310
616.7216	0.115111
616.9503	0.111652
617.1790	0.111547
617.4077	0.111294
617.6365	0.113403
617.8652	0.111779
618.0940	0.111737
618.3227	0.109607
618.5515	0.103237
618.7803	0.095539
619.0091	0.095560
619.2379	0.091785
619.4667	0.090963
619.6956	0.089887
619.9244	0.097121
620.1533	0.097733
620.3821	0.096868
620.6110	0.095666
620.8399	0.088453
621.0688	0.081767
621.2977	0.076410
621.5266	0.076558
621.7556	0.079194
621.9845	0.082822
622.2135	0.084889
622.4424	0.082970
622.6714	0.084425
622.9004	0.087145
623.1294	0.087082
623.3584	0.089972
623.5874	0.091806
623.8164	0.091511
624.0454	0.087103
624.2745	0.086365
624.5035	0.089634
624.7326	0.091216
624.9617	0.091047
625.1908	0.085627
625.4199	0.083961
625.6490	0.080692
625.8781	0.079553
626.1072	0.078098
626.3364	0.074280
626.5655	0.069113
626.7947	0.071032
627.0238	0.071328
627.2530	0.071581
627.4822	0.071855
627.7114	0.071349
627.9406	0.066646
628.1698	0.064958
628.3991	0.060804
628.6283	0.060318
628.8576	0.058420
629.0868	0.062196
629.3161	0.061563
629.5454	0.061710
629.7747	0.065148
630.0040	0.060993
630.2333	0.059897
630.4626	0.060340
630.6920	0.056607
630.9213	0.056839
631.1507	0.055130
631.3801	0.054645
631.6094	0.053190
631.8388	0.052726
632.0682	0.052557
632.2976	0.052199
632.5271	0.046694
632.7565	0.047938
632.9859	0.047221
633.2154	0.044627
633.4448	0.044880
633.6743	0.043699
633.9038	0.046631
634.1333	0.043130
634.3628	0.043784
634.5923	0.039123
634.8218	0.039123
635.0514	0.039270
635.2809	0.037625
635.5105	0.042160
635.7400	0.040831
635.9696	0.040557
636.1992	0.044437
636.4288	0.049119
636.6584	0.047137
636.8880	0.044606
637.1177	0.043573
637.3473	0.044754
637.5770	0.041970
637.8066	0.040873
638.0363	0.042792
638.2660	0.041042
638.4957	0.042898
638.7254	0.042729
638.9551	0.041717
639.1848	0.039165
639.4145	0.039291
639.6443	0.039760
639.8740	0.038343
640.1038	0.038093
640.3336	0.039214
640.5633	0.037991
640.7931	0.037719
641.0229	0.037228
641.2528	0.036586
641.4826	0.033144
641.7124	0.034306
641.9423	0.030798
642.1721	0.032150
642.4020	0.032110
642.6319	0.031555
642.8617	0.029116
643.0916	0.030226
643.3216	0.032079
643.5515	0.029398
643.7814	0.030006
644.0113	0.029066
644.2413	0.027646
644.4712	0.027923
644.7012	0.028789
644.9312	0.026982
645.1612	0.028348
645.3912	0.028014
645.6212	0.029032
645.8512	0.027165
646.0812	0.025407
646.3113	0.025211
646.5413	0.025033
646.7714	0.025889
647.0015	0.024859
647.2316	0.025549
647.4616	0.024038
647.6918	0.026638
647.9219	0.028314
648.1520	0.029705
648.3821	0.032036
648.6123	0.034216
648.8424	0.033642
649.0726	0.033744
649.3028	0.034260
649.5329	0.032072
649.7631	0.032811
649.9933	0.031396
650.2236	0.030294
650.4538	0.028671
650.6840	0.028072
650.9143	0.029339
651.1445	0.028940
651.3748	0.027318
651.6051	0.029883
651.8354	0.031784
652.0657	0.031388
652.2960	0.032442
652.5263	0.032611
652.7566	0.033205
652.9870	0.030873
653.2173	0.032951
653.4477	0.032207
653.6780	0.031963
653.9084	0.032684
654.1388	0.031665
654.3692	0.034002
654.5996	0.036675
654.8300	0.041613
655.0605	0.060852
655.2909	0.180980
655.5213	0.507561
655.7518	0.959198
655.9823	1.000000
656.2128	1.000000
656.4433	1.000000
656.6738	1.000000
656.9043	1.000000
657.1348	0.848747
657.3653	0.698659
657.5959	0.596184
657.8264	0.519437
658.0570	0.470881
658.2875	0.433631
658.5181	0.389511
658.7487	0.365470
658.9793	0.354361
659.2099	0.304516
659.4406	0.225821
659.6712	0.143706
659.9018	0.084841
660.1325	0.054177
660.3632	0.037686
660.5938	0.029490
660.8245	0.026928
661.0552	0.025409
661.2859	0.024814
661.5166	0.023588
661.7474	0.020907
661.9781	0.021851
662.2088	0.022709
662.4396	0.021912
662.6704	0.022317
662.9011	0.021894
663.1319	0.022420
663.3627	0.022252
663.5935	0.021398
663.8243	0.022173
664.0552	0.023713
664.2860	0.021944
664.5168	0.021201
664.7477	0.022861
664.9786	0.024398
665.2094	0.024244
665.4403	0.025169
665.6712	0.025199
665.9021	0.024708
666.1330	0.025050
666.3640	0.022165
666.5949	0.020961
666.8259	0.021688
667.0568	0.021972
667.2878	0.021761
667.5188	0.020206
667.7497	0.021974
667.9807	0.022035
668.2117	0.022427
668.4428	0.019530
668.6738	0.020605
668.9048	0.022145
669.1359	0.021765
669.3669	0.021301
669.5980	0.022271
669.8291	0.022124
670.0602	0.020584
670.2913	0.023706
670.5224	0.022187
670.7535	0.022293
670.9846	0.021955
671.2157	0.025013
671.4469	0.024844
671.6781	0.028367
671.9092	0.029442
672.1404	0.033091
672.3716	0.034483
672.6028	0.033681
672.8340	0.031952
673.0652	0.031425
673.2964	0.032479
673.5277	0.029927
673.7589	0.026722
673.9902	0.030180
674.2214	0.028240
674.4527	0.029927
674.6840	0.027755
674.9153	0.024634
675.1466	0.027586
675.3779	0.026384
675.6093	0.026595
675.8406	0.026236
676.0719	0.024612
676.3033	0.025772
676.5347	0.023811
676.7661	0.022398
676.9974	0.022778
677.2288	0.023495
677.4602	0.025393
677.6917	0.028556
677.9231	0.027776
678.1545	0.030159
678.3860	0.030012
678.6174	0.029316
678.8489	0.029864
679.0804	0.033260
679.3119	0.031404
679.5434	0.034483
679.7749	0.036529
680.0064	0.036360
680.2379	0.033913
680.4694	0.035263
680.7010	0.032627
680.9325	0.034377
681.1641	0.033112
681.3957	0.035115
681.6273	0.036360
681.8589	0.034609
682.0905	0.032627
682.3221	0.033555
682.5537	0.030729
682.7854	0.029569
683.0170	0.028999
683.2487	0.031172
683.4803	0.031467
683.7120	0.033977
683.9437	0.031825
684.1754	0.035959
684.4071	0.034715
684.6388	0.037182
684.8705	0.038912
685.1023	0.038764
685.3340	0.042560
685.5658	0.043910
685.7975	0.046272
686.0293	0.046357
686.2611	0.042898
686.4929	0.045197
686.7247	0.044163
686.9565	0.043910
687.1883	0.041759
687.4202	0.045070
687.6520	0.041464
687.8838	0.041000
688.1157	0.040810
688.3476	0.038258
688.5795	0.039861
688.8114	0.035875
689.0433	0.035622
689.2752	0.036191
689.5071	0.037014
689.7390	0.037414
689.9710	0.035622
690.2029	0.035601
690.4349	0.034441
690.6669	0.035643
690.8988	0.035326
691.1308	0.035769
691.3628	0.037731
691.5948	0.040008
691.8269	0.038764
692.0589	0.037372
692.2909	0.039059
692.5230	0.037878
692.7550	0.036592
692.9871	0.037140
693.2192	0.038131
693.4513	0.040367
693.6834	0.037056
693.9155	0.035073
694.1476	0.034905
694.3797	0.033049
694.6119	0.032310
694.8440	0.034419
695.0762	0.034947
695.3083	0.034609
695.5405	0.031172
695.7727	0.028831
696.0049	0.028514
696.2371	0.028936
696.4693	0.031045
696.7016	0.033028
696.9338	0.038342
697.1660	0.040156
697.3983	0.039334
697.6306	0.036971
697.8628	0.037478
698.0951	0.036993
698.3274	0.037583
698.5597	0.037583
698.7920	0.038680
699.0243	0.037710
699.2567	0.034926
699.4890	0.037014
699.7214	0.034251
699.9537	0.032247
700.1861	0.032205
700.4185	0.033028
700.6509	0.032437
700.8833	0.031235
701.1157	0.029843
701.3481	0.028156
701.5806	0.026975
701.8130	0.028008
702.0454	0.029020
702.2779	0.029695
702.5104	0.029484
702.7429	0.031277
702.9753	0.029084
703.2078	0.029316
703.4403	0.030201
703.6729	0.029316
703.9054	0.027881
704.1379	0.027460
704.3705	0.028240
704.6030	0.027270
704.8356	0.027038
705.0682	0.024908
705.3008	0.022525
705.5334	0.023452
705.7660	0.025393
705.9986	0.026553
706.2312	0.028746
706.4638	0.029653
706.6965	0.031762
706.9291	0.035558
707.1618	0.037267
707.3945	0.035474
707.6272	0.037604
707.8599	0.039502
708.0926	0.039966
708.3253	0.037984
708.5580	0.035854
708.7907	0.036107
709.0235	0.033618
709.2562	0.032711
709.4890	0.033217
709.7217	0.034968
709.9545	0.032648
710.1873	0.033618
710.4201	0.034272
710.6529	0.034082
710.8857	0.035495
711.1186	0.033745
711.3514	0.031024
711.5842	0.032036
711.8171	0.032796
712.0500	0.029316
712.2828	0.026975
712.5157	0.027312
712.7486	0.028852
712.9815	0.028957
713.2144	0.029505
713.4474	0.030665
713.6803	0.032753
713.9132	0.033449
714.1462	0.035326
714.3791	0.036339
714.6121	0.034145
714.8451	0.032774
715.0781	0.034820
715.3111	0.035221
715.5441	0.031699
715.7771	0.031129
716.0102	0.030560
716.2432	0.029801
716.4762	0.029716
716.7093	0.028367
716.9424	0.027945
717.1754	0.027333
717.4085	0.028050
717.6416	0.026215
717.8747	0.028662
718.1078	0.029105
718.3410	0.028345
718.5741	0.029611
718.8072	0.026658
719.0404	0.028345
719.2736	0.032859
719.5067	0.029611
719.7399	0.030539
719.9731	0.028156
720.2063	0.027987
720.4395	0.026595
720.6727	0.028894
720.9060	0.028324
721.1392	0.030750
721.3725	0.026975
721.6057	0.031340
721.8390	0.028725
722.0723	0.028788
722.3055	0.029442
722.5388	0.030539
722.7721	0.027839
723.0055	0.027143
723.2388	0.029653
723.4721	0.028577
723.7055	0.027797
723.9388	0.027080
724.1722	0.025899
724.4056	0.026363
724.6389	0.026806
724.8723	0.029231
725.1057	0.029252
725.3391	0.031024
725.5726	0.032332
725.8060	0.031889
726.0394	0.033428
726.2729	0.034209
726.5063	0.033955
726.7398	0.032838
726.9733	0.032606
727.2068	0.032353
727.4403	0.034293
727.6738	0.034230
727.9073	0.032374
728.1408	0.033829
728.3743	0.033534
728.6079	0.033998
728.8414	0.033576
729.0750	0.034441
729.3086	0.034462
729.5421	0.036929
729.7757	0.035558
730.0093	0.036592
730.2429	0.036233
730.4766	0.035284
730.7102	0.039059
730.9438	0.042202
731.1775	0.043299
731.4111	0.041801
731.6448	0.042624
731.8785	0.041801
732.1122	0.040051
732.3458	0.041632
732.5795	0.042455
732.8133	0.043910
733.0470	0.041717
733.2807	0.041949
733.5145	0.045218
733.7482	0.045176
733.9820	0.047601
734.2157	0.050406
734.4495	0.051102
734.6833	0.048993
734.9171	0.048192
735.1509	0.046399
735.3847	0.046652
735.6185	0.047685
735.8524	0.047496
736.0862	0.049731
736.3201	0.048381
736.5539	0.048550
736.7878	0.046989
737.0217	0.048719
737.2556	0.045724
737.4895	0.046272
737.7234	0.045808
737.9573	0.045260
738.1912	0.042244
738.4252	0.040662
738.6591	0.041316
738.8931	0.041991
739.1271	0.044374
739.3610	0.045534
739.5950	0.045365
739.8290	0.046546
740.0630	0.043404
740.2970	0.040219
740.5310	0.039650
740.7651	0.038258
740.9991	0.040283
741.2332	0.036065
741.4672	0.034546
741.7013	0.033470
741.9354	0.032458
742.1695	0.033934
742.4036	0.034883
742.6377	0.035833
742.8718	0.034061
743.1059	0.035980
743.3400	0.031193
743.5742	0.031193
743.8083	0.030412
744.0425	0.029780
744.2767	0.030075
744.5108	0.027038
744.7450	0.028746
744.9792	0.027797
745.2134	0.030876
745.4477	0.028556
745.6819	0.026953
745.9161	0.027860
746.1504	0.029484
746.3846	0.029084
746.6189	0.027881
746.8532	0.028704
747.0874	0.029231
747.3217	0.032310
747.5560	0.031868
747.7903	0.031256
748.0247	0.028809
748.2590	0.029295
748.4933	0.027502
748.7277	0.028367
748.9620	0.029674
749.1964	0.031425
749.4308	0.031636
749.6652	0.034504
749.8995	0.037393
750.1339	0.040030
750.3684	0.038427
750.6028	0.040198
750.8372	0.039945
751.0717	0.039334
751.3061	0.039861
751.5406	0.038638
751.7750	0.039080
752.0095	0.041316
752.2440	0.039038
752.4785	0.039629
752.7130	0.036022
752.9475	0.034736
753.1820	0.035706
753.4166	0.038827
753.6511	0.041885
753.8856	0.042160
754.1202	0.041675
754.3548	0.040451
754.5894	0.037688
754.8239	0.038638
755.0585	0.041000
755.2931	0.040620
755.5278	0.042244
755.7624	0.043488
755.9970	0.044416
756.2317	0.042645
756.4663	0.047559
756.7010	0.049077
756.9356	0.049963
757.1703	0.053148
757.4050	0.058378
757.6397	0.060213
757.8744	0.059074
758.1091	0.058315
758.3438	0.056501
758.5786	0.053886
758.8133	0.057092
759.0481	0.053991
759.2828	0.055362
759.5176	0.058104
759.7524	0.060424
759.9872	0.059158
760.2220	0.061900
760.4568	0.062828
760.6916	0.059918
760.9264	0.062596
761.1613	0.061183
761.3961	0.057661
761.6310	0.056037
761.8658	0.051355
762.1007	0.048719
762.3356	0.048170
762.5705	0.047369
762.8054	0.046610
763.0403	0.048803
763.2752	0.050722
763.5101	0.050026
763.7450	0.047517
763.9800	0.049583
764.2149	0.051397
764.4499	0.053232
764.6849	0.060255
764.9198	0.056670
765.1548	0.059369
765.3898	0.056944
765.6248	0.054835
765.8599	0.052684
766.0949	0.047559
766.3299	0.047854
766.5650	0.043383
766.8000	0.039376
767.0351	0.038870
767.2701	0.039397
767.5052	0.037794
767.7403	0.040915
767.9754	0.039734
768.2105	0.042033
768.4456	0.043594
768.6808	0.049837
768.9159	0.047221
769.1510	0.048065
769.3862	0.047749
769.6214	0.047749
769.8565	0.044690
770.0917	0.043594
770.3269	0.043995
770.5621	0.047264
770.7973	0.047411
771.0325	0.048360
771.2677	0.048740
771.5030	0.046778
771.7382	0.043467
771.9735	0.042835
772.2087	0.041464
772.4440	0.041316
772.6793	0.041042
772.9146	0.041211
773.1499	0.039882
773.3852	0.038363
773.6205	0.036993
773.8558	0.037625
774.0911	0.035579
774.3265	0.036739
774.5618	0.036739
774.7972	0.031889
775.0326	0.032310
775.2679	0.031193
775.5033	0.027924
775.7387	0.029527
775.9741	0.027565
776.2095	0.026405
776.4450	0.026300
776.6804	0.027122
776.9158	0.024085
777.1513	0.025540
777.3868	0.026194
777.6222	0.025182
777.8577	0.023157
778.0932	0.023811
778.3287	0.028767
778.5642	0.028978
778.7997	0.029210
779.0352	0.030012
779.2707	0.031952
779.5063	0.033112
779.7418	0.030433
779.9774	0.030433
780.2130	0.026869
780.4485	0.028240
780.6841	0.028809
780.9197	0.031678
781.1553	0.035200
781.3909	0.035959
781.6265	0.037246
781.8622	0.036065
782.0978	0.033407
782.3335	0.034651
782.5691	0.035601
782.8048	0.035137
783.0405	0.031846
783.2761	0.033702
783.5118	0.034335
783.7475	0.034419
783.9832	0.034419
784.2190	0.033028
784.4547	0.032226
784.6904	0.028746
784.9262	0.029084
785.1619	0.028050
785.3977	0.029864
785.6335	0.029780
785.8692	0.029316
786.1050	0.029505
786.3408	0.029337
786.5766	0.028198
786.8124	0.027945
787.0483	0.028430
787.2841	0.026869
787.5199	0.031172
787.7558	0.029231
787.9917	0.031172
788.2275	0.028894
788.4634	0.030054
788.6993	0.028936
788.9352	0.030834
789.1711	0.031593
789.4070	0.030581
789.6429	0.027734
789.8789	0.029063
790.1148	0.025815
790.3507	0.026405
790.5867	0.025456
790.8227	0.023537
791.0586	0.023853
791.2946	0.022904
791.5306	0.024275
791.7666	0.023706
792.0026	0.023242
792.2387	0.020795
792.4747	0.023727
792.7107	0.021428
792.9468	0.021850
793.1828	0.019846
793.4189	0.020352
793.6550	0.024591
793.8910	0.024971
794.1271	0.028345
794.3632	0.031045
794.5993	0.032163
794.8355	0.031193
795.0716	0.032142
795.3077	0.033344
795.5439	0.031699
795.7800	0.030686
796.0162	0.028240
796.2523	0.024697
796.4885	0.022567
796.7247	0.022714
796.9609	0.020394
797.1971	0.022609
797.4333	0.021343
797.6695	0.022735
797.9058	0.025688
798.1420	0.024191
798.3783	0.023727
798.6145	0.021976
798.8508	0.023642
799.0871	0.023284
799.3233	0.023537
799.5596	0.022419
799.7959	0.020626
800.0322	0.021111
800.2686	0.020901
800.5049	0.018707
800.7412	0.018960
800.9776	0.020183
801.2139	0.020099
801.4503	0.019277
801.6867	0.019973
801.9230	0.016472
802.1594	0.018707
802.3958	0.017695
802.6322	0.017864
802.8686	0.018475
803.1051	0.016767
803.3415	0.018686
803.5779	0.018011
803.8144	0.017442
804.0508	0.016682
804.2873	0.018180
804.5238	0.015523
804.7603	0.018644
804.9968	0.019825
805.2333	0.016450
805.4698	0.017800
805.7063	0.017400
805.9428	0.018306
806.1794	0.021470
806.4159	0.022820
806.6525	0.023895
806.8890	0.023790
807.1256	0.023115
807.3622	0.024085
807.5988	0.023895
807.8354	0.021365
808.0720	0.021976
808.3086	0.022778
808.5452	0.023242
808.7818	0.022166
809.0185	0.023895
809.2551	0.021723
809.4918	0.020458
809.7284	0.021069
809.9651	0.020226
810.2018	0.020521
810.4385	0.018855
810.6752	0.018623
810.9119	0.017716
811.1486	0.020078
811.3853	0.017357
811.6221	0.018538
811.8588	0.016893
812.0956	0.015923
812.3323	0.015101
812.5691	0.015649
812.8059	0.012844
813.0427	0.016640
813.2795	0.014974
813.5163	0.017695
813.7531	0.017526
813.9899	0.018454
814.2267	0.018623
814.4636	0.018074
814.7004	0.018285
814.9373	0.017969
815.1742	0.016472
815.4110	0.016493
815.6479	0.015122
815.8848	0.015438
816.1217	0.013624
816.3586	0.013139
816.5955	0.013877
816.8324	0.015944
817.0694	0.012696
817.3063	0.013561
817.5433	0.014890
817.7802	0.013392
818.0172	0.013350
818.2542	0.015501
818.4912	0.013540
818.7282	0.013645
818.9652	0.014890
819.2022	0.011494
819.4392	0.012190
819.6762	0.011853
819.9133	0.013181
820.1503	0.012949
820.3874	0.016872
820.6244	0.014953
820.8615	0.015670
821.0986	0.016240
821.3357	0.015649
821.5727	0.013793
821.8099	0.015628
822.0470	0.013181
822.2841	0.013561
822.5212	0.011790
822.7584	0.012296
822.9955	0.013456
823.2327	0.013308
823.4698	0.011094
823.7070	0.011705
823.9442	0.013645
824.1814	0.011157
824.4186	0.011790
824.6558	0.011684
824.8930	0.011600
825.1302	0.012043
825.3675	0.012971
825.6047	0.013498
825.8419	0.012359
826.0792	0.013582
826.3165	0.012064
826.5537	0.012296
826.7910	0.012971
827.0283	0.013793
827.2656	0.013413
827.5029	0.014152
827.7402	0.013835
827.9776	0.012717
828.2149	0.011389
828.4522	0.013266
828.6896	0.012717
828.9270	0.011347
829.1643	0.011895
829.4017	0.014215
829.6391	0.011494
829.8765	0.011811
830.1139	0.010840
830.3513	0.010967
830.5887	0.010398
830.8261	0.009238
831.0636	0.009934
831.3010	0.010630
831.5385	0.008963
831.7759	0.008563
832.0134	0.007656
832.2509	0.008605
832.4884	0.006939
832.7259	0.008858
832.9634	0.008753
833.2009	0.009997
833.4384	0.009090
833.6759	0.009006
833.9135	0.009069
834.1510	0.010777
834.3886	0.010398
834.6261	0.011094
834.8637	0.010630
835.1013	0.009765
835.3389	0.008774
835.5765	0.010587
835.8141	0.009385
836.0517	0.010545
836.2893	0.009828
836.5269	0.008795
836.7646	0.008774
837.0022	0.007002
837.2399	0.008731
837.4775	0.008246
837.7152	0.007846
837.9529	0.006960
838.1906	0.006622
838.4283	0.007382
838.6660	0.006243
838.9037	0.005420
839.1414	0.006433
839.3791	0.007677
839.6169	0.006960
839.8546	0.009174
840.0924	0.008120
840.3302	0.007529
840.5679	0.007487
840.8057	0.007951
841.0435	0.008521
841.2813	0.007529
841.5191	0.005758
841.7569	0.007782
841.9947	0.005252
842.2326	0.005842
842.4704	0.006559
842.7082	0.006622
842.9461	0.005357
843.1840	0.005990
843.4218	0.006264
843.6597	0.005652
843.8976	0.006201
844.1355	0.006707
844.3734	0.005863
844.6113	0.006960
844.8492	0.005062
845.0872	0.006306
845.3251	0.006053
845.5631	0.006454
845.8010	0.006222
846.0390	0.006285
846.2770	0.005715
846.5149	0.005547
846.7529	0.005230
846.9909	0.005230
847.2289	0.005947
847.4669	0.004809
847.7050	0.006179
847.9430	0.005926
848.1810	0.007803
848.4191	0.003712
848.6571	0.005884
848.8952	0.005631
849.1333	0.005399
849.3713	0.005589
849.6094	0.004766
849.8475	0.005188
850.0856	0.006411
850.3237	0.005209
850.5619	0.005104
850.8000	0.006137
851.0381	0.004366
851.2763	0.005969
851.5144	0.003121
851.7526	0.005779
851.9908	0.006032
852.2289	0.005884
852.4671	0.007276
852.7053	0.009343
852.9435	0.010545
853.1817	0.013034
853.4200	0.015923
853.6582	0.015881
853.8964	0.013688
854.1347	0.013055
854.3729	0.012865
854.6112	0.015797
854.8495	0.014004
855.0877	0.014257
855.3260	0.011515
855.5643	0.014805
855.8026	0.010545
856.0409	0.014299
856.2792	0.012106
856.5176	0.013287
856.7559	0.012591
856.9942	0.012064
857.2326	0.011199
857.4710	0.011600
857.7093	0.011600
857.9477	0.009427
858.1861	0.010524
858.4245	0.011157
858.6629	0.010587
858.9013	0.009048
859.1397	0.008858
859.3781	0.010292
859.6166	0.009385
859.8550	0.009470
860.0935	0.009491
860.3319	0.008057
860.5704	0.008415
860.8089	0.007065
861.0473	0.006981
861.2858	0.007677
861.5243	0.006095
861.7628	0.007825
862.0013	0.006475
862.2399	0.006433
862.4784	0.007318
862.7169	0.007466
862.9555	0.007255
863.1940	0.005821
863.4326	0.007086
863.6712	0.008963
863.9098	0.005505
864.1483	0.008014
864.3869	0.007740
864.6255	0.006686
864.8642	0.006137
865.1028	0.005526
865.3414	0.006179
865.5800	0.006601
865.8187	0.006116
866.0573	0.005294
866.2960	0.005357
866.5347	0.005779
866.7733	0.004492
867.0120	0.005315
867.2507	0.006222
867.4894	0.005821
867.7281	0.006833
867.9669	0.006285
868.2056	0.005947
868.4443	0.005694
868.6831	0.006454
868.9218	0.005188
869.1606	0.005990
869.3993	0.004872
869.6381	0.003986
869.8769	0.006327
870.1157	0.004724
870.3545	0.004830
870.5933	0.005694
870.8321	0.006981
871.0709	0.004176
871.3097	0.005083
871.5486	0.004893
871.7874	0.006454
872.0263	0.006559
872.2651	0.006454
872.5040	0.004914
872.7429	0.004513
872.9818	0.005990
873.2207	0.005589
873.4596	0.004598
873.6985	0.005926
873.9374	0.004218
874.1763	0.005062
874.4153	0.005884
874.6542	0.005737
874.8932	0.005483
875.1321	0.007213
875.3711	0.006074
875.6101	0.005252
875.8491	0.006454
876.0880	0.005315
876.3270	0.005842
876.5661	0.005652
876.8051	0.006327
877.0441	0.004556
877.2831	0.006179
877.5222	0.005821
877.7612	0.008078
878.0003	0.005947
878.2393	0.006707
878.4784	0.007213
878.7175	0.007150
878.9566	0.007466
879.1957	0.007719
879.4348	0.008246
879.6739	0.008795
879.9130	0.008246
880.1521	0.008225
880.3913	0.008204
880.6304	0.008668
880.8696	0.007972
881.1087	0.006770
881.3479	0.007719
881.5871	0.006833
881.8262	0.006728
882.0654	0.006981
882.3046	0.006454
882.5438	0.006643
882.7831	0.007424
883.0223	0.006643
883.2615	0.005800
883.5007	0.007635
883.7400	0.006390
883.9792	0.007023
884.2185	0.007129
884.4578	0.007297
884.6971	0.005505
884.9363	0.006939
885.1756	0.007192
885.4149	0.007677
885.6542	0.006137
885.8936	0.007529
886.1329	0.007129
886.3722	0.006854
886.6116	0.005694
886.8509	0.006601
887.0903	0.006918
887.3296	0.005947
887.5690	0.006707
887.8084	0.005315
888.0478	0.005715
888.2872	0.005715
888.5266	0.006411
888.7660	0.005230
889.0054	0.005125
889.2448	0.006116
889.4843	0.005526
889.7237	0.005526
889.9632	0.006496
890.2026	0.004682
890.4421	0.004893
890.6816	0.005990
890.9211	0.003459
891.1606	0.005652
891.4001	0.005863
891.6396	0.004092
891.8791	0.005905
892.1186	0.006222
892.3581	0.006580
892.5977	0.005315
892.8372	0.005863
893.0768	0.004977
893.3163	0.006411
893.5559	0.006327
893.7955	0.004935
894.0351	0.004281
894.2747	0.004809
894.5143	0.004914
894.7539	0.004619
894.9935	0.005441
895.2331	0.004619
895.4727	0.004176
895.7124	0.005167
895.9520	0.004809
896.1917	0.007213
896.4314	0.004598
896.6710	0.004977
896.9107	0.006454
897.1504	0.006053
897.3901	0.006222
897.6298	0.004577
897.8695	0.004239
898.1092	0.005104
898.3489	0.005673
898.5887	0.006032
898.8284	0.006011
899.0682	0.005378
899.3079	0.006538
899.5477	0.004492
899.7875	0.004745
900.0272	0.004070
900.2670	0.005167
900.5068	0.004092
900.7466	0.003670
900.9864	0.006179
901.2263	0.004893
901.4661	0.004324
901.7059	0.005441
901.9458	0.005990
902.1856	0.005568
902.4255	0.003606
902.6654	0.004577
902.9052	0.004092
903.1451	0.005357
903.3850	0.004113
903.6249	0.004281
903.8648	0.004935
904.1047	0.005568
904.3446	0.004809
904.5846	0.005610
904.8245	0.004619
905.0644	0.005125
905.3044	0.004513
905.5444	0.005083
905.7843	0.005694
906.0243	0.006665
906.2643	0.004513
906.5043	0.005673
906.7443	0.005336
906.9843	0.005652
907.2243	0.005273
907.4643	0.005589
907.7043	0.004134
907.9444	0.005146
908.1844	0.003016
908.4245	0.004408
908.6645	0.002763
908.9046	0.004492
909.1447	0.004914
909.3847	0.004471
909.6248	0.004007
909.8649	0.004640
910.1050	0.003691
910.3452	0.006095
910.5853	0.003860
910.8254	0.002847
911.0655	0.003649
911.3057	0.004935
911.5458	0.003965
911.7860	0.005821
912.0262	0.004703
912.2663	0.004935
912.5065	0.003164
912.7467	0.004935
912.9869	0.003817
913.2271	0.004809
913.4673	0.003079
913.7075	0.004851
913.9478	0.002763
914.1880	0.003269
914.4283	0.004324
914.6685	0.003142
914.9088	0.003628
915.1490	0.002278
915.3893	0.003860
915.6296	0.002763
915.8699	0.002341
916.1102	0.004239
916.3505	0.004450
916.5908	0.004387
916.8311	0.003923
917.0714	0.004070
917.3118	0.004155
917.5521	0.006559
917.7925	0.007150
918.0328	0.005483
918.2732	0.004766
918.5136	0.004788
918.7539	0.004492
918.9943	0.004408
919.2347	0.002510
919.4751	0.004007
919.7155	0.004134
919.9560	0.005357
920.1964	0.002615
920.4368	0.005062
920.6773	0.004324
920.9177	0.004092
921.1582	0.004661
921.3986	0.005273
921.6391	0.001919
921.8796	0.003881
922.1201	0.002953
922.3606	0.004577
922.6011	0.003269
922.8416	0.005041
923.0821	0.004366
923.3226	0.003417
923.5631	0.003353
923.8037	0.003670
924.0442	0.002889
924.2848	0.004429
924.5254	0.003944
924.7659	0.003543
925.0065	0.003670
925.2471	0.003058
925.4877	0.003164
925.7283	0.002678
925.9689	0.002784
926.2095	0.002172
926.4501	0.003902
926.6908	0.003838
926.9314	0.002615
927.1720	0.002805
927.4127	0.002257
927.6533	0.003079
927.8940	0.002004
928.1347	0.003733
928.3754	0.003860
928.6161	0.002299
928.8568	0.002636
929.0975	0.002847
929.3382	0.002889
929.5789	0.001729
929.8196	0.003712
930.0604	0.003796
930.3011	0.003227
930.5419	0.002932
930.7826	0.003227
931.0234	0.003353
931.2642	0.001582
931.5049	0.001835
931.7457	0.002784
931.9865	0.002362
932.2273	0.001497
932.4681	0.004092
932.7089	0.002172
932.9498	0.003121
933.1906	0.001877
933.4314	0.004977
933.6723	0.002510
933.9131	0.003248
934.1540	0.003016
934.3949	0.003248
934.6358	0.002868
934.8766	0.002489
935.1175	0.002573
935.3584	0.003206
935.5993	0.002088
935.8403	0.001118
936.0812	0.002594
936.3221	0.002552
936.5630	0.002130
936.8040	0.003712
937.0449	0.001582
937.2859	0.002531
937.5269	0.001118
937.7678	0.002826
938.0088	0.004176
938.2498	0.001751
938.4908	0.001919
938.7318	0.001244
938.9728	0.001434
939.2138	0.002446
939.4549	0.003142
939.6959	0.001666
939.9369	0.003185
940.1780	0.002468
940.4190	0.002257
940.6601	0.001287
940.9012	0.003248
941.1422	0.002910
941.3833	0.001055
941.6244	0.000337
941.8655	0.002784
942.1066	0.001877
942.3477	0.001961
942.5889	0.001687
942.8300	0.003838
943.0711	0.001308
943.3123	0.001434
943.5534	0.001455
943.7946	0.002763
944.0357	0.002130
944.2769	0.001835
944.5181	0.002004
944.7593	0.002193
945.0005	0.002341
945.2417	0.003585
945.4829	0.001097
945.7241	0.001772
945.9653	0.000591
946.2066	0.002362
946.4478	0.001455
946.6891	0.001772
946.9303	0.001308
947.1716	0.002404
947.4128	0.000801
947.6541	-0.000380
947.8954	0.001202
948.1367	0.001666
948.3780	0.000000
948.6193	0.001329
948.8606	0.003037
949.1019	0.002932
949.3433	0.000063
949.5846	0.002130
949.8259	0.001877
950.0673	0.001687
950.3086	0.001139
950.5500	0.001392
950.7914	0.001371
951.0327	0.001645
951.2741	0.002700
951.5155	0.002299
951.7569	0.002805
951.9983	0.003902
952.2398	0.002278
952.4812	0.002510
952.7226	0.003016
952.9640	0.001561
953.2055	0.002088
953.4469	0.002932
953.6884	0.002404
953.9299	0.001223
954.1713	0.001097
954.4128	0.001877
954.6543	0.000991
954.8958	0.002151
955.1373	0.001118
955.3788	0.002805
955.6203	-0.000127
955.8618	0.001033
956.1034	0.000823
956.3449	0.002025
956.5865	0.000401
956.8280	0.000633
957.0696	0.000464
957.3111	0.002299
957.5527	0.000591
957.7943	0.002573
958.0359	0.001729
958.2775	0.001708
958.5191	0.001666
958.7607	0.001371
959.0023	0.001033
959.2439	0.003248
959.4856	0.001202
959.7272	0.002953
959.9688	0.002025
960.2105	0.001940
960.4522	0.002193
960.6938	0.002531
960.9355	0.001033
961.1772	0.001708
961.4189	0.001160
961.6606	0.002594
961.9023	0.000654
962.1440	0.001434
962.3857	-0.000422
962.6274	0.001329
962.8692	0.000148
963.1109	0.001308
963.3527	-0.000780
963.5944	0.000780
963.8362	0.001476
964.0779	0.001772
964.3197	0.000506
964.5615	0.001982
964.8033	0.000886
965.0451	0.001434
965.2869	0.000295
965.5287	0.001033
965.7705	0.002025
966.0123	0.001329
966.2542	0.001413
966.4960	-0.000548
966.7379	0.000633
966.9797	0.002636
967.2216	0.000295
967.4634	0.001582
967.7053	0.001666
967.9472	0.001371
968.1891	0.000253
968.4310	0.001055
968.6729	0.000738
968.9148	0.000569
969.1567	0.001519
969.3987	0.003501
969.6406	0.000485
969.8825	0.001856
970.1245	0.000970
970.3664	0.002615
970.6084	0.001308
970.8504	0.002025
971.0923	0.002868
971.3343	0.001413
971.5763	0.001329
971.8183	0.000970
972.0603	0.001223
972.3023	0.001476
972.5443	0.000105
972.7864	0.001455
973.0284	0.001751
973.2704	0.001603
973.5125	-0.000527
973.7545	0.001455
973.9966	0.000464
974.2387	0.001223
974.4807	0.000654
974.7228	0.001455
974.9649	0.002130
975.2070	0.001287
975.4491	0.000991
975.6912	0.001329
975.9333	0.001434
976.1755	0.001751
976.4176	0.001982
976.6597	0.002025
976.9019	0.000865
977.1440	0.003269
977.3862	0.000886
977.6283	0.002446
977.8705	0.001413
978.1127	0.001666
978.3549	0.001434
978.5971	0.002172
978.8393	0.001413
979.0815	0.001645
979.3237	0.001076
979.5659	0.001877
979.8082	-0.000801
980.0504	0.002299
980.2926	0.001287
980.5349	0.000548
980.7771	0.000169
981.0194	0.001856
981.2617	0.001582
981.5040	0.003543
981.7462	0.001856
981.9885	-0.000042
982.2308	0.001139
982.4731	0.001940
982.7155	0.000696
982.9578	0.000970
983.2001	0.000380
983.4424	0.002004
983.6848	0.001772
983.9271	0.001055
984.1695	0.002109
984.4118	0.001139
984.6542	0.000717
984.8966	0.002404
985.1390	-0.000295
985.3814	0.000548
985.6238	-0.000211
985.8662	0.001898
986.1086	0.000232
986.3510	-0.000190
986.5934	0.000253
986.8358	0.000190
987.0783	0.001012
987.3207	0.001244
987.5632	0.000464
987.8056	0.001497
988.0481	0.001434
988.2906	0.001666
988.5331	0.000612
988.7756	0.001413
989.0180	0.000485
989.2605	0.000000
989.5031	0.001033
989.7456	0.001181
989.9881	0.001751
990.2306	0.002826
990.4732	0.000907
990.7157	0.000801
990.9582	0.000823
991.2008	0.002151
991.4434	0.000485
991.6859	0.002151
991.9285	-0.000401
992.1711	0.001772
992.4137	0.000569
992.6563	0.000337
992.8989	0.001223
993.1415	0.001055
993.3841	0.001666
993.6267	0.000780
993.8694	0.001118
994.1120	0.001097
994.3547	0.000717
994.5973	0.002046
994.8400	0.001097
995.0826	0.001055
995.3253	0.002510
995.5680	0.000591
995.8107	0.001223
996.0534	0.002868
996.2961	0.001055
996.5388	0.001308
996.7815	0.000063
997.0242	0.000949
997.2670	0.002067
997.5097	0.002510
997.7524	0.000464
997.9952	0.000612
998.2379	-0.000021
998.4807	0.000717
998.7235	0.001898
998.9662	0.001413
999.2090	0.001181
999.4518	0.001603
999.6946	0.000464
999.9374	0.000823
1000.1802	0.001772
1000.4230	0.001160
1000.6659	0.002552
1000.9087	0.000991
1001.1515	0.000422
1001.3944	0.001371
1001.6372	0.000337
1001.8801	0.000464
1002.1230	0.002257
1002.3658	0.000127
1002.6087	0.000970
1002.8516	0.002489
1003.0945	0.000675
1003.3374	0.000464
1003.5803	0.002700
1003.8232	0.001434
1004.0661	0.000654
1004.3091	0.000696
1004.5520	0.000591
1004.7949	-0.000527
1005.0379	0.001603
1005.2808	0.001076
1005.5238	0.000169
1005.7667	0.001118
1006.0097	0.001308
1006.2527	0.001160
1006.4957	0.001244
1006.7387	-0.000063
1006.9817	0.000801
1007.2247	0.001519
1007.4677	0.000738
1007.7107	0.000865
1007.9538	0.001561
1008.1968	-0.000253
1008.4398	0.000295
1008.6829	0.002236
1008.9259	0.000380
1009.1690	0.000970
1009.4121	0.002067
1009.6551	0.002573
1009.8982	0.000591
1010.1413	0.000633
1010.3844	-0.000042
1010.6275	0.001055
1010.8706	0.002172
1011.1137	0.001308
1011.3568	0.001055
1011.6000	0.001961
1011.8431	0.000253
1012.0863	0.000696
1012.3294	0.001308
1012.5726	0.001877
1012.8157	0.001497
1013.0589	0.001287
1013.3021	0.002721
1013.5452	0.000780
1013.7884	0.001497
1014.0316	0.001919
1014.2748	0.001413
1014.5180	0.001329
1014.7613	0.001160
1015.0045	0.001645
1015.2477	0.001961
1015.4909	0.001582
1015.7342	0.000190
1015.9774	0.000274
1016.2207	0.002193
1016.4640	0.001729
1016.7072	0.000295
1016.9505	0.000654
1017.1938	0.000907
1017.4371	0.000380
1017.6804	0.000591
1017.9237	0.001434
1018.1670	-0.000021
1018.4103	0.000759
1018.6536	0.001624
1018.8969	0.001308
1019.1403	0.001012
1019.3836	0.000084
1019.6270	0.000717
1019.8703	0.000443
1020.1137	0.000464
1020.3571	0.001076
1020.6004	0.000991
1020.8438	-0.000527
1021.0872	0.000190
1021.3306	0.000886
1021.5740	0.001835
1021.8174	0.002489
1022.0608	-0.000042
1022.3042	-0.000316
1022.5477	0.001265
1022.7911	-0.000949
1023.0345	0.000464
