# Wavelength	Intensity diff (sample - DMSO)
197.780200 0.000117
197.984200 -0.000766
198.188200 -0.000825
198.392200 0.000273
198.596300 0.000503
198.800300 -0.000368
199.004400 -0.000237
199.208500 -0.000713
199.412600 0.000296
199.616800 -0.000319
199.820900 0.001073
200.025100 -0.000697
200.229200 0.000125
200.433400 -0.001061
200.637600 -0.000407
200.841800 -0.000473
201.046100 -0.000147
201.250300 -0.001733
201.454600 -0.000720
201.658900 -0.001131
201.863100 0.000807
202.067400 -0.000716
202.271800 -0.000403
202.476100 -0.001146
202.680500 -0.000024
202.884800 -0.001419
203.089200 -0.000871
203.293600 -0.000133
203.498000 -0.000269
203.702400 0.000326
203.906900 0.000430
204.111300 0.000715
204.315800 0.000106
204.520300 -0.001000
204.724800 -0.000077
204.929300 -0.000072
205.133800 -0.000269
205.338400 -0.000653
205.543000 -0.000864
205.747500 -0.000888
205.952100 -0.000013
206.156700 -0.001159
206.361400 0.001338
206.566000 0.000480
206.770600 -0.000804
206.975300 -0.000449
207.180000 -0.000097
207.384700 -0.000140
207.589400 0.000360
207.794100 -0.000125
207.998900 0.000032
208.203600 -0.000793
208.408400 0.000016
208.613200 -0.000639
208.818000 0.000152
209.022800 -0.000371
209.227600 0.000641
209.432500 -0.000660
209.637300 -0.000199
209.842200 -0.000329
210.047100 0.000751
210.252000 0.000359
210.456900 -0.000101
210.661800 -0.001353
210.866800 -0.000224
211.071800 -0.001193
211.276700 0.000655
211.481700 -0.000481
211.686700 -0.000083
211.891800 -0.000399
212.096800 -0.001373
212.301800 -0.000404
212.506900 -0.001149
212.712000 -0.000888
212.917100 -0.001113
213.122200 -0.000579
213.327300 -0.001345
213.532500 0.000437
213.737600 0.000039
213.942800 0.000500
214.148000 0.000297
214.353200 0.000465
214.558400 0.000377
214.763600 -0.002094
214.968900 -0.000217
215.174100 -0.001496
215.379400 0.001239
215.584700 -0.000505
215.790000 0.000160
215.995300 -0.001159
216.200700 0.000479
216.406000 -0.000459
216.611400 0.000514
216.816800 -0.000048
217.022200 0.000258
217.227600 -0.000987
217.433000 0.000213
217.638400 -0.000389
217.843900 -0.000072
218.049400 0.000416
218.254800 -0.001292
218.460300 -0.001511
218.665900 -0.000193
218.871400 -0.000920
219.076900 -0.000477
219.282500 -0.001005
219.488100 -0.001086
219.693600 0.000265
219.899200 -0.001113
220.104900 -0.001142
220.310500 0.000307
220.516100 0.000697
220.721800 0.000346
220.927500 -0.000875
221.133200 0.000033
221.338900 0.000068
221.544600 -0.000449
221.750300 -0.000793
221.956100 0.000191
222.161800 0.000170
222.367600 -0.000762
222.573400 -0.000333
222.779200 0.001176
222.985000 0.001506
223.190900 -0.000245
223.396700 0.000314
223.602600 -0.000034
223.808500 0.000103
224.014400 0.000019
224.220300 -0.000235
224.426200 -0.000031
224.632200 -0.000006
224.838100 0.000307
225.044100 -0.000231
225.250100 -0.000101
225.456100 -0.000906
225.662100 0.000331
225.868100 0.000788
226.074200 0.000740
226.280200 -0.000136
226.486300 0.000881
226.692400 0.000240
226.898500 -0.000467
227.104600 -0.000154
227.310700 -0.000329
227.516900 -0.000597
227.723000 -0.000185
227.929200 -0.000853
228.135400 -0.000561
228.341600 -0.000284
228.547800 -0.000551
228.754100 -0.000417
228.960300 0.000536
229.166600 0.000413
229.372900 -0.000541
229.579100 -0.000129
229.785500 -0.000379
229.991800 0.000395
230.198100 0.000723
230.404500 0.000155
230.610800 -0.000361
230.817200 0.001151
231.023600 0.000082
231.230000 -0.000839
231.436400 -0.000821
231.642900 -0.000431
231.849300 0.000156
232.055800 -0.000797
232.262300 -0.001202
232.468800 0.000029
232.675300 -0.000720
232.881800 -0.000552
233.088400 0.000331
233.294900 0.000392
233.501500 -0.000255
233.708100 -0.000793
233.914700 -0.000288
234.121300 0.000810
234.327900 -0.000041
234.534600 0.000498
234.741300 -0.000344
234.947900 -0.000249
235.154600 -0.001921
235.361300 -0.000804
235.568000 0.000341
235.774800 0.000385
235.981500 -0.000301
236.188300 0.000722
236.395100 -0.000133
236.601800 -0.000228
236.808700 -0.000161
237.015500 -0.000323
237.222300 -0.000755
237.429200 -0.001236
237.636000 -0.000512
237.842900 -0.000203
238.049800 -0.000378
238.256700 -0.000097
238.463600 -0.000164
238.670600 -0.000223
238.877500 -0.000431
239.084500 0.000244
239.291500 -0.001120
239.498500 -0.000217
239.705500 0.000708
239.912500 0.000641
240.119500 0.000219
240.326600 -0.000034
240.533700 0.001783
240.740700 -0.000389
240.947800 -0.000344
241.154900 -0.000618
241.362100 -0.001078
241.569200 -0.000301
241.776400 0.000522
241.983500 -0.000684
242.190700 -0.000371
242.397900 0.000353
242.605100 0.000318
242.812400 0.000029
243.019600 -0.000571
243.226900 -0.000139
243.434100 -0.000312
243.641400 -0.000755
243.848700 0.000153
244.056000 0.000409
244.263400 0.000409
244.470700 -0.000639
244.678100 -0.000800
244.885400 -0.000966
245.092800 0.001236
245.300200 0.000012
245.507600 -0.000484
245.715100 -0.001194
245.922500 -0.000576
246.130000 0.000273
246.337500 -0.000878
246.544900 0.000779
246.752400 -0.001426
246.960000 -0.001096
247.167500 -0.001676
247.375000 0.000507
247.582600 -0.000258
247.790200 0.000247
247.997800 -0.000146
248.205400 -0.001324
248.413000 -0.000098
248.620600 -0.000498
248.828300 -0.001278
249.035900 -0.000756
249.243600 -0.000579
249.451300 -0.001535
249.659000 -0.001051
249.866700 -0.001395
250.074500 -0.001289
250.282200 -0.001300
250.490000 -0.000121
250.697800 -0.000568
250.905600 0.000649
251.113400 -0.000175
251.321200 0.000307
251.529000 -0.000101
251.736900 -0.000139
251.944700 -0.000811
252.152600 -0.001314
252.360500 -0.000969
252.568400 0.001102
252.776300 0.000483
252.984300 -0.001064
253.192200 -0.000846
253.400200 -0.000227
253.608200 -0.000137
253.816200 -0.000811
254.024200 0.000514
254.232200 0.001422
254.440200 0.000620
254.648300 0.000010
254.856400 -0.000023
255.064400 -0.000434
255.272500 -0.001012
255.480600 -0.000013
255.688800 0.000686
255.896900 -0.000164
256.105100 -0.001237
256.313200 -0.001121
256.521400 -0.000607
256.729600 0.000072
256.937800 -0.001026
257.146000 0.000441
257.354300 0.000613
257.562500 0.000040
257.770800 0.000880
257.979100 -0.000638
258.187400 -0.000308
258.395700 0.000303
258.604000 -0.000653
258.812400 -0.000309
259.020700 -0.000878
259.229100 -0.001479
259.437500 -0.000474
259.645900 -0.000537
259.854300 -0.000178
260.062700 -0.000567
260.271100 -0.000156
260.479600 -0.000625
260.688100 0.000002
260.896500 -0.001761
261.105000 0.001074
261.313500 0.000089
261.522100 -0.000868
261.730600 0.000201
261.939200 -0.000193
262.147700 0.000628
262.356300 0.000106
262.564900 0.000705
262.773500 -0.000532
262.982200 -0.001170
263.190800 0.000662
263.399500 -0.000702
263.608100 -0.001079
263.816800 -0.000765
264.025500 -0.000002
264.234200 0.000427
264.442900 0.000781
264.651700 -0.000878
264.860400 -0.000164
265.069200 -0.000288
265.278000 -0.001258
265.486800 -0.000847
265.695600 -0.000105
265.904400 0.000416
266.113300 0.000004
266.322100 -0.000467
266.531000 0.000367
266.739900 0.000149
266.948800 -0.000786
267.157700 -0.000365
267.366600 0.000047
267.575500 0.000328
267.784500 0.000223
267.993500 -0.000326
268.202400 -0.000266
268.411400 -0.000600
268.620500 0.000303
268.829500 0.000403
269.038500 0.000213
269.247600 -0.000459
269.456600 0.000244
269.665700 0.000358
269.874800 -0.000448
270.083900 -0.001208
270.293100 0.000620
270.502200 -0.000857
270.711400 -0.000301
270.920500 0.000254
271.129700 -0.001388
271.338900 -0.001466
271.548100 -0.000371
271.757300 -0.000360
271.966600 -0.000354
272.175800 -0.000987
272.385100 -0.001039
272.594400 -0.000146
272.803700 -0.001240
273.013000 0.000462
273.222300 -0.000129
273.431600 -0.000491
273.641000 -0.000910
273.850400 0.000413
274.059700 -0.000481
274.269100 0.000463
274.478500 -0.000238
274.688000 -0.001483
274.897400 -0.000635
275.106900 0.000989
275.316300 -0.000952
275.525800 -0.001334
275.735300 0.000556
275.944800 0.000012
276.154300 -0.000592
276.363900 -0.000649
276.573400 -0.000395
276.783000 -0.000297
276.992600 0.000515
277.202200 -0.001079
277.411800 -0.000245
277.621400 0.000367
277.831000 -0.001215
278.040700 -0.000111
278.250300 -0.000618
278.460000 -0.000059
278.669700 -0.001131
278.879400 -0.000446
279.089100 -0.000413
279.298900 0.000001
279.508600 -0.000399
279.718400 -0.001324
279.928100 0.000371
280.137900 -0.001064
280.347700 0.000099
280.557600 -0.000448
280.767400 -0.001029
280.977200 -0.000273
281.187100 0.001036
281.397000 -0.000279
281.606900 0.000452
281.816800 -0.000462
282.026700 -0.000438
282.236600 0.000026
282.446600 -0.001071
282.656500 0.000976
282.866500 -0.000055
283.076500 0.000430
283.286500 -0.000157
283.496500 -0.000629
283.706500 -0.000512
283.916600 -0.000263
284.126600 0.000529
284.336700 -0.000460
284.546800 0.000198
284.756900 -0.000462
284.967000 -0.000604
285.177100 -0.000505
285.387300 0.001074
285.597400 -0.000350
285.807600 -0.000295
286.017800 -0.000786
286.228000 0.000184
286.438200 -0.000048
286.648400 -0.000196
286.858700 -0.001074
287.068900 0.000318
287.279200 0.000226
287.489500 0.001239
287.699800 -0.000815
287.910100 -0.000396
288.120400 -0.001093
288.330800 0.000250
288.541100 -0.002429
288.751500 -0.000023
288.961900 0.000757
289.172300 0.000774
289.382700 0.000283
289.593100 -0.000368
289.803500 0.001098
290.014000 -0.000420
290.224500 0.000276
290.434900 0.001158
290.645400 0.000476
290.855900 0.000227
291.066500 -0.000857
291.277000 0.000100
291.487500 0.000237
291.698100 0.000385
291.908700 0.000542
292.119300 -0.001229
292.329900 -0.000786
292.540500 -0.000267
292.751100 -0.000657
292.961800 0.001587
293.172400 -0.000920
293.383100 -0.000258
293.593800 0.000159
293.804500 0.000391
294.015200 0.000241
294.226000 0.000458
294.436700 -0.000481
294.647500 -0.000656
294.858200 -0.000659
295.069000 -0.000010
295.279800 0.000209
295.490600 0.000262
295.701500 -0.000484
295.912300 -0.001321
296.123200 -0.000833
296.334000 0.000124
296.544900 -0.001145
296.755800 -0.000262
296.966700 -0.000371
297.177700 -0.000924
297.388600 -0.000804
297.599500 0.000568
297.810500 -0.001019
298.021500 -0.001233
298.232500 -0.000565
298.443500 0.000044
298.654500 -0.000758
298.865600 -0.000364
299.076600 0.000377
299.287700 0.000433
299.498800 -0.001504
299.709900 -0.000346
299.921000 -0.000934
300.132100 -0.001268
300.343200 -0.001336
300.554400 0.000243
300.765500 -0.000431
300.976700 0.000279
301.187900 -0.000455
301.399100 -0.000228
301.610300 -0.000220
301.821500 -0.001344
302.032800 0.000115
302.244100 -0.000667
302.455300 -0.000512
302.666600 -0.000678
302.877900 -0.000874
303.089200 0.000322
303.300600 -0.001156
303.511900 -0.001075
303.723300 0.000631
303.934600 -0.000597
304.146000 0.001991
304.357400 -0.000214
304.568800 0.000234
304.780300 -0.001134
304.991700 0.000124
305.203100 0.000187
305.414600 -0.000593
305.626100 -0.000013
305.837600 -0.001110
306.049100 0.000121
306.260600 -0.000498
306.472200 0.000564
306.683700 -0.000664
306.895300 0.000124
307.106900 -0.000825
307.318400 -0.000175
307.530100 -0.001223
307.741700 -0.000456
307.953300 -0.002176
308.165000 0.000185
308.376600 -0.001566
308.588300 -0.001331
308.800000 -0.000652
309.011700 -0.001760
309.223400 0.000001
309.435100 -0.000246
309.646900 0.000188
309.858600 -0.000339
310.070400 0.000019
310.282200 0.001176
310.494000 -0.001254
310.705800 -0.001613
310.917600 0.000110
311.129500 -0.000368
311.341300 -0.000466
311.553200 -0.000572
311.765100 -0.000097
311.977000 -0.000558
312.188900 0.000102
312.400800 0.000750
312.612700 0.000138
312.824700 -0.001184
313.036600 -0.000597
313.248600 -0.001999
313.460600 0.000430
313.672600 -0.000807
313.884600 -0.000017
314.096700 -0.000516
314.308700 -0.002442
314.520800 0.000093
314.732800 -0.001500
314.944900 -0.000998
315.157000 -0.000961
315.369200 0.000043
315.581300 0.000387
315.793400 0.000360
316.005600 -0.000150
316.217700 -0.000276
316.429900 -0.001838
316.642100 -0.000431
316.854300 0.000371
317.066600 -0.001950
317.278800 -0.001008
317.491100 -0.000825
317.703300 -0.001155
317.915600 -0.001288
318.127900 -0.001545
318.340200 -0.001215
318.552500 -0.001089
318.764900 -0.000772
318.977200 -0.001451
319.189600 0.000104
319.401900 -0.000564
319.614300 -0.000365
319.826700 -0.000100
320.039200 -0.001356
320.251600 -0.000821
320.464000 -0.001310
320.676500 -0.000336
320.889000 0.000553
321.101400 -0.000502
321.313900 -0.001606
321.526500 -0.001591
321.739000 -0.001000
321.951500 -0.001458
322.164100 -0.000315
322.376600 -0.001317
322.589200 -0.000955
322.801800 -0.000368
323.014400 -0.000741
323.227000 -0.000413
323.439700 -0.000972
323.652300 -0.001700
323.865000 -0.001307
324.077700 -0.001926
324.290400 -0.001086
324.503100 0.000036
324.715800 -0.001416
324.928500 -0.000301
325.141200 -0.000803
325.354000 -0.001949
325.566800 -0.001412
325.779600 -0.001497
325.992400 -0.000501
326.205200 -0.002333
326.418000 -0.001819
326.630800 -0.001732
326.843700 -0.002480
327.056600 -0.000986
327.269400 -0.001183
327.482300 -0.001145
327.695200 -0.000820
327.908200 -0.000382
328.121100 -0.001282
328.334000 -0.001260
328.547000 -0.003185
328.760000 -0.000740
328.973000 -0.001780
329.186000 -0.000515
329.399000 -0.001595
329.612000 -0.003528
329.825100 -0.001001
330.038100 -0.001812
330.251200 -0.002170
330.464300 -0.002034
330.677400 -0.002891
330.890500 -0.003711
331.103600 -0.001792
331.316700 -0.002246
331.529900 -0.002836
331.743100 -0.001345
331.956200 -0.002115
332.169400 -0.001299
332.382600 -0.002058
332.595900 -0.002667
332.809100 -0.002097
333.022300 -0.001858
333.235600 -0.003187
333.448900 -0.002150
333.662200 -0.002576
333.875500 -0.001929
334.088800 -0.001750
334.302100 -0.003398
334.515400 -0.002635
334.728800 -0.001035
334.942200 -0.001611
335.155500 -0.001595
335.368900 -0.003855
335.582300 -0.002207
335.795800 -0.002276
336.009200 -0.003321
336.222700 -0.002420
336.436100 -0.003117
336.649600 -0.003690
336.863100 -0.001929
337.076600 -0.004133
337.290100 -0.003325
337.503600 -0.001035
337.717200 -0.001953
337.930700 -0.003402
338.144300 -0.003064
338.357900 -0.001865
338.571500 -0.002516
338.785100 -0.002566
338.998700 -0.002340
339.212400 -0.004411
339.426000 -0.002326
339.639700 -0.002917
339.853300 -0.002846
340.067000 -0.002938
340.280700 -0.002909
340.494500 -0.003986
340.708200 -0.002941
340.921900 -0.003257
341.135700 -0.002037
341.349500 -0.003423
341.563300 -0.003145
341.777100 -0.003947
341.990900 -0.003486
342.204700 -0.004105
342.418500 -0.004403
342.632400 -0.004481
342.846300 -0.003535
343.060100 -0.002371
343.274000 -0.003406
343.487900 -0.004622
343.701900 -0.002940
343.915800 -0.003212
344.129700 -0.004633
344.343700 -0.002938
344.557700 -0.005054
344.771700 -0.003750
344.985700 -0.005110
345.199700 -0.003236
345.413700 -0.004281
345.627700 -0.003040
345.841800 -0.003757
346.055900 -0.004508
346.269900 -0.004470
346.484000 -0.004752
346.698100 -0.002797
346.912300 -0.002351
347.126400 -0.004227
347.340600 -0.005008
347.554700 -0.004189
347.768900 -0.004897
347.983100 -0.006120
348.197300 -0.004034
348.411500 -0.002845
348.625700 -0.004185
348.840000 -0.004569
349.054200 -0.005157
349.268500 -0.005510
349.482800 -0.003802
349.697100 -0.004058
349.911400 -0.003545
350.125700 -0.003946
350.340000 -0.004390
350.554400 -0.005258
350.768700 -0.003784
350.983100 -0.004118
351.197500 -0.003851
351.411900 -0.005068
351.626300 -0.005573
351.840700 -0.004534
352.055200 -0.004688
352.269600 -0.005387
352.484100 -0.004780
352.698600 -0.005616
352.913100 -0.003819
353.127600 -0.005606
353.342100 -0.005099
353.556600 -0.006059
353.771200 -0.006017
353.985800 -0.003556
354.200300 -0.004146
354.414900 -0.004720
354.629500 -0.004832
354.844100 -0.005064
355.058800 -0.004997
355.273400 -0.004086
355.488100 -0.004829
355.702700 -0.004677
355.917400 -0.003665
356.132100 -0.005735
356.346800 -0.005380
356.561500 -0.005465
356.776300 -0.004853
356.991000 -0.006030
357.205800 -0.005174
357.420600 -0.004393
357.635300 -0.005170
357.850100 -0.005162
358.065000 -0.005082
358.279800 -0.004307
358.494600 -0.004822
358.709500 -0.004969
358.924300 -0.004892
359.139200 -0.005099
359.354100 -0.004280
359.569000 -0.004561
359.783900 -0.005476
359.998900 -0.002624
360.213800 -0.005208
360.428800 -0.006474
360.643800 -0.004357
360.858700 -0.003034
361.073700 -0.005310
361.288800 -0.005124
361.503800 -0.005879
361.718800 -0.003454
361.933900 -0.004505
362.148900 -0.005169
362.364000 -0.004308
362.579100 -0.005543
362.794200 -0.003337
363.009300 -0.006133
363.224500 -0.004302
363.439600 -0.004356
363.654800 -0.005415
363.869900 -0.004389
364.085100 -0.004462
364.300300 -0.003475
364.515500 -0.005415
364.730800 -0.004403
364.946000 -0.005119
365.161200 -0.004079
365.376500 -0.006341
365.591800 -0.003762
365.807100 -0.004860
366.022400 -0.004107
366.237700 -0.005462
366.453000 -0.005915
366.668400 -0.004829
366.883700 -0.003573
367.099100 -0.004564
367.314500 -0.004234
367.529900 -0.005303
367.745300 -0.004405
367.960700 -0.004723
368.176100 -0.003794
368.391600 -0.005532
368.607000 -0.004656
368.822500 -0.004730
369.038000 -0.006471
369.253500 -0.004800
369.469000 -0.004630
369.684500 -0.006125
369.900100 -0.005492
370.115600 -0.003168
370.331200 -0.003418
370.546800 -0.004293
370.762400 -0.004617
370.978000 -0.005585
371.193600 -0.003762
371.409200 -0.004522
371.624900 -0.005742
371.840500 -0.006333
372.056200 -0.005021
372.271900 -0.003724
372.487600 -0.005836
372.703300 -0.004371
372.919000 -0.003829
373.134800 -0.004256
373.350500 -0.003819
373.566300 -0.004444
373.782000 -0.003583
373.997800 -0.005236
374.213600 -0.003467
374.429400 -0.005151
374.645300 -0.005435
374.861100 -0.004002
375.077000 -0.004557
375.292800 -0.003301
375.508700 -0.004134
375.724600 -0.004431
375.940500 -0.004493
376.156400 -0.005021
376.372400 -0.005115
376.588300 -0.004067
376.804300 -0.004866
377.020300 -0.005565
377.236200 -0.005136
377.452200 -0.005066
377.668200 -0.004345
377.884300 -0.005094
378.100300 -0.003786
378.316400 -0.005572
378.532400 -0.003908
378.748500 -0.005708
378.964600 -0.005643
379.180700 -0.004509
379.396800 -0.004692
379.612900 -0.004261
379.829100 -0.004601
380.045200 -0.004517
380.261400 -0.005283
380.477600 -0.006395
380.693800 -0.002770
380.910000 -0.005807
381.126200 -0.002140
381.342400 -0.005009
381.558700 -0.002586
381.774900 -0.002562
381.991200 -0.003855
382.207500 -0.004053
382.423800 -0.002783
382.640100 -0.004062
382.856400 -0.004221
383.072800 -0.003243
383.289100 -0.004133
383.505500 -0.003588
383.721900 -0.004721
383.938200 -0.002734
384.154600 -0.003047
384.371100 -0.003620
384.587500 -0.004017
384.803900 -0.004897
385.020400 -0.003043
385.236800 -0.004014
385.453300 -0.005100
385.669800 -0.002620
385.886300 -0.003325
386.102800 -0.003461
386.319400 -0.003011
386.535900 -0.003609
386.752500 -0.004464
386.969000 -0.003314
387.185600 -0.000310
387.402200 -0.003644
387.618800 -0.003151
387.835500 -0.002529
388.052100 -0.003904
388.268700 -0.002920
388.485400 -0.002322
388.702100 -0.005121
388.918800 -0.002187
389.135500 -0.004035
389.352200 -0.003239
389.568900 -0.002508
389.785600 -0.003222
390.002400 -0.002473
390.219200 -0.001144
390.435900 -0.003717
390.652700 -0.002532
390.869500 -0.003917
391.086300 -0.002461
391.303200 -0.002862
391.520000 -0.003186
391.736900 -0.002881
391.953700 -0.001857
392.170600 -0.003169
392.387500 -0.002669
392.604400 -0.004103
392.821300 -0.001333
393.038300 -0.002081
393.255200 -0.003213
393.472200 -0.001801
393.689100 -0.002127
393.906100 -0.001410
394.123100 -0.001881
394.340100 -0.002387
394.557200 -0.001388
394.774200 -0.001080
394.991200 -0.000397
395.208300 -0.002596
395.425400 -0.001261
395.642500 -0.002538
395.859600 -0.001104
396.076700 -0.001470
396.293800 -0.002061
396.510900 -0.002557
396.728100 -0.002485
396.945300 -0.003984
397.162400 -0.001891
397.379600 -0.002843
397.596800 -0.002264
397.814000 -0.001691
398.031300 -0.004703
398.248500 -0.001225
398.465800 -0.001890
398.683000 -0.001063
398.900300 -0.002924
399.117600 -0.000828
399.334900 -0.002041
399.552200 -0.001715
399.769600 0.000209
399.986900 -0.001381
400.204300 -0.000499
400.421600 -0.000407
400.639000 -0.002903
400.856400 -0.002102
401.073800 -0.001121
401.291200 -0.002042
401.508700 -0.001592
401.726100 -0.001813
401.943600 0.000149
402.161000 -0.000037
402.378500 0.000157
402.596000 -0.000899
402.813500 0.000929
403.031000 -0.002273
403.248600 -0.001852
403.466100 -0.000494
403.683700 -0.001025
403.901300 -0.000459
404.118900 -0.000130
404.336500 -0.000511
404.554100 -0.000368
404.771700 -0.001686
404.989300 -0.000554
405.207000 -0.001321
405.424600 -0.002003
405.642300 -0.001311
405.860000 -0.001092
406.077700 -0.002464
406.295400 -0.000701
406.513100 -0.000312
406.730900 -0.000122
406.948600 -0.000226
407.166400 -0.002253
407.384200 -0.000674
407.602000 -0.000020
407.819800 -0.001300
408.037600 -0.002287
408.255400 0.000222
408.473300 -0.000966
408.691100 -0.001464
408.909000 -0.000470
409.126900 -0.000080
409.344800 -0.000125
409.562700 0.001071
409.780600 -0.002256
409.998500 -0.002063
410.216500 0.000613
410.434400 -0.000281
410.652400 0.000489
410.870400 -0.000192
411.088400 -0.000719
411.306400 0.000050
411.524400 -0.001566
411.742400 0.000159
411.960500 0.000149
412.178500 -0.000832
412.396600 0.000494
412.614700 0.000276
412.832800 0.000054
413.050900 -0.002167
413.269000 0.000547
413.487100 -0.003111
413.705300 -0.000821
413.923400 -0.001060
414.141600 -0.000192
414.359800 -0.000402
414.578000 -0.000481
414.796200 0.000438
415.014400 -0.001500
415.232600 0.001468
415.450900 -0.000114
415.669200 0.001517
415.887400 -0.001492
416.105700 -0.002214
416.324000 -0.001809
416.542300 -0.000547
416.760600 -0.000704
416.979000 0.000128
417.197300 0.000329
417.415700 0.000322
417.634100 0.000416
417.852400 -0.000895
418.070800 -0.000304
418.289300 -0.000923
418.507700 -0.000347
418.726100 0.000663
418.944600 0.000761
419.163000 0.000870
419.381500 -0.000560
419.600000 -0.000743
419.818500 -0.000951
420.037000 0.000586
420.255500 0.000625
420.474100 -0.000486
420.692600 0.000147
420.911200 -0.000304
421.129800 -0.000687
421.348300 -0.000513
421.566900 -0.000204
421.785600 -0.002029
422.004200 -0.001540
422.222800 0.000147
422.441500 -0.002011
422.660100 0.001069
422.878800 -0.000531
423.097500 -0.000458
423.316200 -0.001154
423.534900 0.000270
423.753600 -0.000669
423.972400 0.000066
424.191100 -0.001753
424.409900 0.000340
424.628700 0.000650
424.847500 -0.000884
425.066300 -0.000999
425.285100 -0.000377
425.503900 -0.000296
425.722800 0.000379
425.941600 -0.000093
426.160500 0.000111
426.379300 -0.000279
426.598200 -0.000262
426.817100 0.000765
427.036100 -0.000863
427.255000 0.000006
427.473900 -0.000606
427.692900 -0.001790
427.911800 -0.002090
428.130800 -0.001070
428.349800 -0.000969
428.568800 0.000174
428.787800 0.000548
429.006800 -0.001035
429.225900 -0.001576
429.444900 -0.001073
429.664000 0.000785
429.883100 -0.001142
430.102200 -0.002046
430.321300 -0.000716
430.540400 -0.001324
430.759500 0.000166
430.978700 -0.002413
431.197800 -0.001139
431.417000 0.001610
431.636200 -0.000591
431.855300 0.000052
432.074500 -0.000532
432.293800 -0.000057
432.513000 -0.001650
432.732200 -0.000212
432.951500 -0.001583
433.170700 -0.002230
433.390000 0.001148
433.609300 -0.002398
433.828600 -0.000274
434.047900 -0.001982
434.267300 -0.002370
434.486600 0.001128
434.705900 0.001614
434.925300 -0.001835
435.144700 -0.000078
435.364100 -0.000883
435.583500 -0.000472
435.802900 0.000306
436.022300 -0.000289
436.241800 -0.000916
436.461200 -0.000964
436.680700 -0.000791
436.900100 -0.001178
437.119600 -0.000028
437.339100 0.000090
437.558600 0.000502
437.778200 0.000172
437.997700 0.000284
438.217300 0.000397
438.436800 0.000595
438.656400 -0.000352
438.876000 0.001026
439.095600 0.000488
439.315200 -0.002005
439.534800 0.001793
439.754500 0.001157
439.974100 -0.002014
440.193800 -0.001758
440.413500 -0.001297
440.633100 -0.000785
440.852800 0.000036
441.072500 -0.001627
441.292300 -0.001363
441.512000 -0.000551
441.731800 -0.002298
441.951500 -0.000424
442.171300 -0.000546
442.391100 0.000645
442.610900 -0.000610
442.830700 0.000975
443.050500 -0.000227
443.270300 0.001907
443.490200 0.002463
443.710100 -0.000983
443.929900 -0.000332
444.149800 -0.000719
444.369700 0.000522
444.589600 0.000916
444.809500 -0.000690
445.029500 -0.001897
445.249400 0.000884
445.469400 -0.001443
445.689400 -0.000314
445.909300 0.001904
446.129300 -0.000170
446.349300 -0.001244
446.569400 -0.001246
446.789400 -0.000670
447.009400 -0.002403
447.229500 0.001039
447.449600 0.000195
447.669600 -0.000744
447.889700 -0.000687
448.109800 0.000442
448.330000 0.001287
448.550100 -0.001560
448.770200 0.000132
448.990400 -0.000312
449.210600 -0.001570
449.430700 0.000990
449.650900 -0.000692
449.871100 0.000219
450.091400 -0.001160
450.311600 -0.000402
450.531800 0.000230
450.752100 -0.001160
450.972400 0.001569
451.192600 0.000890
451.412900 -0.002197
451.633200 0.001428
451.853500 -0.000350
452.073900 -0.000899
452.294200 -0.001068
452.514600 -0.000730
452.734900 0.001467
452.955300 0.000496
453.175700 -0.000113
453.396100 -0.000970
453.616500 0.000728
453.836900 0.000750
454.057400 -0.001171
454.277800 -0.000271
454.498300 0.000718
454.718800 0.000653
454.939300 -0.000061
455.159700 0.000809
455.380300 -0.000309
455.600800 0.000698
455.821300 -0.000210
456.041900 0.000490
456.262400 -0.001164
456.483000 -0.001434
456.703600 0.002395
456.924200 -0.000752
457.144800 0.000401
457.365400 -0.001047
457.586000 -0.000315
457.806700 0.000117
458.027400 -0.000307
458.248000 0.000839
458.468700 -0.000762
458.689400 0.001080
458.910100 -0.001342
459.130800 -0.002431
459.351600 0.000729
459.572300 0.000303
459.793100 0.001221
460.013800 0.001043
460.234600 -0.001844
460.455400 -0.001569
460.676200 0.001664
460.897000 -0.000710
461.117800 -0.001353
461.338700 0.001591
461.559500 -0.002094
461.780400 0.001445
462.001300 -0.002687
462.222200 0.001195
462.443100 0.000485
462.664000 -0.001135
462.884900 -0.000014
463.105900 -0.000759
463.326800 -0.000343
463.547800 -0.000980
463.768700 -0.000923
463.989700 -0.001458
464.210700 0.001254
464.431700 -0.000719
464.652800 -0.000314
464.873800 -0.002368
465.094800 -0.000831
465.315900 -0.000754
465.537000 0.000059
465.758100 -0.002353
465.979200 -0.000824
466.200300 -0.000518
466.421400 -0.000153
466.642500 -0.000550
466.863700 -0.000277
467.084800 0.000901
467.306000 -0.000269
467.527200 -0.001746
467.748400 -0.001001
467.969600 -0.001132
468.190800 0.000025
468.412000 -0.001779
468.633300 -0.002683
468.854500 -0.001523
469.075800 -0.000727
469.297000 0.000650
469.518300 -0.001245
469.739600 -0.001379
469.961000 0.002386
470.182300 0.002966
470.403600 0.000277
470.625000 -0.000283
470.846300 -0.001449
471.067700 0.000199
471.289100 -0.002294
471.510500 0.001025
471.731900 0.001075
471.953300 0.000734
472.174800 -0.002153
472.396200 0.001585
472.617700 -0.000717
472.839100 0.001100
473.060600 -0.002107
473.282100 -0.002514
473.503600 0.000064
473.725100 -0.002251
473.946700 -0.002225
474.168200 -0.000394
474.389800 0.000081
474.611300 -0.001261
474.832900 -0.000233
475.054500 -0.000703
475.276100 -0.000101
475.497700 0.000708
475.719300 -0.000118
475.941000 -0.001388
476.162600 -0.000614
476.384300 -0.000513
476.606000 0.000218
476.827700 -0.000502
477.049400 0.000056
477.271100 -0.000900
477.492800 0.000080
477.714500 0.001396
477.936300 -0.002105
478.158000 -0.000657
478.379800 -0.003096
478.601600 -0.000717
478.823400 -0.000963
479.045200 -0.000762
479.267000 -0.000429
479.488800 0.000279
479.710700 -0.001399
479.932500 -0.000290
480.154400 -0.002153
480.376300 0.001612
480.598200 -0.001692
480.820100 0.001218
481.042000 0.001028
481.263900 -0.000948
481.485900 0.000926
481.707800 0.000568
481.929800 -0.000231
482.151700 -0.001239
482.373700 0.001057
482.595700 0.000479
482.817700 -0.000881
483.039800 -0.001107
483.261800 -0.000435
483.483800 -0.003045
483.705900 -0.000270
483.928000 -0.000906
484.150100 -0.001601
484.372100 -0.000740
484.594300 0.000657
484.816400 0.000510
485.038500 -0.000834
485.260600 -0.001686
485.482800 -0.003238
485.705000 -0.002799
485.927100 -0.003136
486.149300 -0.003298
486.371500 -0.002479
486.593700 -0.004156
486.816000 -0.001671
487.038200 -0.002618
487.260500 -0.002535
487.482700 -0.000509
487.705000 -0.000371
487.927300 -0.001259
488.149600 -0.001503
488.371900 0.000058
488.594200 0.000287
488.816500 0.001190
489.038900 -0.000389
489.261200 -0.000571
489.483600 0.001704
489.706000 0.000097
489.928400 0.000198
490.150800 -0.000360
490.373200 0.000195
490.595600 0.000385
490.818000 -0.000389
491.040500 -0.001608
491.263000 0.001401
491.485400 -0.002414
491.707900 0.000188
491.930400 -0.001838
492.152900 0.000585
492.375500 0.002417
492.598000 -0.001234
492.820500 -0.001820
493.043100 -0.001676
493.265700 -0.001743
493.488200 -0.000561
493.710800 0.001176
493.933400 0.000973
494.156100 -0.000622
494.378700 -0.002603
494.601300 -0.001957
494.824000 -0.001958
495.046600 -0.000427
495.269300 -0.000807
495.492000 -0.000837
495.714700 0.000447
495.937400 -0.000213
496.160100 -0.001137
496.382900 -0.000992
496.605600 -0.000557
496.828400 -0.000608
497.051100 0.000118
497.273900 -0.001816
497.496700 -0.001212
497.719500 -0.000264
497.942300 0.000128
498.165200 -0.002826
498.388000 -0.000765
498.610900 0.000015
498.833700 -0.000019
499.056600 0.000153
499.279500 -0.000748
499.502400 -0.000684
499.725300 -0.001823
499.948200 -0.000652
500.171200 0.001036
500.394100 -0.001764
500.617100 -0.000182
500.840000 -0.000691
501.063000 -0.001022
501.286000 -0.002467
501.509000 0.000860
501.732000 0.000034
501.955100 -0.000990
502.178100 -0.000097
502.401200 -0.000392
502.624200 -0.001263
502.847300 0.000614
503.070400 0.001397
503.293500 0.000259
503.516600 0.000388
503.739700 -0.000733
503.962800 0.000730
504.186000 0.000814
504.409200 0.000072
504.632300 -0.000195
504.855500 -0.000660
505.078700 -0.001286
505.301900 -0.002499
505.525100 -0.002351
505.748300 -0.001345
505.971600 0.000989
506.194800 -0.001574
506.418100 -0.002130
506.641400 0.000550
506.864700 -0.001278
507.088000 0.000524
507.311300 0.000676
507.534600 -0.001624
507.757900 -0.002633
507.981300 -0.001743
508.204600 -0.000139
508.428000 -0.001160
508.651400 0.001699
508.874800 -0.001572
509.098200 -0.000397
509.321600 0.000707
509.545000 -0.000474
509.768500 -0.000901
509.991900 -0.000107
510.215400 -0.001536
510.438800 0.001748
510.662300 -0.001026
510.885800 0.000257
511.109300 -0.002664
511.332900 -0.000621
511.556400 -0.001051
511.779900 -0.001705
512.003500 -0.002377
512.227000 -0.002714
512.450600 0.001533
512.674200 0.000004
512.897800 -0.001919
513.121400 -0.001947
513.345100 -0.000812
513.568700 0.000777
513.792300 0.000897
514.016000 0.000070
514.239700 -0.002072
514.463400 -0.000348
514.687100 0.000935
514.910800 0.000221
515.134500 -0.000460
515.358200 0.000341
515.581900 0.000046
515.805700 -0.000939
516.029500 -0.000233
516.253200 -0.000235
516.477000 -0.002525
516.700800 -0.002061
516.924600 0.001564
517.148500 -0.000064
517.372300 -0.002448
517.596100 0.000051
517.820000 -0.004108
518.043900 -0.001495
518.267700 -0.000459
518.491600 -0.000310
518.715500 0.000006
518.939500 -0.000831
519.163400 0.000663
519.387300 -0.001400
519.611300 -0.001080
519.835200 -0.000923
520.059200 -0.000985
520.283200 -0.001813
520.507200 -0.000775
520.731200 -0.000912
520.955200 -0.001945
521.179200 0.000252
521.403300 -0.000173
521.627300 0.001619
521.851400 0.001058
522.075500 0.000202
522.299600 0.000452
522.523700 0.001358
522.747800 -0.000044
522.971900 -0.002276
523.196000 -0.000972
523.420200 0.000449
523.644300 0.001056
523.868500 0.000037
524.092700 0.000167
524.316900 -0.000631
524.541100 -0.000230
524.765300 0.000051
524.989500 -0.001306
525.213800 -0.002262
525.438000 -0.001278
525.662300 -0.002917
525.886500 -0.000424
526.110800 -0.000332
526.335100 -0.000667
526.559400 0.001043
526.783700 -0.000870
527.008100 -0.000242
527.232400 0.000561
527.456800 -0.001344
527.681100 0.000242
527.905500 0.000786
528.129900 -0.000311
528.354300 0.000185
528.578700 -0.001496
528.803100 -0.000973
529.027600 0.000874
529.252000 -0.001977
529.476500 -0.000050
529.700900 -0.001224
529.925400 -0.000253
530.149900 0.001394
530.374400 -0.002551
530.598900 -0.000350
530.823400 -0.000957
531.048000 -0.000426
531.272500 -0.001141
531.497100 -0.000867
531.721700 -0.000104
531.946200 -0.000927
532.170800 0.001211
532.395400 0.001219
532.620000 -0.000898
532.844700 0.000362
533.069300 -0.001716
533.294000 -0.001054
533.518600 0.000014
533.743300 0.002113
533.968000 -0.003007
534.192700 0.000935
534.417400 -0.000994
534.642100 -0.001789
534.866800 -0.000352
535.091600 -0.000291
535.316300 -0.000028
535.541100 -0.000570
535.765900 -0.000229
535.990700 -0.001991
536.215500 0.000629
536.440300 0.001229
536.665100 -0.002227
536.889900 0.000047
537.114800 0.001093
537.339600 0.000779
537.564500 -0.002364
537.789400 -0.000466
538.014300 -0.000697
538.239200 -0.001312
538.464100 -0.000708
538.689000 0.001970
538.913900 0.000137
539.138900 -0.000119
539.363800 -0.000833
539.588800 0.000391
539.813800 -0.003038
540.038800 -0.001852
540.263800 -0.001316
540.488800 -0.001741
540.713800 0.001358
540.938900 0.000991
541.163900 0.000750
541.389000 0.001727
541.614000 0.001024
541.839100 0.000197
542.064200 -0.000021
542.289300 -0.002903
542.514400 -0.000464
542.739600 0.000378
542.964700 -0.001532
543.189900 -0.002548
543.415000 -0.002469
543.640200 -0.000783
543.865400 -0.001005
544.090600 0.000264
544.315800 -0.000027
544.541000 -0.001384
544.766200 -0.001272
544.991500 -0.000062
545.216700 -0.000529
545.442000 -0.002696
545.667300 -0.001429
545.892600 -0.000354
546.117900 -0.000836
546.343200 -0.002852
546.568500 -0.000450
546.793800 -0.002212
547.019200 -0.000158
547.244500 0.000630
547.469900 -0.000733
547.695300 0.000177
547.920600 -0.000645
548.146000 -0.001479
548.371500 -0.000381
548.596900 -0.000624
548.822300 -0.000191
549.047800 -0.000673
549.273200 -0.000249
549.498700 0.001723
549.724200 -0.001243
549.949600 -0.001529
550.175100 0.001507
550.400700 0.001684
550.626200 -0.002521
550.851700 -0.001867
551.077300 -0.002198
551.302800 -0.000071
551.528400 0.000777
551.754000 -0.001280
551.979600 -0.002323
552.205200 -0.000100
552.430800 0.000235
552.656400 -0.000093
552.882000 -0.001725
553.107700 -0.000051
553.333300 -0.000241
553.559000 0.001056
553.784700 -0.000898
554.010400 -0.002284
554.236100 -0.000719
554.461800 -0.000137
554.687500 -0.001730
554.913200 -0.000107
555.139000 0.000036
555.364800 -0.000161
555.590500 0.000322
555.816300 0.001211
556.042100 -0.002607
556.267900 -0.001312
556.493700 -0.002323
556.719500 0.001323
556.945400 -0.001078
557.171200 0.000153
557.397100 -0.001248
557.623000 -0.000097
557.848800 -0.000308
558.074700 -0.000097
558.300600 0.000687
558.526600 -0.000072
558.752500 -0.001413
558.978400 0.001245
559.204400 0.000722
559.430300 0.000155
559.656300 0.000042
559.882300 0.000481
560.108300 -0.000016
560.334300 0.000111
560.560300 0.000603
560.786300 0.000210
561.012400 0.001181
561.238400 -0.000764
561.464500 -0.001287
561.690500 -0.000047
561.916600 0.000424
562.142700 0.001286
562.368800 -0.001267
562.594900 -0.002738
562.821100 -0.002192
563.047200 -0.001910
563.273300 -0.000803
563.499500 0.002389
563.725700 -0.001596
563.951900 -0.000100
564.178100 -0.000942
564.404300 -0.000583
564.630500 -0.002152
564.856700 0.000246
565.082900 -0.000559
565.309200 -0.001294
565.535500 -0.001294
565.761700 0.000760
565.988000 -0.001801
566.214300 0.002134
566.440600 0.001822
566.666900 -0.000931
566.893200 -0.001282
567.119600 0.000617
567.345900 -0.001238
567.572300 0.000724
567.798700 0.002398
568.025000 0.000021
568.251400 -0.001314
568.477800 0.001901
568.704300 -0.000008
568.930700 0.001358
569.157100 -0.000590
569.383600 0.000621
569.610000 0.001295
569.836500 0.001013
570.063000 0.000849
570.289500 -0.000932
570.516000 -0.002613
570.742500 0.001839
570.969000 0.000519
571.195600 -0.003090
571.422100 -0.000322
571.648700 0.000469
571.875200 0.000679
572.101800 -0.000077
572.328400 -0.003655
572.555000 -0.000170
572.781600 -0.005223
573.008200 -0.003167
573.234900 -0.003152
573.461500 -0.000720
573.688200 -0.001094
573.914900 -0.003574
574.141500 -0.003856
574.368200 -0.003267
574.594900 -0.001197
574.821600 0.000515
575.048400 -0.003984
575.275100 -0.000528
575.501800 -0.005909
575.728600 -0.003046
575.955400 -0.000780
576.182100 -0.005776
576.408900 -0.003550
576.635700 -0.002686
576.862600 -0.003421
577.089400 -0.001924
577.316200 -0.001694
577.543100 -0.005511
577.769900 -0.000738
577.996800 -0.004622
578.223700 -0.007620
578.450500 -0.004667
578.677400 -0.003268
578.904400 -0.004471
579.131300 -0.004182
579.358200 -0.002303
579.585100 -0.000726
579.812100 -0.004850
580.039100 -0.004639
580.266000 0.000471
580.493000 -0.003788
580.720000 -0.003314
580.947000 -0.000131
581.174100 -0.004641
581.401100 -0.002885
581.628100 -0.003343
581.855200 -0.003275
582.082200 -0.003125
582.309300 -0.001437
582.536400 -0.001640
582.763500 0.000496
582.990600 -0.001601
583.217700 0.002514
583.444900 0.000645
583.672000 -0.002108
583.899100 -0.001093
584.126300 -0.000056
584.353500 0.003863
584.580700 0.000876
584.807900 -0.006792
585.035100 -0.005434
585.262300 -0.006298
585.489500 -0.006293
585.716700 -0.002781
585.944000 -0.002423
586.171300 -0.001839
586.398500 -0.001355
586.625800 -0.004391
586.853100 -0.001591
587.080400 -0.000782
587.307700 0.003298
587.535000 -0.002220
587.762400 0.003317
587.989700 0.000685
588.217100 -0.003249
588.444500 -0.006092
588.671800 0.000593
588.899200 -0.001418
589.126600 -0.001323
589.354000 -0.005255
589.581500 0.001709
589.808900 -0.003558
590.036300 -0.002711
590.263800 -0.001265
590.491300 -0.001269
590.718700 0.001255
590.946200 0.000518
591.173700 -0.001812
591.401200 -0.003666
591.628800 -0.003763
591.856300 0.001069
592.083800 -0.001338
592.311400 0.000584
592.538900 -0.000868
592.766500 -0.003937
592.994100 -0.005248
593.221700 -0.004700
593.449300 -0.003990
593.676900 -0.000611
593.904600 -0.003264
594.132200 -0.001034
594.359800 -0.002753
594.587500 0.001654
594.815200 -0.000078
595.042900 -0.003615
595.270500 -0.005557
595.498300 -0.002705
595.726000 -0.005520
595.953700 -0.004228
596.181400 -0.002300
596.409200 -0.002848
596.636900 -0.002346
596.864700 -0.004144
597.092500 -0.003588
597.320300 -0.004357
597.548100 -0.005865
597.775900 -0.005377
598.003700 -0.003121
598.231500 -0.004795
598.459400 -0.005393
598.687200 -0.004820
598.915100 -0.008159
599.143000 -0.004391
599.370900 -0.007738
599.598800 -0.005212
599.826700 -0.001765
600.054600 -0.005792
600.282500 -0.004318
600.510500 -0.001474
600.738400 -0.000015
600.966400 -0.000148
601.194400 -0.001910
601.422300 0.000233
601.650300 -0.002263
601.878300 -0.000306
602.106400 -0.004298
602.334400 -0.003785
602.562400 -0.003039
602.790500 -0.003428
603.018500 -0.002228
603.246600 -0.002512
603.474700 -0.001139
603.702800 -0.005260
603.930900 -0.006853
604.159000 -0.007114
604.387100 -0.005423
604.615200 -0.005003
604.843400 -0.001368
605.071500 -0.003334
605.299700 -0.002577
605.527900 -0.001796
605.756100 -0.001558
605.984300 -0.000595
606.212500 0.001452
606.440700 0.001946
606.668900 0.001581
606.897200 0.001068
607.125400 -0.001184
607.353700 0.001350
607.581900 -0.003027
607.810200 0.000292
608.038500 -0.001607
608.266800 0.001370
608.495100 0.002447
608.723500 0.002648
608.951800 -0.003132
609.180100 0.001610
609.408500 -0.002625
609.636900 -0.000160
609.865300 -0.003612
610.093600 -0.001458
610.322000 -0.003222
610.550500 -0.003314
610.778900 -0.000884
611.007300 0.000348
611.235700 -0.003945
611.464200 -0.004146
611.692700 -0.000408
611.921100 -0.002304
612.149600 -0.005336
612.378100 -0.003105
612.606600 -0.003951
612.835100 -0.003765
613.063700 -0.003516
613.292200 0.000159
613.520800 -0.001135
613.749300 -0.001469
613.977900 -0.002999
614.206500 -0.003355
614.435100 -0.003234
614.663700 -0.004167
614.892300 -0.000915
615.120900 -0.001555
615.349500 -0.005874
615.578200 -0.002284
615.806800 -0.002816
616.035500 -0.002247
616.264200 -0.003011
616.492900 -0.002227
616.721600 -0.001838
616.950300 -0.001249
617.179000 0.000014
617.407700 -0.001706
617.636500 0.000643
617.865200 -0.002448
618.094000 -0.002026
618.322700 -0.000260
618.551500 0.000595
618.780300 0.000288
619.009100 -0.000679
619.237900 -0.002505
619.466700 -0.002205
619.695600 0.000931
619.924400 -0.001703
620.153300 -0.001899
620.382100 -0.001940
620.611000 -0.000243
620.839900 0.000372
621.068800 0.000387
621.297700 -0.000563
621.526600 0.001251
621.755600 0.000935
621.984500 -0.000688
622.213500 0.000406
622.442400 -0.001430
622.671400 -0.003318
622.900400 0.000378
623.129400 -0.002385
623.358400 -0.001259
623.587400 -0.002185
623.816400 0.002188
624.045400 -0.001404
624.274500 -0.001363
624.503500 0.000048
624.732600 0.001220
624.961700 -0.001611
625.190800 0.000715
625.419900 -0.000491
625.649000 -0.002011
625.878100 -0.001473
626.107200 0.001332
626.336400 0.000593
626.565500 -0.004184
626.794700 -0.000835
627.023800 0.001134
627.253000 0.000361
627.482200 -0.001355
627.711400 0.000540
627.940600 -0.003166
628.169800 -0.001100
628.399100 0.000742
628.628300 0.000284
628.857600 0.000499
629.086800 0.000295
629.316100 -0.000446
629.545400 -0.000359
629.774700 -0.002372
630.004000 -0.001462
630.233300 -0.001568
630.462600 -0.000496
630.692000 -0.002396
630.921300 -0.001760
631.150700 -0.000339
631.380100 0.000438
631.609400 -0.000371
631.838800 -0.000704
632.068200 0.001542
632.297600 -0.000965
632.527100 -0.000969
632.756500 -0.001365
632.985900 -0.000789
633.215400 -0.001273
633.444800 -0.000274
633.674300 -0.001118
633.903800 -0.000299
634.133300 -0.000820
634.362800 -0.000306
634.592300 -0.000528
634.821800 -0.000496
635.051400 -0.001900
635.280900 -0.001667
635.510500 0.001961
635.740000 -0.001088
635.969600 -0.002162
636.199200 -0.000253
636.428800 0.000271
636.658400 -0.001097
636.888000 -0.000981
637.117700 -0.001274
637.347300 0.000728
637.577000 -0.001931
637.806600 -0.003420
638.036300 -0.000018
638.266000 -0.000384
638.495700 -0.001837
638.725400 0.000056
638.955100 -0.001280
639.184800 -0.000381
639.414500 -0.001045
639.644300 0.000270
639.874000 -0.001312
640.103800 -0.000432
640.333600 0.000889
640.563300 0.002004
640.793100 0.000492
641.022900 0.000232
641.252800 -0.000676
641.482600 -0.002146
641.712400 0.000575
641.942300 -0.000285
642.172100 -0.000545
642.402000 0.000616
642.631900 0.001397
642.861700 -0.000703
643.091600 -0.001243
643.321600 0.000215
643.551500 0.001262
643.781400 -0.000956
644.011300 -0.000183
644.241300 -0.001712
644.471200 -0.000209
644.701200 0.000252
644.931200 -0.000947
645.161200 0.000589
645.391200 0.000518
645.621200 0.000177
645.851200 0.000599
646.081200 0.000155
646.311300 -0.000858
646.541300 -0.001904
646.771400 0.000739
647.001500 -0.000557
647.231600 -0.000507
647.461600 -0.001246
647.691800 0.000400
647.921900 0.000294
648.152000 0.000147
648.382100 0.000555
648.612300 -0.001706
648.842400 0.000154
649.072600 -0.002105
649.302800 0.000188
649.532900 -0.001877
649.763100 -0.000172
649.993300 0.000087
650.223600 -0.001720
650.453800 -0.000125
650.684000 -0.000071
650.914300 -0.000567
651.144500 -0.000702
651.374800 -0.001487
651.605100 -0.000721
651.835400 0.000682
652.065700 0.000127
652.296000 0.001234
652.526300 0.000933
652.756600 0.000185
652.987000 -0.000471
653.217300 -0.000024
653.447700 -0.002046
653.678000 -0.000593
653.908400 0.000029
654.138800 -0.002123
654.369200 -0.001839
654.599600 -0.001233
654.830000 -0.000580
655.060500 -0.004946
655.290900 -0.012418
655.521300 -0.042379
655.751800 -0.055941
655.982300 -0.006724
656.212800 -0.002245
656.443300 -0.003363
656.673800 -0.002840
656.904300 -0.006585
657.134800 -0.046669
657.365300 -0.036875
657.595900 -0.026118
657.826400 -0.026541
658.057000 -0.027634
658.287500 -0.026429
658.518100 -0.019386
658.748700 -0.021541
658.979300 -0.018881
659.209900 -0.017632
659.440600 -0.010395
659.671200 -0.006924
659.901800 -0.002080
660.132500 -0.000355
660.363200 -0.001578
660.593800 -0.002113
660.824500 0.000155
661.055200 -0.000520
661.285900 -0.001072
661.516600 -0.000763
661.747400 -0.002074
661.978100 -0.000142
662.208800 -0.001870
662.439600 -0.000240
662.670400 -0.001957
662.901100 -0.001257
663.131900 -0.000412
663.362700 -0.000230
663.593500 -0.001446
663.824300 -0.000676
664.055200 0.000939
664.286000 -0.000032
664.516800 -0.001361
664.747700 -0.001855
664.978600 -0.000125
665.209400 -0.000994
665.440300 -0.001950
665.671200 -0.001110
665.902100 -0.001642
666.133000 0.000282
666.364000 -0.000408
666.594900 -0.000373
666.825900 -0.000156
667.056800 -0.001212
667.287800 -0.000697
667.518800 -0.001245
667.749700 -0.000220
667.980700 -0.000841
668.211700 0.000434
668.442800 -0.000008
668.673800 -0.001833
668.904800 -0.000628
669.135900 -0.000852
669.366900 -0.000570
669.598000 0.000543
669.829100 0.000104
670.060200 0.000740
670.291300 -0.001393
670.522400 -0.000240
670.753500 -0.000384
670.984600 -0.001298
671.215700 -0.000824
671.446900 -0.002680
671.678100 -0.000931
671.909200 -0.000358
672.140400 -0.001434
672.371600 0.000630
672.602800 -0.000938
672.834000 -0.001053
673.065200 -0.000446
673.296400 0.001112
673.527700 -0.000635
673.758900 -0.001037
673.990200 -0.000738
674.221400 -0.001368
674.452700 0.000892
674.684000 -0.000411
674.915300 -0.001891
675.146600 -0.000264
675.377900 -0.000208
675.609300 -0.000453
675.840600 -0.001973
676.071900 -0.000211
676.303300 -0.000574
676.534700 0.000608
676.766100 -0.001178
676.997400 -0.001534
677.228800 0.000263
677.460200 -0.000468
677.691700 -0.000949
677.923100 -0.001759
678.154500 0.000816
678.386000 -0.000050
678.617400 -0.001044
678.848900 -0.000154
679.080400 0.000500
679.311900 -0.001715
679.543400 -0.000133
679.774900 -0.000889
680.006400 -0.000691
680.237900 -0.001353
680.469400 -0.001324
680.701000 -0.002491
680.932500 -0.001514
681.164100 -0.000640
681.395700 -0.000907
681.627300 -0.000821
681.858900 0.000407
682.090500 -0.000639
682.322100 0.000472
682.553700 0.000272
682.785400 0.000152
683.017000 -0.002081
683.248700 -0.000186
683.480300 -0.000245
683.712000 0.001330
683.943700 -0.000956
684.175400 0.000553
684.407100 -0.001170
684.638800 0.000639
684.870500 -0.002483
685.102300 -0.002237
685.334000 -0.000693
685.565800 -0.001984
685.797500 -0.001248
686.029300 -0.000067
686.261100 -0.003291
686.492900 -0.000207
686.724700 -0.000064
686.956500 0.000955
687.188300 -0.001505
687.420200 -0.001815
687.652000 -0.001466
687.883800 -0.000531
688.115700 -0.000613
688.347600 -0.001675
688.579500 0.000656
688.811400 -0.000686
689.043300 -0.001760
689.275200 -0.000866
689.507100 0.000027
689.739000 0.001331
689.971000 0.001050
690.202900 -0.000298
690.434900 -0.001086
690.666900 0.000230
690.898800 -0.001767
691.130800 -0.001618
691.362800 -0.001197
691.594800 -0.000230
691.826900 -0.000188
692.058900 -0.000543
692.290900 -0.001450
692.523000 -0.001478
692.755000 -0.001123
692.987100 -0.001408
693.219200 -0.000550
693.451300 -0.001820
693.683400 -0.002146
693.915500 -0.000578
694.147600 -0.000111
694.379700 -0.001718
694.611900 -0.001254
694.844000 -0.001680
695.076200 0.002024
695.308300 -0.002842
695.540500 -0.001327
695.772700 0.000763
696.004900 -0.002215
696.237100 -0.001663
696.469300 -0.000078
696.701600 -0.001925
696.933800 -0.001278
697.166000 0.000203
697.398300 -0.002603
697.630600 -0.002473
697.862800 -0.002181
698.095100 -0.004077
698.327400 -0.000858
698.559700 -0.001071
698.792000 0.001183
699.024300 -0.001095
699.256700 -0.000684
699.489000 0.000755
699.721400 -0.001834
699.953700 -0.000513
700.186100 -0.000477
700.418500 0.000647
700.650900 -0.000611
700.883300 -0.001065
701.115700 -0.001547
701.348100 0.000567
701.580600 -0.001673
701.813000 -0.001839
702.045400 -0.001174
702.277900 -0.000384
702.510400 -0.000597
702.742900 0.000384
702.975300 -0.002117
703.207800 -0.001069
703.440300 -0.002072
703.672900 -0.002615
703.905400 0.000809
704.137900 -0.000403
704.370500 0.000412
704.603000 -0.000584
704.835600 0.000274
705.068200 0.001054
705.300800 -0.001133
705.533400 -0.001182
705.766000 0.000826
705.998600 -0.000925
706.231200 0.000151
706.463800 -0.002159
706.696500 -0.001985
706.929100 0.000941
707.161800 0.001957
707.394500 -0.002508
707.627200 -0.000265
707.859900 -0.001911
708.092600 -0.001158
708.325300 -0.001190
708.558000 -0.000859
708.790700 -0.000448
709.023500 -0.003514
709.256200 -0.000428
709.489000 0.000301
709.721700 0.000817
709.954500 -0.000973
710.187300 0.000349
710.420100 -0.001897
710.652900 0.000191
710.885700 0.001897
711.118600 0.000728
711.351400 0.001677
711.584200 0.000114
711.817100 0.000050
712.050000 0.000003
712.282800 -0.000408
712.515700 -0.000175
712.748600 -0.000752
712.981500 0.000676
713.214400 -0.001473
713.447400 0.000258
713.680300 -0.000453
713.913200 -0.000670
714.146200 0.000476
714.379100 0.001714
714.612100 -0.000315
714.845100 -0.000188
715.078100 -0.000504
715.311100 0.001418
715.544100 -0.001447
715.777100 -0.000326
716.010200 -0.000042
716.243200 0.001038
716.476200 -0.000665
716.709300 -0.000997
716.942400 -0.001484
717.175400 -0.000173
717.408500 -0.000830
717.641600 -0.000260
717.874700 0.000352
718.107800 -0.000636
718.341000 -0.000957
718.574100 0.000285
718.807200 -0.001723
719.040400 -0.001613
719.273600 0.000629
719.506700 -0.001838
719.739900 0.000102
719.973100 -0.000391
720.206300 0.000092
720.439500 -0.001228
720.672700 0.000627
720.906000 -0.000833
721.139200 0.000091
721.372500 -0.001965
721.605700 -0.000387
721.839000 -0.002060
722.072300 -0.000298
722.305500 0.001052
722.538800 -0.000197
722.772100 0.000310
723.005500 0.000924
723.238800 -0.000715
723.472100 0.000126
723.705500 -0.000499
723.938800 -0.000017
724.172200 0.000316
724.405600 -0.000229
724.638900 -0.002665
724.872300 0.000224
725.105700 -0.000720
725.339100 -0.001470
725.572600 -0.000934
725.806000 0.000757
726.039400 0.000437
726.272900 -0.000519
726.506300 -0.000900
726.739800 -0.001352
726.973300 -0.000653
727.206800 -0.000660
727.440300 -0.002120
727.673800 0.000004
727.907300 -0.001951
728.140800 -0.001487
728.374300 -0.000013
728.607900 -0.001644
728.841400 -0.000446
729.075000 -0.000559
729.308600 0.000149
729.542100 -0.000441
729.775700 -0.000828
730.009300 -0.000034
730.242900 -0.000177
730.476600 -0.003117
730.710200 -0.001042
730.943800 -0.002345
731.177500 -0.002964
731.411100 -0.000890
731.644800 -0.001884
731.878500 -0.001571
732.112200 -0.001613
732.345800 -0.000349
732.579500 -0.001488
732.813300 -0.000897
733.047000 -0.001879
733.280700 -0.002574
733.514500 -0.000496
733.748200 -0.001859
733.982000 -0.001072
734.215700 -0.000932
734.449500 -0.001886
734.683300 -0.003297
734.917100 -0.000875
735.150900 -0.000635
735.384700 -0.002658
735.618500 -0.001188
735.852400 -0.001708
736.086200 -0.001923
736.320100 0.000219
736.553900 -0.002446
736.787800 -0.001111
737.021700 -0.001227
737.255600 -0.001707
737.489500 -0.000239
737.723400 0.001178
737.957300 0.000153
738.191200 0.001033
738.425200 -0.000167
738.659100 -0.000726
738.893100 0.000822
739.127100 -0.000914
739.361000 -0.001371
739.595000 -0.003298
739.829000 0.000660
740.063000 0.000887
740.297000 -0.002029
740.531000 -0.000399
740.765100 -0.000395
740.999100 -0.000937
741.233200 -0.001190
741.467200 -0.001461
741.701300 -0.000442
741.935400 -0.000787
742.169500 0.001626
742.403600 0.000427
742.637700 0.000585
742.871800 0.000857
743.105900 0.001674
743.340000 -0.000910
743.574200 -0.000201
743.808300 -0.000080
744.042500 0.000999
744.276700 0.000503
744.510800 -0.001910
744.745000 -0.000541
744.979200 -0.002556
745.213400 0.000471
745.447700 -0.000239
745.681900 0.000000
745.916100 -0.002216
746.150400 -0.000984
746.384600 -0.001096
746.618900 0.001649
746.853200 -0.000700
747.087400 0.000306
747.321700 -0.001079
747.556000 0.000251
747.790300 -0.001195
748.024700 0.000127
748.259000 -0.000039
748.493300 -0.000217
748.727700 -0.000376
748.962000 -0.000879
749.196400 -0.000104
749.430800 -0.002116
749.665200 0.000148
749.899500 0.000688
750.133900 0.000871
750.368400 -0.001766
750.602800 -0.000469
750.837200 0.000790
751.071700 -0.001080
751.306100 -0.001278
751.540600 0.000587
751.775000 -0.002885
752.009500 -0.000191
752.244000 0.000153
752.478500 -0.000421
752.713000 -0.002632
752.947500 0.000379
753.182000 -0.001802
753.416600 0.000513
753.651100 -0.000452
753.885600 -0.002019
754.120200 -0.001256
754.354800 -0.000258
754.589400 -0.001126
754.823900 -0.000303
755.058500 -0.001611
755.293100 -0.001154
755.527800 -0.000401
755.762400 -0.001000
755.997000 -0.000915
756.231700 -0.002450
756.466300 -0.000193
756.701000 -0.001047
756.935600 -0.000888
757.170300 -0.000069
757.405000 -0.003363
757.639700 -0.000813
757.874400 -0.003168
758.109100 -0.002564
758.343800 -0.001773
758.578600 -0.002154
758.813300 -0.000357
759.048100 -0.000973
759.282800 -0.001727
759.517600 -0.002339
759.752400 -0.002160
759.987200 -0.001656
760.222000 -0.001047
760.456800 -0.000840
760.691600 -0.004624
760.926400 -0.002114
761.161300 -0.002074
761.396100 -0.000581
761.631000 -0.002371
761.865800 -0.004611
762.100700 -0.003311
762.335600 -0.002039
762.570500 -0.000213
762.805400 0.000314
763.040300 -0.000520
763.275200 -0.001212
763.510100 -0.002224
763.745000 -0.002407
763.980000 -0.002791
764.214900 -0.000115
764.449900 -0.002793
764.684900 -0.001101
764.919800 -0.001185
765.154800 0.000414
765.389800 -0.002076
765.624800 -0.003584
765.859900 0.001145
766.094900 -0.001216
766.329900 0.000208
766.565000 -0.002039
766.800000 -0.000099
767.035100 -0.001070
767.270100 -0.000483
767.505200 -0.000459
767.740300 -0.000582
767.975400 -0.000099
768.210500 -0.001056
768.445600 -0.001108
768.680800 0.000071
768.915900 -0.003354
769.151000 -0.000935
769.386200 -0.001136
769.621400 -0.000200
769.856500 -0.001779
770.091700 -0.002359
770.326900 0.000612
770.562100 -0.000136
770.797300 -0.000056
771.032500 0.000288
771.267700 0.000198
771.503000 -0.000308
771.738200 -0.003252
771.973500 0.000486
772.208700 0.000214
772.444000 -0.001969
772.679300 -0.000493
772.914600 -0.000535
773.149900 -0.000451
773.385200 -0.000272
773.620500 -0.001063
773.855800 -0.001074
774.091100 -0.000533
774.326500 -0.001258
774.561800 0.000887
774.797200 -0.002475
775.032600 -0.001781
775.267900 0.001206
775.503300 -0.000076
775.738700 -0.000042
775.974100 -0.000605
776.209500 -0.000954
776.445000 -0.001920
776.680400 -0.000755
776.915800 -0.001375
777.151300 0.000309
777.386800 -0.000593
777.622200 -0.000395
777.857700 0.000411
778.093200 -0.001787
778.328700 0.000794
778.564200 0.000256
778.799700 -0.000419
779.035200 -0.000580
779.270700 0.000517
779.506300 0.000426
779.741800 0.000532
779.977400 0.000774
780.213000 -0.000935
780.448500 -0.000703
780.684100 -0.000475
780.919700 -0.001029
781.155300 0.000859
781.390900 -0.001257
781.626500 0.002080
781.862200 -0.000733
782.097800 -0.001957
782.333500 -0.000259
782.569100 -0.000462
782.804800 0.000420
783.040500 -0.001243
783.276100 0.000500
783.511800 0.000128
783.747500 -0.000930
783.983200 0.000405
784.219000 -0.001173
784.454700 -0.000179
784.690400 -0.001965
784.926200 -0.001941
785.161900 -0.001986
785.397700 -0.000478
785.633500 0.001407
785.869200 -0.000264
786.105000 -0.000429
786.340800 -0.000386
786.576600 -0.000686
786.812400 -0.001101
787.048300 -0.000373
787.284100 -0.001508
787.519900 0.000056
787.755800 -0.001526
787.991700 0.000156
788.227500 -0.000601
788.463400 0.000022
788.699300 -0.000900
788.935200 -0.001406
789.171100 -0.000083
789.407000 0.000803
789.642900 -0.000850
789.878900 -0.000587
790.114800 -0.001389
790.350700 0.000794
790.586700 -0.000689
790.822700 -0.001649
791.058600 0.001086
791.294600 -0.000908
791.530600 0.000045
791.766600 -0.001548
792.002600 -0.000803
792.238700 -0.000402
792.474700 -0.001098
792.710700 -0.000725
792.946800 0.001440
793.182800 -0.001095
793.418900 -0.001056
793.655000 -0.001000
793.891000 -0.001966
794.127100 -0.003464
794.363200 -0.002229
794.599300 -0.000692
794.835500 -0.000784
795.071600 -0.001760
795.307700 -0.002077
795.543900 -0.000178
795.780000 0.000504
796.016200 -0.001544
796.252300 -0.001537
796.488500 -0.002455
796.724700 -0.001592
796.960900 -0.002077
797.197100 -0.000145
797.433300 0.000030
797.669500 -0.001112
797.905800 0.000597
798.142000 -0.000396
798.378300 -0.000093
798.614500 -0.000075
798.850800 -0.001119
799.087100 -0.000241
799.323300 -0.000754
799.559600 0.000994
799.795900 -0.001475
800.032200 -0.001229
800.268600 -0.000100
800.504900 -0.001482
800.741200 -0.000779
800.977600 -0.000498
801.213900 -0.000684
801.450300 -0.002375
801.686700 0.000135
801.923000 -0.001488
802.159400 -0.000256
802.395800 0.000571
802.632200 -0.000945
802.868600 0.001190
803.105100 -0.002312
803.341500 0.001014
803.577900 -0.001507
803.814400 -0.001606
804.050800 -0.000499
804.287300 -0.000318
804.523800 -0.001218
804.760300 -0.001106
804.996800 0.000553
805.233300 -0.001114
805.469800 -0.000670
805.706300 -0.000603
805.942800 -0.000793
806.179400 0.000798
806.415900 -0.000592
806.652500 -0.000796
806.889000 -0.002741
807.125600 -0.000503
807.362200 0.001065
807.598800 -0.000669
807.835400 -0.000989
808.072000 -0.000539
808.308600 -0.000978
808.545200 0.000235
808.781800 0.000519
809.018500 -0.001288
809.255100 0.000467
809.491800 -0.000290
809.728400 0.000314
809.965100 0.000174
810.201800 -0.001219
810.438500 0.001704
810.675200 0.000206
810.911900 -0.000824
811.148600 -0.000314
811.385300 -0.001039
811.622100 0.000184
811.858800 -0.000674
812.095600 0.000370
812.332300 -0.001487
812.569100 0.000760
812.805900 -0.001525
813.042700 0.000841
813.279500 -0.000984
813.516300 0.001312
813.753100 -0.000977
813.989900 -0.001535
814.226700 -0.001735
814.463600 -0.000409
814.700400 -0.000273
814.937300 0.000571
815.174200 -0.000579
815.411000 0.000212
815.647900 0.001931
815.884800 0.001840
816.121700 -0.000591
816.358600 -0.000524
816.595500 -0.000270
816.832400 0.000056
817.069400 -0.001645
817.306300 -0.000501
817.543300 0.000405
817.780200 0.000672
818.017200 -0.001925
818.254200 -0.000425
818.491200 0.000043
818.728200 -0.001004
818.965200 -0.000116
819.202200 -0.000383
819.439200 -0.000700
819.676200 0.000858
819.913300 0.000679
820.150300 0.000113
820.387400 -0.001248
820.624400 -0.002531
820.861500 -0.000520
821.098600 -0.000438
821.335700 -0.002369
821.572700 -0.001011
821.809900 0.000715
822.047000 -0.001543
822.284100 0.000626
822.521200 -0.001359
822.758400 -0.000566
822.995500 -0.001466
823.232700 -0.001340
823.469800 -0.001301
823.707000 0.000692
823.944200 -0.000426
824.181400 -0.001973
824.418600 0.000278
824.655800 0.000456
824.893000 0.000398
825.130200 0.000088
825.367500 0.000531
825.604700 -0.000587
825.841900 0.000721
826.079200 -0.000791
826.316500 -0.001062
826.553700 -0.000593
826.791000 -0.001167
827.028300 -0.000938
827.265600 0.000019
827.502900 -0.001096
827.740200 -0.001455
827.977600 0.000609
828.214900 -0.000689
828.452200 -0.000878
828.689600 -0.000620
828.927000 -0.001174
829.164300 0.000616
829.401700 0.000317
829.639100 -0.000524
829.876500 0.000918
830.113900 -0.001315
830.351300 -0.000450
830.588700 -0.000502
830.826100 -0.000739
831.063600 0.001001
831.301000 -0.000535
831.538500 0.000463
831.775900 -0.000272
832.013400 -0.000606
832.250900 -0.000240
832.488400 -0.001741
832.725900 -0.000524
832.963400 -0.000985
833.200900 0.000102
833.438400 -0.000267
833.675900 -0.002247
833.913500 -0.001987
834.151000 -0.000721
834.388600 -0.001207
834.626100 0.000134
834.863700 -0.001058
835.101300 -0.000422
835.338900 -0.001164
835.576500 -0.000212
835.814100 -0.000096
836.051700 0.000544
836.289300 -0.001722
836.526900 0.000566
836.764600 -0.000630
837.002200 -0.001639
837.239900 -0.000406
837.477500 -0.000060
837.715200 0.001456
837.952900 -0.000464
838.190600 -0.000806
838.428300 0.000041
838.666000 -0.001151
838.903700 -0.000176
839.141400 -0.000594
839.379100 -0.000370
839.616900 -0.000908
839.854600 0.000094
840.092400 0.000371
840.330200 -0.000746
840.567900 -0.000543
840.805700 -0.000183
841.043500 0.000221
841.281300 0.000298
841.519100 -0.000851
841.756900 0.000568
841.994700 0.000794
842.232600 -0.000947
842.470400 -0.000996
842.708200 0.000751
842.946100 0.000463
843.184000 0.000410
843.421800 -0.000202
843.659700 -0.000589
843.897600 0.000763
844.135500 -0.000395
844.373400 -0.000163
844.611300 -0.000873
844.849200 -0.001393
845.087200 -0.000378
845.325100 0.000245
845.563100 -0.000437
845.801000 -0.000454
846.039000 -0.000662
846.277000 0.000913
846.514900 0.000287
846.752900 0.001250
846.990900 0.000709
847.228900 0.000814
847.466900 -0.001488
847.705000 0.000136
847.943000 0.000509
848.181000 0.000508
848.419100 -0.000356
848.657100 -0.001606
848.895200 0.000072
849.133300 -0.000582
849.371300 -0.000047
849.609400 0.000079
849.847500 0.000326
850.085600 0.000325
850.323700 -0.001386
850.561900 0.000231
850.800000 -0.000255
851.038100 -0.000205
851.276300 0.000575
851.514400 0.000323
851.752600 -0.000863
851.990800 0.001015
852.228900 -0.000022
852.467100 0.000263
852.705300 0.000231
852.943500 -0.000363
853.181700 -0.000661
853.420000 0.001527
853.658200 0.001172
853.896400 -0.000481
854.134700 -0.000618
854.372900 -0.000136
854.611200 -0.000503
854.849500 -0.001339
855.087700 -0.000087
855.326000 -0.002169
855.564300 0.000316
855.802600 -0.002173
856.040900 -0.000918
856.279200 -0.001069
856.517600 -0.000569
856.755900 0.000648
856.994200 0.000950
857.232600 -0.000419
857.471000 0.000287
857.709300 -0.000295
857.947700 -0.000362
858.186100 -0.001125
858.424500 0.000175
858.662900 -0.000176
858.901300 0.000208
859.139700 -0.000462
859.378100 0.000505
859.616600 -0.000112
859.855000 0.000273
860.093500 -0.000152
860.331900 -0.000785
860.570400 -0.001088
860.808900 -0.000648
861.047300 -0.001010
861.285800 -0.000521
861.524300 -0.002205
861.762800 -0.000279
862.001300 -0.000324
862.239900 -0.001386
862.478400 0.000692
862.716900 0.000016
862.955500 -0.000676
863.194000 0.000242
863.432600 -0.000345
863.671200 0.000316
863.909800 -0.000109
864.148300 0.000614
864.386900 0.000326
864.625500 -0.001449
864.864200 0.000449
865.102800 0.000916
865.341400 0.000217
865.580000 0.000582
865.818700 -0.000733
866.057300 -0.000796
866.296000 -0.000290
866.534700 -0.000114
866.773300 -0.000929
867.012000 -0.000669
867.250700 -0.000444
867.489400 0.000874
867.728100 0.000691
867.966900 -0.000940
868.205600 0.000062
868.444300 -0.000722
868.683100 0.000393
868.921800 0.000020
869.160600 -0.000086
869.399300 0.000661
869.638100 -0.000529
869.876900 0.000730
870.115700 -0.000680
870.354500 -0.000213
870.593300 0.000335
870.832100 0.000309
871.070900 -0.000310
871.309700 -0.000282
871.548600 -0.001724
871.787400 0.000111
872.026300 0.001754
872.265100 0.000393
872.504000 -0.000247
872.742900 -0.000578
872.981800 0.000276
873.220700 0.000238
873.459600 -0.001661
873.698500 -0.000071
873.937400 -0.001295
874.176300 0.000154
874.415300 -0.000132
874.654200 -0.000602
874.893200 -0.000761
875.132100 0.000867
875.371100 -0.000086
875.610100 -0.001762
875.849100 -0.000591
876.088000 -0.000156
876.327000 -0.001566
876.566100 -0.000603
876.805100 -0.000290
877.044100 -0.000166
877.283100 0.000913
877.522200 0.001381
877.761200 0.000777
878.000300 -0.000518
878.239300 -0.000577
878.478400 -0.000461
878.717500 -0.001013
878.956600 -0.000838
879.195700 -0.001333
879.434800 0.001265
879.673900 0.000260
879.913000 0.000358
880.152100 -0.000476
880.391300 -0.000504
880.630400 -0.000422
880.869600 -0.000362
881.108700 0.000221
881.347900 -0.000648
881.587100 -0.000605
881.826200 -0.000982
882.065400 -0.000675
882.304600 0.000284
882.543800 -0.000473
882.783100 -0.001129
883.022300 0.000913
883.261500 -0.000419
883.500700 0.000674
883.740000 0.000252
883.979200 -0.000500
884.218500 0.000249
884.457800 0.000723
884.697100 0.000102
884.936300 0.000369
885.175600 0.000070
885.414900 -0.000304
885.654200 -0.000026
885.893600 0.000481
886.132900 -0.000933
886.372200 -0.000089
886.611600 0.000297
886.850900 -0.001215
887.090300 -0.000265
887.329600 -0.000167
887.569000 0.000228
887.808400 -0.000043
888.047800 0.001081
888.287200 0.000819
888.526600 0.001029
888.766000 0.000213
889.005400 -0.000859
889.244800 0.000146
889.484300 0.001067
889.723700 -0.000433
889.963200 0.000495
890.202600 -0.000181
890.442100 0.000132
890.681600 0.000516
890.921100 -0.000546
891.160600 -0.000205
891.400100 0.000107
891.639600 -0.001348
891.879100 -0.000026
892.118600 -0.000640
892.358100 0.000677
892.597700 -0.000898
892.837200 -0.001043
893.076800 -0.000111
893.316300 0.000839
893.555900 -0.000652
893.795500 -0.001144
894.035100 -0.000171
894.274700 -0.000435
894.514300 -0.000029
894.753900 0.000045
894.993500 -0.000832
895.233100 0.001057
895.472700 -0.000627
895.712400 -0.001144
895.952000 -0.000711
896.191700 0.001493
896.431400 -0.000374
896.671000 -0.000726
896.910700 -0.001092
897.150400 0.000976
897.390100 0.000653
897.629800 -0.000451
897.869500 -0.000178
898.109200 -0.000905
898.348900 -0.000388
898.588700 -0.000206
898.828400 -0.000735
899.068200 -0.000768
899.307900 0.000347
899.547700 -0.000483
899.787500 -0.000398
900.027200 0.001250
900.267000 -0.000501
900.506800 -0.001056
900.746600 -0.000430
900.986400 0.000164
901.226300 -0.000328
901.466100 0.000097
901.705900 -0.001333
901.945800 -0.000160
902.185600 -0.000332
902.425500 -0.000163
902.665400 0.000090
902.905200 -0.000459
903.145100 0.000628
903.385000 0.000516
903.624900 -0.000529
903.864800 0.000476
904.104700 -0.000075
904.344600 -0.000466
904.584600 0.001165
904.824500 -0.000261
905.064400 0.000056
905.304400 -0.000993
905.544400 0.000474
905.784300 -0.001492
906.024300 0.000811
906.264300 -0.000198
906.504300 -0.000553
906.744300 0.000189
906.984300 0.000388
907.224300 -0.000377
907.464300 -0.001007
907.704300 -0.000036
907.944400 0.000712
908.184400 0.000217
908.424500 0.000220
908.664500 0.000734
908.904600 0.000002
909.144700 0.000351
909.384700 -0.000599
909.624800 0.000603
909.864900 0.000006
910.105000 -0.000245
910.345200 0.001989
910.585300 -0.000275
910.825400 -0.000776
911.065500 -0.001151
911.305700 -0.000765
911.545800 -0.000146
911.786000 0.000189
912.026200 -0.000033
912.266300 -0.000846
912.506500 -0.000686
912.746700 -0.000472
912.986900 -0.000338
913.227100 0.000508
913.467300 -0.001088
913.707500 0.001068
913.947800 -0.000687
914.188000 -0.001214
914.428300 0.000304
914.668500 -0.000659
914.908800 0.000245
915.149000 -0.000578
915.389300 -0.000743
915.629600 -0.001648
915.869900 -0.000044
916.110200 0.000909
916.350500 0.000167
916.590800 -0.000248
916.831100 -0.000866
917.071400 0.000058
917.311800 0.000277
917.552100 -0.000041
917.792500 0.001288
918.032800 -0.000061
918.273200 -0.000701
918.513600 -0.000871
918.753900 -0.000342
918.994300 -0.000754
919.234700 -0.001277
919.475100 -0.000068
919.715500 -0.000782
919.956000 -0.000951
920.196400 0.000157
920.436800 0.001014
920.677300 0.000667
920.917700 -0.000181
921.158200 -0.000076
921.398600 -0.000241
921.639100 -0.001995
921.879600 0.001134
922.120100 -0.000768
922.360600 -0.000434
922.601100 -0.000558
922.841600 0.000177
923.082100 0.001001
923.322600 -0.000276
923.563100 0.000751
923.803700 -0.000688
924.044200 -0.000065
924.284800 -0.000719
924.525400 -0.000308
924.765900 -0.000786
925.006500 0.000212
925.247100 -0.000066
925.487700 -0.000269
925.728300 -0.001458
925.968900 -0.000030
926.209500 0.000216
926.450100 0.000786
926.690800 -0.000707
926.931400 0.000427
927.172000 -0.000332
927.412700 0.000185
927.653300 -0.000881
927.894000 -0.000173
928.134700 -0.000733
928.375400 0.000757
928.616100 -0.001035
928.856800 -0.000301
929.097500 -0.000034
929.338200 0.000634
929.578900 -0.001063
929.819600 -0.000198
930.060400 0.000328
930.301100 0.000533
930.541900 0.001110
930.782600 -0.000065
931.023400 0.000427
931.264200 -0.001293
931.504900 -0.001116
931.745700 0.000114
931.986500 -0.000128
932.227300 -0.000237
932.468100 -0.000283
932.708900 -0.000804
932.949800 -0.000793
933.190600 -0.000963
933.431400 0.001208
933.672300 0.000133
933.913100 0.000361
934.154000 -0.000332
934.394900 0.000276
934.635800 0.000554
934.876600 -0.000269
935.117500 -0.001040
935.358400 -0.000571
935.599300 -0.000645
935.840300 -0.000760
936.081200 -0.000442
936.322100 0.000818
936.563000 -0.000600
936.804000 -0.000125
937.044900 0.000821
937.285900 -0.000329
937.526900 -0.000627
937.767800 -0.001060
938.008800 0.000680
938.249800 -0.000895
938.490800 -0.000181
938.731800 -0.001184
938.972800 -0.001672
939.213800 0.000068
939.454900 -0.000628
939.695900 0.000389
939.936900 0.000458
940.178000 -0.000086
940.419000 0.000078
940.660100 -0.001728
940.901200 0.000041
941.142200 0.000862
941.383300 -0.001542
941.624400 -0.000786
941.865500 -0.001142
942.106600 -0.000083
942.347700 0.000445
942.588900 -0.000804
942.830000 0.000471
943.071100 -0.000382
943.312300 -0.001482
943.553400 -0.000077
943.794600 -0.000238
944.035700 -0.000304
944.276900 -0.000354
944.518100 -0.000034
944.759300 -0.001197
945.000500 0.000208
945.241700 -0.000434
945.482900 -0.001008
945.724100 -0.001401
945.965300 -0.000157
946.206600 0.000511
946.447800 0.000307
946.689100 -0.000635
946.930300 0.000825
947.171600 -0.000628
947.412800 -0.000505
947.654100 -0.000846
947.895400 -0.000902
948.136700 0.000360
948.378000 -0.000735
948.619300 -0.000670
948.860600 -0.000596
949.101900 -0.000051
949.343300 -0.000404
949.584600 -0.000456
949.825900 -0.000660
950.067300 -0.001475
950.308600 -0.000445
950.550000 -0.000814
950.791400 0.000691
951.032700 0.000584
951.274100 0.000591
951.515500 -0.000153
951.756900 0.000568
951.998300 0.000578
952.239800 -0.001725
952.481200 0.000322
952.722600 0.000468
952.964000 -0.000452
953.205500 0.000504
953.446900 0.000677
953.688400 0.000047
953.929900 -0.000673
954.171300 0.000997
954.412800 0.000034
954.654300 -0.001015
954.895800 0.000279
955.137300 0.000540
955.378800 0.000409
955.620300 -0.000337
955.861800 -0.000979
956.103400 -0.000639
956.344900 -0.000304
956.586500 -0.000775
956.828000 -0.000245
957.069600 0.000663
957.311100 0.000234
957.552700 -0.001855
957.794300 0.000001
958.035900 0.000139
958.277500 0.000441
958.519100 -0.000273
958.760700 -0.000420
959.002300 0.000437
959.243900 0.000226
959.485600 0.000002
959.727200 0.000187
959.968800 0.000438
960.210500 0.000571
960.452200 0.000004
960.693800 0.000571
960.935500 0.001030
961.177200 0.000117
961.418900 -0.000189
961.660600 -0.000132
961.902300 -0.001079
962.144000 0.000233
962.385700 -0.000322
962.627400 -0.000410
962.869200 -0.000312
963.110900 0.000075
963.352700 -0.000902
963.594400 -0.000938
963.836200 0.000268
964.077900 -0.000304
964.319700 -0.001004
964.561500 -0.000671
964.803300 -0.000505
965.045100 0.000405
965.286900 0.000085
965.528700 0.000146
965.770500 -0.000038
966.012300 0.000469
966.254200 -0.000105
966.496000 0.000652
966.737900 -0.000828
966.979700 0.000412
967.221600 0.000044
967.463400 -0.000427
967.705300 -0.000659
967.947200 0.000002
968.189100 0.000380
968.431000 -0.000544
968.672900 0.000099
968.914800 -0.000192
969.156700 0.000465
969.398700 0.001527
969.640600 0.000585
969.882500 -0.000077
970.124500 -0.000389
970.366400 0.000125
970.608400 -0.000252
970.850400 0.000993
971.092300 0.000806
971.334300 -0.000189
971.576300 0.001004
971.818300 -0.000719
972.060300 -0.000389
972.302300 -0.000849
972.544300 -0.000499
972.786400 -0.001222
973.028400 -0.000209
973.270400 -0.000540
973.512500 -0.000947
973.754500 -0.000364
973.996600 -0.000241
974.238700 -0.000870
974.480700 -0.000354
974.722800 -0.000766
974.964900 0.000156
975.207000 -0.000677
975.449100 0.000022
975.691200 -0.000395
975.933300 -0.000854
976.175500 0.001292
976.417600 -0.000027
976.659700 -0.000267
976.901900 -0.000459
977.144000 0.000285
977.386200 0.000894
977.628300 -0.000487
977.870500 -0.000477
978.112700 0.000817
978.354900 -0.000245
978.597100 0.000525
978.839300 -0.001201
979.081500 -0.000093
979.323700 0.001028
979.565900 0.000532
979.808200 -0.001918
980.050400 -0.000642
980.292600 -0.000470
980.534900 -0.000480
980.777100 -0.000639
981.019400 -0.000030
981.261700 -0.000280
981.504000 -0.000608
981.746200 0.000493
981.988500 -0.000558
982.230800 -0.000343
982.473100 -0.000425
982.715500 -0.001102
982.957800 0.000025
983.200100 -0.000533
983.442400 0.000465
983.684800 -0.000144
983.927100 -0.000199
984.169500 0.000792
984.411800 -0.000080
984.654200 0.000128
984.896600 -0.000696
985.139000 0.000596
985.381400 -0.000878
985.623800 -0.001313
985.866200 0.000041
986.108600 0.000983
986.351000 -0.001046
986.593400 -0.000667
986.835800 -0.000452
987.078300 -0.000368
987.320700 -0.000562
987.563200 -0.000459
987.805600 0.000177
988.048100 -0.001060
988.290600 0.001113
988.533100 0.000733
988.775600 -0.000688
989.018000 -0.001338
989.260500 -0.000459
989.503100 0.000711
989.745600 0.000691
989.988100 0.000926
990.230600 0.000163
990.473200 -0.000847
990.715700 -0.001092
990.958200 -0.000333
991.200800 0.000254
991.443400 0.000349
991.685900 0.000416
991.928500 -0.000445
992.171100 0.000314
992.413700 -0.000540
992.656300 -0.000873
992.898900 -0.000495
993.141500 -0.001070
993.384100 -0.000727
993.626700 -0.000326
993.869400 -0.000223
994.112000 -0.000139
994.354700 -0.000885
994.597300 -0.000677
994.840000 0.000352
995.082600 0.000044
995.325300 0.000989
995.568000 -0.000252
995.810700 0.000563
996.053400 0.000412
996.296100 -0.000530
996.538800 -0.000146
996.781500 -0.000898
997.024200 0.000726
997.267000 -0.000210
997.509700 -0.000530
997.752400 0.000315
997.995200 -0.001103
998.237900 -0.000213
998.480700 -0.000016
998.723500 0.000866
998.966200 0.000307
999.209000 0.000609
999.451800 -0.000185
999.694600 -0.000947
999.937400 -0.000087
1000.180200 -0.000333
1000.423000 -0.000946
1000.665900 0.000711
1000.908700 -0.000255
1001.151500 0.000389
1001.394400 0.000043
1001.637200 -0.000036
1001.880100 0.000044
1002.123000 0.000357
1002.365800 0.000525
1002.608700 0.000434
1002.851600 -0.000382
1003.094500 -0.000516
1003.337400 -0.000276
1003.580300 0.001274
1003.823200 0.000458
1004.066100 -0.000460
1004.309100 0.000145
1004.552000 -0.000625
1004.794900 -0.000703
1005.037900 -0.000840
1005.280800 -0.000189
1005.523800 -0.000899
1005.766700 -0.000558
1006.009700 -0.000002
1006.252700 0.000623
1006.495700 0.000251
1006.738700 -0.000101
1006.981700 -0.000523
1007.224700 0.000233
1007.467700 0.000778
1007.710700 0.000585
1007.953800 -0.000787
1008.196800 -0.000825
1008.439800 -0.001068
1008.682900 -0.000097
1008.925900 -0.001335
1009.169000 -0.000842
1009.412100 0.002030
1009.655100 0.001348
1009.898200 -0.000789
1010.141300 0.000230
1010.384400 -0.000782
1010.627500 -0.000438
1010.870600 0.000085
1011.113700 -0.000860
1011.356800 0.000001
1011.600000 0.000229
1011.843100 -0.001018
1012.086300 0.000778
1012.329400 0.000480
1012.572600 0.001049
1012.815700 0.000666
1013.058900 0.001456
1013.302100 0.000645
1013.545200 -0.000660
1013.788400 -0.000284
1014.031600 0.001116
1014.274800 -0.000548
1014.518000 -0.000825
1014.761300 -0.000667
1015.004500 0.000138
1015.247700 0.000261
1015.490900 0.001418
1015.734200 -0.001539
1015.977400 -0.000330
1016.220700 0.000827
1016.464000 -0.001015
1016.707200 0.000500
1016.950500 -0.000273
1017.193800 -0.000245
1017.437100 -0.000568
1017.680400 -0.000171
1017.923700 0.000180
1018.167000 -0.001345
1018.410300 -0.000108
1018.653600 0.000201
1018.896900 -0.000536
1019.140300 -0.000403
1019.383600 -0.000072
1019.627000 -0.000266
1019.870300 0.000237
1020.113700 -0.001040
1020.357100 -0.000277
1020.600400 -0.000164
1020.843800 -0.001856
1021.087200 -0.002091
1021.330600 0.000807
1021.574000 -0.000881
1021.817400 0.000412
1022.060800 0.000585
1022.304200 -0.000069
1022.547700 -0.000656
1022.791100 -0.000867
1023.034500 -0.000009
