# Wavelength (nm)	Intensity (a.u.)
197.7802	0.002290
197.9842	-0.000243
198.1882	0.000116
198.3922	0.000707
198.5963	-0.000559
198.8003	-0.000137
199.0044	0.001171
199.2085	0.000285
199.4126	0.001572
199.6168	0.000834
199.8209	0.000559
200.0251	-0.000074
200.2292	0.001403
200.4334	-0.000327
200.6376	0.001403
200.8418	0.001045
201.0461	0.001361
201.2503	0.000243
201.4546	-0.000116
201.6589	0.000264
201.8631	0.000791
202.0674	-0.000580
202.2718	0.000918
202.4761	0.000032
202.6805	-0.000327
202.8848	0.000053
203.0892	0.001256
203.2936	0.000559
203.4980	0.000855
203.7024	0.000496
203.9069	0.000158
204.1113	0.000517
204.3158	-0.000369
204.5203	-0.000749
204.7248	-0.000369
204.9293	0.000116
205.1338	0.000222
205.3384	0.001108
205.5430	0.000686
205.7475	0.001488
205.9521	0.000285
206.1567	0.000812
206.3614	0.000264
206.5660	-0.000812
206.7706	0.001593
206.9753	0.000834
207.1800	0.000749
207.3847	0.001551
207.5894	0.001488
207.7941	0.000053
207.9989	0.000665
208.2036	0.000369
208.4084	0.001551
208.6132	-0.000179
208.8180	0.000580
209.0228	-0.000897
209.2276	0.001150
209.4325	0.000538
209.6373	0.000580
209.8422	0.000158
210.0471	0.001045
210.2520	0.001277
210.4569	-0.000179
210.6618	0.000011
210.8668	-0.000433
211.0718	0.000411
211.2767	0.001572
211.4817	0.000158
211.6867	-0.000158
211.8918	-0.000095
212.0968	0.001171
212.3018	-0.000981
212.5069	0.002226
212.7120	-0.000243
212.9171	0.000179
213.1222	-0.000791
213.3273	0.000158
213.5325	0.000053
213.7376	0.001825
213.9428	0.000538
214.1480	-0.000580
214.3532	-0.000728
214.5584	0.000116
214.7636	0.000243
214.9689	0.000770
215.1741	0.000053
215.3794	0.000580
215.5847	0.000222
215.7900	0.000686
215.9953	0.001002
216.2007	0.000876
216.4060	0.001720
216.6114	0.000665
216.8168	0.000960
217.0222	0.000517
217.2276	0.001045
217.4330	-0.000053
217.6384	0.000011
217.8439	0.000433
218.0494	-0.000285
218.2548	0.001445
218.4603	0.000686
218.6659	0.001298
218.8714	-0.000812
219.0769	0.001910
219.2825	0.000601
219.4881	0.002522
219.6936	-0.000306
219.8992	-0.000285
220.1049	-0.000137
220.3105	0.000390
220.5161	-0.001467
220.7218	0.000644
220.9275	0.000855
221.1332	0.000222
221.3389	-0.000580
221.5446	0.001319
221.7503	0.000285
221.9561	0.000644
222.1618	-0.001931
222.3676	0.000348
222.5734	0.001340
222.7792	-0.000032
222.9850	-0.000222
223.1909	0.002100
223.3967	-0.001509
223.6026	0.001192
223.8085	0.002057
224.0144	0.002121
224.2203	0.000897
224.4262	0.002395
224.6322	0.000496
224.8381	-0.000074
225.0441	0.000791
225.2501	0.000665
225.4561	0.000137
225.6621	-0.000411
225.8681	-0.000580
226.0742	0.000475
226.2802	0.001467
226.4863	0.000918
226.6924	0.001635
226.8985	0.001952
227.1046	0.000559
227.3107	0.000200
227.5169	0.000116
227.7230	0.000032
227.9292	0.000601
228.1354	0.001804
228.3416	0.000475
228.5478	0.000475
228.7541	-0.000053
228.9603	0.000834
229.1666	0.000644
229.3729	-0.000158
229.5791	-0.000454
229.7855	0.001298
229.9918	0.000517
230.1981	-0.000517
230.4045	-0.000095
230.6108	0.000580
230.8172	-0.000137
231.0236	0.001319
231.2300	0.000411
231.4364	-0.000559
231.6429	0.001530
231.8493	0.000475
232.0558	0.000876
232.2623	-0.000749
232.4688	0.001171
232.6753	0.000812
232.8818	-0.000074
233.0884	0.000981
233.2949	0.000855
233.5015	-0.000116
233.7081	-0.000264
233.9147	-0.000011
234.1213	-0.001699
234.3279	-0.001150
234.5346	-0.000200
234.7413	0.000770
234.9479	0.000433
235.1546	-0.000137
235.3613	0.001424
235.5680	0.000158
235.7748	0.000095
235.9815	0.001066
236.1883	-0.000834
236.3951	-0.000011
236.6018	0.000074
236.8087	-0.000538
237.0155	-0.000032
237.2223	-0.000834
237.4292	0.000770
237.6360	-0.001192
237.8429	0.001108
238.0498	-0.000623
238.2567	-0.000243
238.4636	0.001445
238.6706	0.000855
238.8775	0.000918
239.0845	0.000960
239.2915	0.001256
239.4985	-0.000011
239.7055	0.000433
239.9125	0.000285
240.1195	0.001150
240.3266	-0.000538
240.5337	0.001150
240.7407	0.000981
240.9478	-0.000475
241.1549	0.000517
241.3621	0.000876
241.5692	0.000686
241.7764	0.001087
241.9835	-0.000749
242.1907	0.000559
242.3979	-0.000137
242.6051	-0.000728
242.8124	-0.001108
243.0196	0.001150
243.2269	0.000306
243.4341	0.000074
243.6414	0.000601
243.8487	0.000390
244.0560	-0.000559
244.2634	0.000981
244.4707	-0.000475
244.6781	-0.000559
244.8854	-0.000137
245.0928	0.001382
245.3002	-0.000559
245.5076	0.002226
245.7151	0.000538
245.9225	0.001804
246.1300	0.001340
246.3375	0.001593
246.5449	0.000011
246.7524	-0.000053
246.9600	0.001783
247.1675	0.000960
247.3750	-0.000496
247.5826	0.000032
247.7902	-0.000285
247.9978	0.001150
248.2054	0.000475
248.4130	0.001382
248.6206	0.001234
248.8283	0.001720
249.0359	-0.000222
249.2436	-0.000158
249.4513	0.000243
249.6590	-0.000770
249.8667	0.000939
250.0745	0.001445
250.2822	-0.000137
250.4900	0.001699
250.6978	0.000897
250.9056	0.003429
251.1134	0.002036
251.3212	0.000939
251.5290	0.001382
251.7369	0.000327
251.9447	0.000454
252.1526	0.000243
252.3605	-0.000749
252.5684	-0.000348
252.7763	0.000876
252.9843	0.001403
253.1922	-0.000285
253.4002	0.000728
253.6082	-0.000665
253.8162	0.000728
254.0242	-0.002332
254.2322	-0.000791
254.4402	-0.000834
254.6483	0.000517
254.8564	0.000454
255.0644	0.000137
255.2725	0.000264
255.4806	0.000074
255.6888	0.000243
255.8969	0.000348
256.1051	-0.000960
256.3132	0.001023
256.5214	0.001572
256.7296	0.001002
256.9378	0.000812
257.1460	0.000918
257.3543	0.001614
257.5625	0.001108
257.7708	0.000770
257.9791	0.000517
258.1874	0.000707
258.3957	0.000200
258.6040	0.000285
258.8124	-0.000897
259.0207	-0.001002
259.2291	0.001614
259.4375	0.000264
259.6459	-0.000264
259.8543	-0.000327
260.0627	0.000454
260.2711	0.000243
260.4796	0.000011
260.6881	0.000264
260.8965	-0.000116
261.1050	0.000749
261.3135	0.000348
261.5221	-0.000770
261.7306	-0.000580
261.9392	0.000538
262.1477	0.001403
262.3563	0.000095
262.5649	0.001762
262.7735	-0.000243
262.9822	0.000981
263.1908	0.000897
263.3995	-0.000454
263.6081	0.000981
263.8168	0.000475
264.0255	0.000053
264.2342	0.000623
264.4429	0.000855
264.6517	0.001234
264.8604	0.001509
265.0692	0.000496
265.2780	0.000179
265.4868	0.000306
265.6956	-0.000496
265.9044	0.000074
266.1133	0.000475
266.3221	0.001087
266.5310	-0.000475
266.7399	0.000411
266.9488	0.000222
267.1577	-0.000053
267.3666	-0.000834
267.5755	0.000116
267.7845	0.000876
267.9935	0.000665
268.2024	-0.000454
268.4114	0.000749
268.6205	-0.000496
268.8295	-0.001087
269.0385	0.000222
269.2476	0.000707
269.4566	-0.000665
269.6657	-0.000433
269.8748	-0.000011
270.0839	0.001213
270.2931	0.000601
270.5022	0.000306
270.7114	0.000243
270.9205	-0.000918
271.1297	0.001445
271.3389	0.001572
271.5481	-0.000834
271.7573	0.000475
271.9666	0.000644
272.1758	0.000559
272.3851	0.000264
272.5944	-0.000559
272.8037	0.000728
273.0130	0.001572
273.2223	0.000960
273.4316	0.000200
273.6410	0.001129
273.8504	-0.000158
274.0597	0.000074
274.2691	-0.000011
274.4785	0.000939
274.6880	0.000411
274.8974	0.000876
275.1069	0.001150
275.3163	0.000348
275.5258	0.000517
275.7353	0.001340
275.9448	0.000834
276.1543	0.001445
276.3639	0.001108
276.5734	0.001023
276.7830	-0.000348
276.9926	-0.000179
277.2022	0.000327
277.4118	0.000580
277.6214	0.001783
277.8310	-0.000222
278.0407	0.000770
278.2503	-0.000158
278.4600	0.000032
278.6697	0.001234
278.8794	0.001424
279.0891	0.001361
279.2989	-0.000200
279.5086	0.001002
279.7184	0.001213
279.9281	0.000960
280.1379	0.000200
280.3477	0.000179
280.5576	0.000728
280.7674	-0.001298
280.9772	0.001783
281.1871	0.002184
281.3970	-0.001403
281.6069	-0.001192
281.8168	0.000897
282.0267	0.000074
282.2366	-0.000032
282.4466	-0.001129
282.6565	0.001403
282.8665	-0.000285
283.0765	0.001298
283.2865	-0.000200
283.4965	-0.000158
283.7065	0.000369
283.9166	0.000876
284.1266	0.000095
284.3367	0.000095
284.5468	0.000707
284.7569	0.001129
284.9670	-0.001488
285.1771	0.001171
285.3873	-0.000053
285.5974	0.000179
285.8076	-0.000960
286.0178	-0.000411
286.2280	-0.000179
286.4382	0.001319
286.6484	-0.000454
286.8587	0.001023
287.0689	0.001825
287.2792	0.000939
287.4895	0.000179
287.6998	0.000939
287.9101	0.000855
288.1204	0.001614
288.3308	0.000496
288.5411	0.000496
288.7515	0.000222
288.9619	0.000074
289.1723	0.000433
289.3827	0.000728
289.5931	0.000791
289.8035	0.001846
290.0140	0.000517
290.2245	0.000222
290.4349	-0.000264
290.6454	0.000348
290.8559	0.000306
291.0665	0.000749
291.2770	-0.000686
291.4875	0.000158
291.6981	0.001277
291.9087	0.001973
292.1193	-0.000137
292.3299	0.001741
292.5405	-0.000285
292.7511	0.002353
292.9618	0.002036
293.1724	-0.000011
293.3831	-0.000158
293.5938	-0.000158
293.8045	0.000011
294.0152	0.002015
294.2260	0.000559
294.4367	0.001171
294.6475	0.000327
294.8582	0.001614
295.0690	0.000939
295.2798	0.001467
295.4906	0.000348
295.7015	0.001023
295.9123	-0.000770
296.1232	0.000834
296.3340	0.000644
296.5449	0.000433
296.7558	0.000454
296.9667	0.000707
297.1777	-0.000454
297.3886	0.000137
297.5995	0.000243
297.8105	0.001530
298.0215	0.001277
298.2325	0.000918
298.4435	0.000116
298.6545	-0.000454
298.8656	-0.000876
299.0766	-0.000791
299.2877	0.000053
299.4988	-0.000137
299.7099	-0.000918
299.9210	0.000158
300.1321	-0.000137
300.3432	0.000517
300.5544	-0.000559
300.7655	-0.000981
300.9767	0.000095
301.1879	0.001340
301.3991	-0.000095
301.6103	0.001171
301.8215	-0.000538
302.0328	0.001319
302.2441	-0.000137
302.4553	0.001720
302.6666	0.000348
302.8779	0.000285
303.0892	0.000390
303.3006	0.000918
303.5119	-0.000390
303.7233	0.000960
303.9346	0.001108
304.1460	0.001614
304.3574	0.001635
304.5688	0.000665
304.7803	0.000559
304.9917	0.002627
305.2031	0.000496
305.4146	0.000601
305.6261	-0.000707
305.8376	-0.000200
306.0491	0.000812
306.2606	-0.000960
306.4722	0.000855
306.6837	0.001192
306.8953	0.000644
307.1069	0.001530
307.3184	0.000095
307.5301	0.000686
307.7417	0.001593
307.9533	0.000179
308.1650	0.000601
308.3766	0.001530
308.5883	0.001488
308.8000	0.001066
309.0117	0.000812
309.2234	0.001234
309.4351	0.001361
309.6469	-0.000074
309.8586	-0.000707
310.0704	0.000770
310.2822	0.000981
310.4940	0.001509
310.7058	0.000200
310.9176	0.000390
311.1295	0.000095
311.3413	0.000728
311.5532	0.002564
311.7651	0.002205
311.9770	0.000411
312.1889	0.001045
312.4008	0.000095
312.6127	0.001614
312.8247	0.001150
313.0366	0.001614
313.2486	0.001804
313.4606	0.001656
313.6726	0.000390
313.8846	0.002290
314.0967	0.000770
314.3087	0.001192
314.5208	0.000011
314.7328	0.000939
314.9449	0.002290
315.1570	0.002395
315.3692	0.001277
315.5813	0.000812
315.7934	0.001403
316.0056	0.001488
316.2177	0.000433
316.4299	0.002184
316.6421	0.000707
316.8543	0.002923
317.0666	0.000306
317.2788	0.000665
317.4911	0.001361
317.7033	0.000812
317.9156	0.000306
318.1279	0.001720
318.3402	0.000939
318.5525	0.000327
318.7649	0.000095
318.9772	0.002163
319.1896	0.002268
319.4019	0.000728
319.6143	0.001846
319.8267	0.002986
320.0392	0.001762
320.2516	0.001488
320.4640	0.000095
320.6765	0.002627
320.8890	0.001403
321.1014	0.000770
321.3139	0.001129
321.5265	0.001403
321.7390	0.002416
321.9515	0.001783
322.1641	0.000686
322.3766	0.001804
322.5892	0.000897
322.8018	0.002648
323.0144	0.002268
323.2270	0.001889
323.4397	0.001382
323.6523	0.002712
323.8650	0.003935
324.0777	0.003049
324.2904	0.004358
324.5031	0.002163
324.7158	0.001678
324.9285	0.002416
325.1412	0.001488
325.3540	0.003471
325.5668	0.001150
325.7796	0.002036
325.9924	0.002986
326.2052	0.003703
326.4180	0.004210
326.6308	0.001635
326.8437	0.002859
327.0566	0.002669
327.2694	0.002923
327.4823	0.000707
327.6952	0.003978
327.9082	0.003070
328.1211	0.002775
328.3340	0.004062
328.5470	0.002733
328.7600	0.002986
328.9730	0.003999
329.1860	0.003260
329.3990	0.002184
329.6120	0.002923
329.8251	0.003176
330.0381	0.002290
330.2512	0.003577
330.4643	0.004315
330.6774	0.003302
330.8905	0.003661
331.1036	0.002965
331.3167	0.003598
331.5299	0.003218
331.7431	0.003893
331.9562	0.003788
332.1694	0.002901
332.3826	0.003239
332.5959	0.003767
332.8091	0.004758
333.0223	0.003429
333.2356	0.003872
333.4489	0.003218
333.6622	0.003788
333.8755	0.005497
334.0888	0.004716
334.3021	0.003978
334.5154	0.003429
334.7288	0.004379
334.9422	0.004294
335.1555	0.004484
335.3689	0.002817
335.5823	0.005919
335.7958	0.004463
336.0092	0.004569
336.2227	0.006003
336.4361	0.005539
336.6496	0.003872
336.8631	0.005814
337.0766	0.003830
337.2901	0.005012
337.5036	0.004547
337.7172	0.004168
337.9307	0.005033
338.1443	0.005012
338.3579	0.003957
338.5715	0.006447
338.7851	0.004484
338.9987	0.005349
339.2124	0.005159
339.4260	0.004611
339.6397	0.005497
339.8533	0.005075
340.0670	0.004273
340.2807	0.006130
340.4945	0.005286
340.7082	0.005434
340.9219	0.004653
341.1357	0.006995
341.3495	0.005349
341.5633	0.006932
341.7771	0.006383
341.9909	0.005835
342.2047	0.005666
342.4185	0.005244
342.6324	0.005012
342.8463	0.006257
343.0601	0.005687
343.2740	0.005476
343.4879	0.005898
343.7019	0.005497
343.9158	0.004189
344.1297	0.006700
344.3437	0.006636
344.5577	0.006552
344.7717	0.005603
344.9857	0.006848
345.1997	0.006848
345.4137	0.007713
345.6277	0.007396
345.8418	0.006425
346.0559	0.007312
346.2699	0.007776
346.4840	0.008219
346.6981	0.006932
346.9123	0.006468
347.1264	0.006362
347.3406	0.007333
347.5547	0.007502
347.7689	0.007628
347.9831	0.006869
348.1973	0.007122
348.4115	0.006130
348.6257	0.007881
348.8400	0.007080
349.0542	0.005771
349.2685	0.008071
349.4828	0.007143
349.6971	0.007924
349.9114	0.007080
350.1257	0.007607
350.3400	0.006236
350.5544	0.008198
350.7687	0.008114
350.9831	0.008240
351.1975	0.007797
351.4119	0.008747
351.6263	0.007818
351.8407	0.010477
352.0552	0.007227
352.2696	0.008071
352.4841	0.007037
352.6986	0.007312
352.9131	0.008240
353.1276	0.008894
353.3421	0.006974
353.5566	0.008240
353.7712	0.008135
353.9858	0.008493
354.2003	0.008409
354.4149	0.008726
354.6295	0.007670
354.8441	0.009295
355.0588	0.008261
355.2734	0.009443
355.4881	0.007860
355.7027	0.008789
355.9174	0.008768
356.1321	0.009527
356.3468	0.008304
356.5615	0.009675
356.7763	0.009422
356.9910	0.009844
357.2058	0.009338
357.4206	0.007692
357.6353	0.008704
357.8501	0.008979
358.0650	0.009295
358.2798	0.009316
358.4946	0.008240
358.7095	0.011532
358.9243	0.009295
359.1392	0.009105
359.3541	0.008747
359.5690	0.009126
359.7839	0.008620
359.9989	0.008894
360.2138	0.009274
360.4288	0.010498
360.6438	0.009907
360.8587	0.010160
361.0737	0.009781
361.2888	0.010393
361.5038	0.009316
361.7188	0.009570
361.9339	0.009781
362.1489	0.010097
362.3640	0.009105
362.5791	0.011026
362.7942	0.009654
363.0093	0.009232
363.2245	0.011511
363.4396	0.010688
363.6548	0.009253
363.8699	0.011216
364.0851	0.010941
364.3003	0.009549
364.5155	0.010097
364.7308	0.009633
364.9460	0.011089
365.1612	0.010308
365.3765	0.011237
365.5918	0.008219
365.8071	0.009506
366.0224	0.010414
366.2377	0.009844
366.4530	0.012313
366.6684	0.010224
366.8837	0.012039
367.0991	0.010815
367.3145	0.011258
367.5299	0.011237
367.7453	0.012798
367.9607	0.011680
368.1761	0.011363
368.3916	0.011659
368.6070	0.012017
368.8225	0.012946
369.0380	0.011722
369.2535	0.011173
369.4690	0.013009
369.6845	0.009591
369.9001	0.013832
370.1156	0.011384
370.3312	0.013938
370.5468	0.012313
370.7624	0.012144
370.9780	0.012228
371.1936	0.010878
371.4092	0.013073
371.6249	0.012629
371.8405	0.012861
372.0562	0.012292
372.2719	0.013790
372.4876	0.012714
372.7033	0.013389
372.9190	0.011701
373.1348	0.013895
373.3505	0.013663
373.5663	0.013811
373.7820	0.013284
373.9978	0.012566
374.2136	0.013727
374.4294	0.013874
374.6453	0.013516
374.8611	0.015436
375.0770	0.015626
375.2928	0.015921
375.5087	0.015541
375.7246	0.015309
375.9405	0.016090
376.1564	0.014423
376.3724	0.016301
376.5883	0.015942
376.8043	0.016723
377.0203	0.015014
377.2362	0.016238
377.4522	0.016069
377.6682	0.017145
377.8843	0.018179
378.1003	0.017103
378.3164	0.017673
378.5324	0.018538
378.7485	0.019129
378.9646	0.018622
379.1807	0.018411
379.3968	0.018580
379.6129	0.019593
379.8291	0.018496
380.0452	0.019530
380.2614	0.018137
380.4776	0.018158
380.6938	0.019445
380.9100	0.018390
381.1262	0.019298
381.3424	0.018411
381.5587	0.019614
381.7749	0.017483
381.9912	0.017462
382.2075	0.020754
382.4238	0.021872
382.6401	0.019551
382.8564	0.019171
383.0728	0.019909
383.2891	0.021788
383.5055	0.018791
383.7219	0.020648
383.9382	0.019487
384.1546	0.022125
384.3711	0.019804
384.5875	0.021555
384.8039	0.020859
385.0204	0.020437
385.2368	0.022210
385.4533	0.018854
385.6698	0.021999
385.8863	0.022083
386.1028	0.021534
386.3194	0.021977
386.5359	0.021661
386.7525	0.021703
386.9690	0.022315
387.1856	0.021619
387.4022	0.021851
387.6188	0.023708
387.8355	0.025269
388.0521	0.024003
388.2687	0.022716
388.4854	0.022568
388.7021	0.023560
388.9188	0.024552
389.1355	0.024784
389.3522	0.022336
389.5689	0.024003
389.7856	0.024763
390.0024	0.024067
390.2192	0.022188
390.4359	0.021534
390.6527	0.024889
390.8695	0.024467
391.0863	0.022948
391.3032	0.024868
391.5200	0.027591
391.7369	0.025691
391.9537	0.024615
392.1706	0.027949
392.3875	0.027358
392.6044	0.027696
392.8213	0.029279
393.0383	0.029384
393.2552	0.030207
393.4722	0.027211
393.6891	0.027802
393.9061	0.028561
394.1231	0.028202
394.3401	0.026219
394.5572	0.027211
394.7742	0.027928
394.9912	0.030144
395.2083	0.030503
395.4254	0.026831
395.6425	0.027907
395.8596	0.028477
396.0767	0.027569
396.2938	0.028540
396.5109	0.027042
396.7281	0.032212
396.9453	0.031241
397.1624	0.029827
397.3796	0.031600
397.5968	0.029384
397.8140	0.032908
398.0313	0.030650
398.2485	0.031916
398.4658	0.034364
398.6830	0.034660
398.9003	0.033330
399.1176	0.033604
399.3349	0.032212
399.5522	0.031832
399.7696	0.030566
399.9869	0.032402
400.2043	0.032697
400.4216	0.032317
400.6390	0.031811
400.8564	0.030692
401.0738	0.032571
401.2912	0.032043
401.5087	0.031114
401.7261	0.030418
401.9436	0.032718
402.1610	0.031515
402.3785	0.031431
402.5960	0.029131
402.8135	0.030840
403.0310	0.029764
403.2486	0.030925
403.4661	0.030946
403.6837	0.031874
403.9013	0.030481
404.1189	0.033415
404.3365	0.030692
404.5541	0.032613
404.7717	0.031874
404.9893	0.034132
405.2070	0.033457
405.4246	0.033098
405.6423	0.037445
405.8600	0.035061
406.0777	0.034322
406.2954	0.033246
406.5131	0.031684
406.7309	0.031157
406.9486	0.030313
407.1664	0.031030
407.3842	0.030988
407.6020	0.030671
407.8198	0.030587
408.0376	0.031157
408.2554	0.034385
408.4733	0.031895
408.6911	0.032254
408.9090	0.033879
409.1269	0.033668
409.3448	0.033499
409.5627	0.031959
409.7806	0.032212
409.9985	0.033288
410.2165	0.032676
410.4344	0.029152
410.6524	0.032233
410.8704	0.031410
411.0884	0.032908
411.3064	0.032444
411.5244	0.031389
411.7424	0.033330
411.9605	0.031663
412.1785	0.033161
412.3966	0.032613
412.6147	0.036917
412.8328	0.033984
413.0509	0.031347
413.2690	0.033626
413.4871	0.033921
413.7053	0.033921
413.9234	0.033288
414.1416	0.033140
414.3598	0.033457
414.5780	0.034554
414.7962	0.034195
415.0144	0.033583
415.2326	0.032549
415.4509	0.033119
415.6692	0.033900
415.8874	0.034955
416.1057	0.035082
416.3240	0.034449
416.5423	0.034027
416.7606	0.035715
416.9790	0.033415
417.1973	0.033182
417.4157	0.035335
417.6341	0.033963
417.8524	0.033984
418.0708	0.034069
418.2893	0.034090
418.5077	0.033858
418.7261	0.032338
418.9446	0.033731
419.1630	0.036622
419.3815	0.034301
419.6000	0.035461
419.8185	0.034807
420.0370	0.036559
420.2555	0.034280
420.4741	0.037424
420.6926	0.039429
420.9112	0.040083
421.1298	0.041117
421.3483	0.041560
421.5669	0.041475
421.7856	0.043965
422.0042	0.043754
422.2228	0.040674
422.4415	0.041412
422.6601	0.039618
422.8788	0.039365
423.0975	0.039935
423.3162	0.039386
423.5349	0.038521
423.7536	0.040758
423.9724	0.039196
424.1911	0.039829
424.4099	0.037065
424.6287	0.037255
424.8475	0.038247
425.0663	0.037065
425.2851	0.038078
425.5039	0.039555
425.7228	0.035694
425.9416	0.036728
426.1605	0.038331
426.3793	0.035124
426.5982	0.035166
426.8171	0.035862
427.0361	0.037466
427.2550	0.037804
427.4739	0.040863
427.6929	0.039745
427.9118	0.039112
428.1308	0.037698
428.3498	0.039745
428.5688	0.038268
428.7878	0.038606
429.0068	0.037424
429.2259	0.037614
429.4449	0.038500
429.6640	0.042509
429.8831	0.045105
430.1022	0.045759
430.3213	0.043396
430.5404	0.044092
430.7595	0.043037
430.9787	0.044641
431.1978	0.042045
431.4170	0.040019
431.6362	0.039112
431.8553	0.035293
432.0745	0.037445
432.2938	0.035651
432.5130	0.036728
432.7322	0.036495
432.9515	0.036664
433.1707	0.034301
433.3900	0.039471
433.6093	0.040737
433.8286	0.046519
434.0479	0.046941
434.2673	0.041433
434.4866	0.042193
434.7059	0.039196
434.9253	0.040146
435.1447	0.037171
435.3641	0.040652
435.5835	0.038711
435.8029	0.038943
436.0223	0.041243
436.2418	0.040230
436.4612	0.042066
436.6807	0.040885
436.9001	0.042256
437.1196	0.041834
437.3391	0.039365
437.5586	0.040821
437.7782	0.041497
437.9977	0.040737
438.2173	0.041454
438.4368	0.042193
438.6564	0.044092
438.8760	0.043227
439.0956	0.041623
439.3152	0.042720
439.5348	0.041560
439.7545	0.041982
439.9741	0.042087
440.1938	0.040378
440.4135	0.042045
440.6331	0.043100
440.8528	0.042868
441.0725	0.045316
441.2923	0.049937
441.5120	0.049410
441.7318	0.050845
441.9515	0.053482
442.1713	0.052702
442.3911	0.052258
442.6109	0.049726
442.8307	0.047827
443.0505	0.048840
443.2703	0.050823
443.4902	0.049199
443.7101	0.050992
443.9299	0.052343
444.1498	0.050486
444.3697	0.048840
444.5896	0.050317
444.8095	0.050992
445.0295	0.050802
445.2494	0.047553
445.4694	0.050634
445.6894	0.052174
445.9093	0.049410
446.1293	0.049178
446.3493	0.050465
446.5694	0.051414
446.7894	0.047869
447.0094	0.050254
447.2295	0.049304
447.4496	0.049895
447.6696	0.050190
447.8897	0.048355
448.1098	0.046688
448.3300	0.047300
448.5501	0.045822
448.7702	0.046160
448.9904	0.049009
449.2106	0.047025
449.4307	0.048756
449.6509	0.048924
449.8711	0.046033
450.0914	0.048903
450.3116	0.049262
450.5318	0.048207
450.7521	0.047827
450.9724	0.046540
451.1926	0.044514
451.4129	0.044999
451.6332	0.048376
451.8535	0.046139
452.0739	0.047679
452.2942	0.044725
452.5146	0.044493
452.7349	0.048186
452.9553	0.046624
453.1757	0.045253
453.3961	0.043353
453.6165	0.042826
453.8369	0.044831
454.0574	0.041222
454.2778	0.042467
454.4983	0.043522
454.7188	0.042193
454.9393	0.044113
455.1597	0.044176
455.3803	0.044641
455.6008	0.044915
455.8213	0.046751
456.0419	0.044999
456.2624	0.042531
456.4830	0.046118
456.7036	0.044282
456.9242	0.043121
457.1448	0.046814
457.3654	0.043818
457.5860	0.047067
457.8067	0.047215
458.0274	0.046709
458.2480	0.050043
458.4687	0.048502
458.6894	0.050127
458.9101	0.048798
459.1308	0.049093
459.3516	0.047553
459.5723	0.050380
459.7931	0.048671
460.0138	0.049030
460.2346	0.047785
460.4554	0.045210
460.6762	0.045759
460.8970	0.045548
461.1178	0.046097
461.3387	0.048144
461.5595	0.048861
461.7804	0.046392
462.0013	0.043586
462.2222	0.043396
462.4431	0.043311
462.6640	0.043480
462.8849	0.043121
463.1059	0.041876
463.3268	0.047553
463.5478	0.045358
463.7687	0.048207
463.9897	0.046814
464.2107	0.049325
464.4317	0.050823
464.6528	0.052301
464.8738	0.052744
465.0948	0.051203
465.3159	0.053398
465.5370	0.054453
465.7581	0.057006
465.9792	0.054981
466.2003	0.052343
466.4214	0.050486
466.6425	0.049156
466.8637	0.047722
467.0848	0.045358
467.3060	0.045886
467.5272	0.045527
467.7484	0.042826
467.9696	0.046076
468.1908	0.044113
468.4120	0.044894
468.6333	0.043438
468.8545	0.045105
469.0758	0.043142
469.2970	0.042594
469.5183	0.042277
469.7396	0.041011
469.9610	0.038753
470.1823	0.040062
470.4036	0.038036
470.6250	0.039872
470.8463	0.038774
471.0677	0.037804
471.2891	0.040230
471.5105	0.037973
471.7319	0.039049
471.9533	0.038901
472.1748	0.039260
472.3962	0.039133
472.6177	0.041011
472.8391	0.042467
473.0606	0.040821
473.2821	0.044092
473.5036	0.043058
473.7251	0.044598
473.9467	0.043480
474.1682	0.042889
474.3898	0.043522
474.6113	0.042657
474.8329	0.044113
475.0545	0.046455
475.2761	0.047173
475.4977	0.047215
475.7193	0.046877
475.9410	0.047257
476.1626	0.046730
476.3843	0.045970
476.6060	0.045210
476.8277	0.043269
477.0494	0.043290
477.2711	0.040273
477.4928	0.042024
477.7145	0.043100
477.9363	0.043121
478.1580	0.045843
478.3798	0.048439
478.6016	0.044662
478.8234	0.042531
479.0452	0.043185
479.2670	0.047321
479.4888	0.048059
479.7107	0.046772
479.9325	0.046877
480.1544	0.048713
480.3763	0.049747
480.5982	0.049051
480.8201	0.047890
481.0420	0.045210
481.2639	0.048671
481.4859	0.051098
481.7078	0.049853
481.9298	0.050845
482.1517	0.051393
482.3737	0.049410
482.5957	0.047173
482.8177	0.048418
483.0398	0.049283
483.2618	0.047743
483.4838	0.046856
483.7059	0.050275
483.9280	0.048798
484.1501	0.049600
484.3721	0.052723
484.5943	0.054685
484.8164	0.057365
485.0385	0.056648
485.2606	0.055002
485.4828	0.076884
485.7050	0.128436
485.9271	0.177159
486.1493	0.186613
486.3715	0.157387
486.5937	0.124680
486.8160	0.105287
487.0382	0.099674
487.2605	0.094694
487.4827	0.078403
487.7050	0.065637
487.9273	0.058483
488.1496	0.056394
488.3719	0.050908
488.5942	0.051098
488.8165	0.052111
489.0389	0.049346
489.2612	0.050802
489.4836	0.048291
489.7060	0.050992
489.9284	0.049135
490.1508	0.049452
490.3732	0.050570
490.5956	0.050634
490.8180	0.049431
491.0405	0.050296
491.2630	0.050275
491.4854	0.050781
491.7079	0.048312
491.9304	0.046350
492.1529	0.047722
492.3755	0.048101
492.5980	0.048903
492.8205	0.048903
493.0431	0.048460
493.2657	0.048650
493.4882	0.047911
493.7108	0.050634
493.9334	0.050190
494.1561	0.049199
494.3787	0.050486
494.6013	0.049346
494.8240	0.051520
495.0466	0.046582
495.2693	0.047004
495.4920	0.045548
495.7147	0.044831
495.9374	0.046561
496.1601	0.051267
496.3829	0.052702
496.6056	0.054326
496.8284	0.054010
497.0511	0.051182
497.2739	0.050486
497.4967	0.048967
497.7195	0.047722
497.9423	0.049979
498.1652	0.046540
498.3880	0.047743
498.6109	0.047405
498.8337	0.047743
499.0566	0.047278
499.2795	0.049684
499.5024	0.052343
499.7253	0.050887
499.9482	0.050655
500.1712	0.052807
500.3941	0.049114
500.6171	0.048734
500.8400	0.048270
501.0630	0.047869
501.2860	0.052090
501.5090	0.053736
501.7320	0.052469
501.9551	0.051625
502.1781	0.050591
502.4012	0.053736
502.6242	0.053588
502.8473	0.054580
503.0704	0.048650
503.2935	0.050739
503.5166	0.052469
503.7397	0.054685
503.9628	0.051393
504.1860	0.049241
504.4092	0.050106
504.6323	0.049051
504.8555	0.045632
505.0787	0.048608
505.3019	0.047574
505.5251	0.049262
505.7483	0.048608
505.9716	0.048038
506.1948	0.046413
506.4181	0.050676
506.6414	0.049135
506.8647	0.048144
507.0880	0.047722
507.3113	0.044957
507.5346	0.044746
507.7579	0.045632
507.9813	0.046477
508.2046	0.047215
508.4280	0.047489
508.6514	0.046645
508.8748	0.044915
509.0982	0.047004
509.3216	0.045295
509.5450	0.045506
509.7685	0.044788
509.9919	0.044662
510.2154	0.046202
510.4388	0.045928
510.6623	0.047785
510.8858	0.044387
511.1093	0.045168
511.3329	0.045189
511.5564	0.046076
511.7799	0.043944
512.0035	0.046645
512.2270	0.042087
512.4506	0.043923
512.6742	0.041792
512.8978	0.044261
513.1214	0.043797
513.3451	0.043332
513.5687	0.044493
513.7923	0.040737
514.0160	0.041328
514.2397	0.042531
514.4634	0.041560
514.6871	0.040927
514.9108	0.044978
515.1345	0.037930
515.3582	0.038437
515.5819	0.040589
515.8057	0.038563
516.0295	0.040568
516.2532	0.039534
516.4770	0.039196
516.7008	0.040863
516.9246	0.040800
517.1485	0.040273
517.3723	0.040019
517.5961	0.040547
517.8200	0.037867
518.0439	0.039640
518.2677	0.039091
518.4916	0.038036
518.7155	0.040083
518.9395	0.038859
519.1634	0.038331
519.3873	0.039555
519.6113	0.039851
519.8352	0.038711
520.0592	0.040315
520.2832	0.037002
520.5072	0.034385
520.7312	0.037487
520.9552	0.035293
521.1792	0.035082
521.4033	0.036833
521.6273	0.036116
521.8514	0.035567
522.0755	0.035883
522.2996	0.033119
522.5237	0.034533
522.7478	0.036812
522.9719	0.035989
523.1960	0.033647
523.4202	0.034638
523.6443	0.038141
523.8685	0.036284
524.0927	0.037930
524.3169	0.036073
524.5411	0.037466
524.7653	0.035293
524.9895	0.035968
525.2138	0.033689
525.4380	0.034343
525.6623	0.036137
525.8865	0.036664
526.1108	0.034849
526.3351	0.035018
526.5594	0.036411
526.7837	0.035525
527.0081	0.033837
527.2324	0.036622
527.4568	0.037593
527.6811	0.036137
527.9055	0.035208
528.1299	0.035208
528.3543	0.034533
528.5787	0.038099
528.8031	0.039513
529.0276	0.038690
529.2520	0.037804
529.4765	0.037888
529.7009	0.038964
529.9254	0.038943
530.1499	0.037994
530.3744	0.038563
530.5989	0.035461
530.8234	0.036875
531.0480	0.038141
531.2725	0.034069
531.4971	0.036010
531.7217	0.033647
531.9462	0.036432
532.1708	0.035820
532.3954	0.034744
532.6200	0.037551
532.8447	0.039007
533.0693	0.038922
533.2940	0.041581
533.5186	0.042298
533.7433	0.041117
533.9680	0.042362
534.1927	0.039661
534.4174	0.043016
534.6421	0.042742
534.8668	0.045337
535.0916	0.043480
535.3163	0.043586
535.5411	0.042953
535.7659	0.042509
535.9907	0.043248
536.2155	0.040294
536.4403	0.038859
536.6651	0.038416
536.8899	0.038078
537.1148	0.038563
537.3396	0.036411
537.5645	0.039618
537.7894	0.041074
538.0143	0.040821
538.2392	0.045063
538.4641	0.041328
538.6890	0.041454
538.9139	0.042256
539.1389	0.042277
539.3638	0.045675
539.5888	0.043691
539.8138	0.044725
540.0388	0.042847
540.2638	0.042087
540.4888	0.041433
540.7138	0.042045
540.9389	0.041750
541.1639	0.042256
541.3890	0.046561
541.6140	0.043818
541.8391	0.042995
542.0642	0.046561
542.2893	0.046540
542.5144	0.044620
542.7396	0.046877
542.9647	0.045063
543.1899	0.044936
543.4150	0.041581
543.6402	0.046455
543.8654	0.047067
544.0906	0.047658
544.3158	0.046455
544.5410	0.048629
544.7662	0.049410
544.9915	0.047827
545.2167	0.050929
545.4420	0.047574
545.6673	0.045253
545.8926	0.043417
546.1179	0.043987
546.3432	0.043332
546.5685	0.045295
546.7938	0.043712
547.0192	0.045379
547.2445	0.045337
547.4699	0.049621
547.6953	0.047827
547.9206	0.053693
548.1460	0.052680
548.3715	0.055846
548.5969	0.053525
548.8223	0.050823
549.0478	0.048122
549.2732	0.046899
549.4987	0.046856
549.7242	0.046076
549.9496	0.045675
550.1751	0.043628
550.4007	0.046434
550.6262	0.044978
550.8517	0.047785
551.0773	0.041876
551.3028	0.040104
551.5284	0.040863
551.7540	0.043227
551.9796	0.046730
552.2052	0.050401
552.4308	0.050127
552.6564	0.050570
552.8820	0.049684
553.1077	0.048186
553.3333	0.048587
553.5590	0.049832
553.7847	0.050338
554.0104	0.050845
554.2361	0.048608
554.4618	0.048207
554.6875	0.046540
554.9132	0.044662
555.1390	0.045316
555.3648	0.050760
555.5905	0.049979
555.8163	0.049768
556.0421	0.049768
556.2679	0.051710
556.4937	0.050992
556.7195	0.050929
556.9454	0.046835
557.1712	0.047110
557.3971	0.047468
557.6230	0.047511
557.8488	0.049832
558.0747	0.049937
558.3006	0.045991
558.5266	0.046519
558.7525	0.043691
558.9784	0.043438
559.2044	0.046223
559.4303	0.044409
559.6563	0.044155
559.8823	0.043438
560.1083	0.047764
560.3343	0.050929
560.5603	0.053883
560.7863	0.053250
561.0124	0.058842
561.2384	0.060150
561.4645	0.057175
561.6905	0.054812
561.9166	0.053778
562.1427	0.052934
562.3688	0.055360
562.5949	0.050866
562.8211	0.053102
563.0472	0.052955
563.2733	0.057154
563.4995	0.054791
563.7257	0.054010
563.9519	0.054601
564.1781	0.056310
564.4043	0.055128
564.6305	0.060762
564.8567	0.054411
565.0829	0.059391
565.3092	0.058990
565.5355	0.058230
565.7617	0.056626
565.9880	0.057724
566.2143	0.058990
566.4406	0.062640
566.6669	0.061501
566.8932	0.060784
567.1196	0.063928
567.3459	0.072727
567.5723	0.075470
567.7987	0.076019
568.0250	0.077327
568.2514	0.077559
568.4778	0.084692
568.7043	0.090600
568.9307	0.092478
569.1571	0.098112
569.3836	0.106047
569.6100	0.114909
569.8365	0.127803
570.0630	0.136412
570.2895	0.137636
570.5160	0.135019
570.7425	0.135863
570.9690	0.151204
571.1956	0.154412
571.4221	0.162008
571.6487	0.163697
571.8752	0.172580
572.1018	0.172939
572.3284	0.177982
572.5550	0.162958
572.7816	0.147427
573.0082	0.152259
573.2349	0.156733
573.4615	0.173488
573.6882	0.187183
573.9149	0.188090
574.1415	0.198092
574.3682	0.203537
574.5949	0.212526
574.8216	0.210753
575.0484	0.212231
575.2751	0.212505
575.5018	0.213602
575.7286	0.203853
575.9554	0.194568
576.1821	0.191023
576.4089	0.194505
576.6357	0.204423
576.8626	0.212188
577.0894	0.221262
577.3162	0.219110
577.5431	0.227677
577.7699	0.253949
577.9968	0.291594
578.2237	0.284736
578.4505	0.263297
578.6774	0.250108
578.9044	0.231834
579.1313	0.223393
579.3582	0.220545
579.5851	0.229006
579.8121	0.236962
580.0391	0.239009
580.2660	0.238038
580.4930	0.234345
580.7200	0.226052
580.9470	0.236687
581.1741	0.275114
581.4011	0.329007
581.6281	0.358655
581.8552	0.358845
582.0822	0.352578
582.3093	0.341099
582.5364	0.317423
582.7635	0.290497
582.9906	0.265048
583.2177	0.247956
583.4449	0.231032
583.6720	0.217548
583.8991	0.207989
584.1263	0.211745
584.3535	0.216409
584.5807	0.220165
584.8079	0.226917
585.0351	0.243482
585.2623	0.255257
585.4895	0.257747
585.7167	0.253421
585.9440	0.243482
586.1713	0.230906
586.3985	0.220798
586.6258	0.211049
586.8531	0.219490
587.0804	0.228542
587.3077	0.242385
587.5350	0.241752
587.7624	0.243377
587.9897	0.232952
588.2171	0.215733
588.4445	0.212188
588.6718	0.209487
588.8992	0.201743
589.1266	0.186402
589.3540	0.173382
589.5815	0.173783
589.8089	0.172116
590.0363	0.165469
590.2638	0.163401
590.4913	0.154433
590.7187	0.151415
590.9462	0.144578
591.1737	0.140042
591.4012	0.135019
591.6288	0.135842
591.8563	0.141540
592.0838	0.136307
592.3114	0.139809
592.5389	0.161207
592.7665	0.186318
592.9941	0.207694
593.2217	0.209276
593.4493	0.212737
593.6769	0.205984
593.9046	0.199169
594.1322	0.188934
594.3598	0.174269
594.5875	0.175408
594.8152	0.185263
595.0429	0.196847
595.2705	0.203347
595.4983	0.195412
595.7260	0.186128
595.9537	0.177793
596.1814	0.163169
596.4092	0.155931
596.6369	0.146351
596.8647	0.145190
597.0925	0.147385
597.3203	0.151964
597.5481	0.152808
597.7759	0.152703
598.0037	0.145718
598.2315	0.142321
598.4594	0.143882
598.6872	0.159518
598.9151	0.179375
599.1430	0.185558
599.3709	0.185811
599.5988	0.179122
599.8267	0.178215
600.0546	0.186360
600.2825	0.185642
600.5105	0.184756
600.7384	0.183785
600.9664	0.183363
601.1944	0.189040
601.4223	0.183448
601.6503	0.176548
601.8783	0.170196
602.1064	0.168951
602.3344	0.166566
602.5624	0.167157
602.7905	0.169331
603.0185	0.176948
603.2466	0.182224
603.4747	0.190411
603.7028	0.185875
603.9309	0.186212
604.1590	0.170745
604.3871	0.168001
604.6152	0.160637
604.8434	0.154728
605.0715	0.149748
605.2997	0.155678
605.5279	0.164161
605.7561	0.169162
605.9843	0.173931
606.2125	0.169183
606.4407	0.159075
606.6689	0.158801
606.8972	0.153694
607.1254	0.156649
607.3537	0.157092
607.5819	0.158316
607.8102	0.155150
608.0385	0.152070
608.2668	0.148925
608.4951	0.142510
608.7235	0.144789
608.9518	0.137087
609.1801	0.134281
609.4085	0.131432
609.6369	0.131221
609.8653	0.137172
610.0936	0.145591
610.3220	0.148419
610.5505	0.146583
610.7789	0.137446
611.0073	0.136475
611.2357	0.133859
611.4642	0.135230
611.6927	0.135357
611.9211	0.135484
612.1496	0.128668
612.3781	0.128668
612.6066	0.126980
612.8351	0.127655
613.0637	0.126959
613.2922	0.125249
613.5208	0.125840
613.7493	0.123245
613.9779	0.124553
614.2065	0.124595
614.4351	0.128288
614.6637	0.121852
614.8923	0.122422
615.1209	0.124236
615.3495	0.122042
615.5782	0.127739
615.8068	0.125925
616.0355	0.122654
616.2642	0.116049
616.4929	0.110942
616.7216	0.110436
616.9503	0.108157
617.1790	0.105414
617.4077	0.107904
617.6365	0.107313
617.8652	0.106469
618.0940	0.108600
618.3227	0.106574
618.5515	0.099737
618.7803	0.089798
619.0091	0.087097
619.2379	0.089756
619.4667	0.089102
619.6956	0.088300
619.9244	0.091191
620.1533	0.095053
620.3821	0.093386
620.6110	0.090832
620.8399	0.087118
621.0688	0.075323
621.2977	0.072031
621.5266	0.070933
621.7556	0.076736
621.9845	0.077728
622.2135	0.080303
622.4424	0.080260
622.6714	0.079817
622.9004	0.083679
623.1294	0.085768
623.3584	0.088828
623.5874	0.086274
623.8164	0.083257
624.0454	0.081273
624.2745	0.081315
624.5035	0.088722
624.7326	0.087920
624.9617	0.085388
625.1908	0.083974
625.4199	0.080387
625.6490	0.077032
625.8781	0.078214
626.1072	0.077264
626.3364	0.071714
626.5655	0.070343
626.7947	0.066143
627.0238	0.066481
627.2530	0.070786
627.4822	0.067958
627.7114	0.071166
627.9406	0.066164
628.1698	0.061079
628.3991	0.059095
628.6283	0.057492
628.8576	0.055825
629.0868	0.058652
629.3161	0.058294
629.5454	0.060150
629.7747	0.059074
630.0040	0.059961
630.2333	0.058167
630.4626	0.058251
630.6920	0.055086
630.9213	0.054643
631.1507	0.052533
631.3801	0.050359
631.6094	0.051309
631.8388	0.053398
632.0682	0.050845
632.2976	0.050401
632.5271	0.046139
632.7565	0.044915
632.9859	0.041982
633.2154	0.044366
633.4448	0.042594
633.6743	0.044915
633.9038	0.043860
634.1333	0.044113
634.3628	0.040357
634.5923	0.041750
634.8218	0.038964
635.0514	0.038563
635.2809	0.038774
635.5105	0.039429
635.7400	0.039450
635.9696	0.039914
636.1992	0.040610
636.4288	0.045295
636.6584	0.045907
636.8880	0.042974
637.1177	0.043754
637.3473	0.040821
637.5770	0.039914
637.8066	0.038838
638.0363	0.040800
638.2660	0.040273
638.4957	0.042151
638.7254	0.042383
638.9551	0.038817
639.1848	0.039661
639.4145	0.037677
639.6443	0.037030
639.8740	0.037119
640.1038	0.039033
640.3336	0.037187
640.5633	0.035597
640.7931	0.036728
641.0229	0.034468
641.2528	0.032664
641.4826	0.032091
641.7124	0.032699
641.9423	0.029573
642.1721	0.031583
642.4020	0.027636
642.6319	0.028065
642.8617	0.028299
643.0916	0.029010
643.3216	0.026883
643.5515	0.029758
643.7814	0.028389
644.0113	0.028512
644.2413	0.027991
644.4712	0.027192
644.7012	0.025112
644.9312	0.026518
645.1612	0.026648
645.3912	0.026093
645.6212	0.025967
645.8512	0.024406
646.0812	0.024162
646.3113	0.025815
646.5413	0.023241
646.7714	0.026336
647.0015	0.024550
647.2316	0.024755
647.4616	0.024860
647.6918	0.025085
647.9219	0.025932
648.1520	0.027822
648.3821	0.028364
648.6123	0.029126
648.8424	0.031296
649.0726	0.032047
649.3028	0.032450
649.5329	0.033491
649.7631	0.031091
649.9933	0.031720
650.2236	0.029290
650.4538	0.027184
650.6840	0.028775
650.9143	0.026795
651.1445	0.026603
651.3748	0.028238
651.6051	0.028660
651.8354	0.029243
652.0657	0.029908
652.2960	0.031223
652.5263	0.028943
652.7566	0.029904
652.9870	0.031454
653.2173	0.030683
653.4477	0.030131
653.6780	0.030469
653.9084	0.030654
654.1388	0.031437
654.3692	0.033840
654.5996	0.032969
654.8300	0.038443
655.0605	0.058955
655.2909	0.175500
655.5213	0.491807
655.7518	0.927938
655.9823	1.000000
656.2128	1.000000
656.4433	1.000000
656.6738	1.000000
656.9043	1.000000
657.1348	0.828135
657.3653	0.677030
657.5959	0.579524
657.8264	0.501796
658.0570	0.459822
658.2875	0.416920
658.5181	0.381776
658.7487	0.357685
658.9793	0.344044
659.2099	0.299423
659.4406	0.218596
659.6712	0.142594
659.9018	0.080119
660.1325	0.050460
660.3632	0.033854
660.5938	0.029558
660.8245	0.023755
661.0552	0.024737
661.2859	0.023273
661.5166	0.022390
661.7474	0.022176
661.9781	0.021302
662.2088	0.022182
662.4396	0.021412
662.6704	0.020217
662.9011	0.020899
663.1319	0.021454
663.3627	0.019428
663.5935	0.018469
663.8243	0.021085
664.0552	0.021305
664.2860	0.020349
664.5168	0.022087
664.7477	0.020974
664.9786	0.023578
665.2094	0.020425
665.4403	0.023692
665.6712	0.021663
665.9021	0.023461
666.1330	0.023290
666.3640	0.022124
666.5949	0.020940
666.8259	0.018700
667.0568	0.021041
667.2878	0.020336
667.5188	0.021472
667.7497	0.019552
667.9807	0.020049
668.2117	0.019854
668.4428	0.018601
668.6738	0.019171
668.9048	0.019403
669.1359	0.019909
669.3669	0.020226
669.5980	0.017462
669.8291	0.019614
670.0602	0.021344
670.2913	0.020690
670.5224	0.020521
670.7535	0.019931
670.9846	0.020775
671.2157	0.024109
671.4469	0.023877
671.6781	0.028814
671.9092	0.028224
672.1404	0.030081
672.3716	0.033773
672.6028	0.032845
672.8340	0.035018
673.0652	0.031410
673.2964	0.030313
673.5277	0.029194
673.7589	0.028055
673.9902	0.030334
674.2214	0.026261
674.4527	0.026599
674.6840	0.024953
674.9153	0.025058
675.1466	0.025037
675.3779	0.028730
675.6093	0.023982
675.8406	0.025839
676.0719	0.023834
676.3033	0.024510
676.5347	0.022632
676.7661	0.020943
676.9974	0.022210
677.2288	0.021766
677.4602	0.025459
677.6917	0.026177
677.9231	0.028603
678.1545	0.026979
678.3860	0.026367
678.6174	0.030714
678.8489	0.029004
679.0804	0.031473
679.3119	0.030587
679.5434	0.033921
679.7749	0.032887
680.0064	0.032085
680.2379	0.033520
680.4694	0.030418
680.7010	0.032824
680.9325	0.033541
681.1641	0.031937
681.3957	0.034702
681.6273	0.034385
681.8589	0.031220
682.0905	0.031157
682.3221	0.030650
682.5537	0.030671
682.7854	0.028202
683.0170	0.028435
683.2487	0.030397
683.4803	0.030081
683.7120	0.032064
683.9437	0.029996
684.1754	0.030798
684.4071	0.032507
684.6388	0.037508
684.8705	0.038458
685.1023	0.039154
685.3340	0.044683
685.5658	0.041834
685.7975	0.043353
686.0293	0.043185
686.2611	0.041370
686.4929	0.043206
686.7247	0.040273
686.9565	0.040399
687.1883	0.042889
687.4202	0.043818
687.6520	0.042362
687.8838	0.039429
688.1157	0.039112
688.3476	0.035672
688.5795	0.037002
688.8114	0.035461
689.0433	0.031368
689.2752	0.034617
689.5071	0.036200
689.7390	0.034238
689.9710	0.032697
690.2029	0.032444
690.4349	0.032993
690.6669	0.032592
690.8988	0.033984
691.1308	0.037424
691.3628	0.037424
691.5948	0.035525
691.8269	0.034913
692.0589	0.035461
692.2909	0.037529
692.5230	0.037150
692.7550	0.035947
692.9871	0.037318
693.2192	0.036348
693.4513	0.039028
693.6834	0.036010
693.9155	0.036073
694.1476	0.034976
694.3797	0.031093
694.6119	0.031579
694.8440	0.033351
695.0762	0.033583
695.3083	0.035103
695.5405	0.029806
695.7727	0.027886
696.0049	0.029279
696.2371	0.027527
696.4693	0.030313
696.7016	0.033942
696.9338	0.035989
697.1660	0.039344
697.3983	0.037424
697.6306	0.034744
697.8628	0.036411
698.0951	0.035672
698.3274	0.036580
698.5597	0.033520
698.7920	0.036643
699.0243	0.035440
699.2567	0.032676
699.4890	0.033077
699.7214	0.032486
699.9537	0.033457
700.1861	0.032571
700.4185	0.030165
700.6509	0.032022
700.8833	0.028624
701.1157	0.028519
701.3481	0.028245
701.5806	0.028477
701.8130	0.026029
702.0454	0.030397
702.2779	0.028097
702.5104	0.028329
702.7429	0.030017
702.9753	0.029447
703.2078	0.028730
703.4403	0.025923
703.6729	0.027633
703.9054	0.026768
704.1379	0.027569
704.3705	0.026810
704.6030	0.027105
704.8356	0.024446
705.0682	0.024172
705.3008	0.023687
705.5334	0.021977
705.7660	0.021914
705.9986	0.024805
706.2312	0.025079
706.4638	0.028836
706.6965	0.032634
706.9291	0.034280
707.1618	0.035377
707.3945	0.035651
707.6272	0.036559
707.8599	0.036221
708.0926	0.033182
708.3253	0.036875
708.5580	0.035229
708.7907	0.034638
709.0235	0.031832
709.2562	0.033056
709.4890	0.030735
709.7217	0.033415
709.9545	0.031832
710.1873	0.030313
710.4201	0.031937
710.6529	0.035820
710.8857	0.032296
711.1186	0.030840
711.3514	0.027696
711.5842	0.030819
711.8171	0.028603
712.0500	0.025734
712.2828	0.026915
712.5157	0.028624
712.7486	0.027823
712.9815	0.026915
713.2144	0.030102
713.4474	0.029975
713.6803	0.031705
713.9132	0.031009
714.1462	0.033604
714.3791	0.031537
714.6121	0.032212
714.8451	0.032676
715.0781	0.032085
715.3111	0.033415
715.5441	0.032908
715.7771	0.029616
716.0102	0.028941
716.2432	0.029764
716.4762	0.026873
716.7093	0.025354
716.9424	0.026177
717.1754	0.027232
717.4085	0.026345
717.6416	0.024531
717.8747	0.026704
718.1078	0.028160
718.3410	0.028392
718.5741	0.026451
718.8072	0.026472
719.0404	0.028371
719.2736	0.028308
719.5067	0.030756
719.7399	0.026979
719.9731	0.028624
720.2063	0.026620
720.4395	0.026746
720.6727	0.027063
720.9060	0.024995
721.1392	0.029426
721.3725	0.028730
721.6057	0.028624
721.8390	0.028540
722.0723	0.028836
722.3055	0.026451
722.5388	0.028160
722.7721	0.026957
723.0055	0.025501
723.2388	0.025586
723.4721	0.026261
723.7055	0.026789
723.9388	0.027717
724.1722	0.025797
724.4056	0.024615
724.6389	0.026029
724.8723	0.026430
725.1057	0.029490
725.3391	0.029173
725.5726	0.030692
725.8060	0.032064
726.0394	0.032381
726.2729	0.030355
726.5063	0.030671
726.7398	0.031157
726.9733	0.030861
727.2068	0.029891
727.4403	0.032697
727.6738	0.031600
727.9073	0.031178
728.1408	0.031494
728.3743	0.032929
728.6079	0.033858
728.8414	0.031030
729.0750	0.032338
729.3086	0.035757
729.5421	0.035335
729.7757	0.038542
730.0093	0.036010
730.2429	0.034195
730.4766	0.038395
730.7102	0.036601
730.9438	0.041180
731.1775	0.039787
731.4111	0.040610
731.6448	0.041961
731.8785	0.041897
732.1122	0.039576
732.3458	0.039091
732.5795	0.037508
732.8133	0.041159
733.0470	0.040188
733.2807	0.038985
733.5145	0.042214
733.7482	0.042573
733.9820	0.044472
734.2157	0.049220
734.4495	0.050866
734.6833	0.048692
734.9171	0.045780
735.1509	0.046287
735.3847	0.047194
735.6185	0.046371
735.8524	0.047384
736.0862	0.046877
736.3201	0.046477
736.5539	0.045021
736.7878	0.044155
737.0217	0.045970
737.2556	0.045527
737.4895	0.043142
737.7234	0.043079
737.9573	0.041708
738.1912	0.040906
738.4252	0.039640
738.6591	0.037508
738.8931	0.041412
739.1271	0.042214
739.3610	0.044198
739.5950	0.046223
739.8290	0.043797
740.0630	0.042024
740.2970	0.040758
740.5310	0.038120
740.7651	0.036348
740.9991	0.035039
741.2332	0.033604
741.4672	0.034385
741.7013	0.032592
741.9354	0.030925
742.1695	0.034027
742.4036	0.034027
742.6377	0.034660
742.8718	0.032845
743.1059	0.033689
743.3400	0.029827
743.5742	0.029975
743.8083	0.028582
744.0425	0.029680
744.2767	0.029764
744.5108	0.030334
744.7450	0.027253
744.9792	0.030840
745.2134	0.027105
745.4477	0.027168
745.6819	0.025860
745.9161	0.026683
746.1504	0.027591
746.3846	0.028371
746.6189	0.025818
746.8532	0.025945
747.0874	0.028730
747.3217	0.030249
747.5560	0.029279
747.7903	0.028456
748.0247	0.027696
748.2590	0.026535
748.4933	0.028308
748.7277	0.026746
748.9620	0.028582
749.1964	0.028287
749.4308	0.029321
749.6652	0.034153
749.8995	0.035757
750.1339	0.035419
750.3684	0.039112
750.6028	0.038753
750.8372	0.038859
751.0717	0.037023
751.3061	0.037867
751.5406	0.036137
751.7750	0.041032
752.0095	0.039007
752.2440	0.036981
752.4785	0.036960
752.7130	0.038859
752.9475	0.034744
753.1820	0.033921
753.4166	0.035820
753.6511	0.037656
753.8856	0.042108
754.1202	0.040568
754.3548	0.039956
754.5894	0.037361
754.8239	0.038162
755.0585	0.037023
755.2931	0.040125
755.5278	0.040378
755.7624	0.041623
755.9970	0.042425
756.2317	0.043100
756.4663	0.045084
756.7010	0.046055
756.9356	0.048059
757.1703	0.050507
757.4050	0.053968
757.6397	0.055508
757.8744	0.058716
758.1091	0.055529
758.3438	0.055656
758.5786	0.052807
758.8133	0.049979
759.0481	0.051098
759.2828	0.056943
759.5176	0.056310
759.7524	0.058336
759.9872	0.057196
760.2220	0.057703
760.4568	0.060361
760.6916	0.061058
760.9264	0.058927
761.1613	0.061269
761.3961	0.058357
761.6310	0.053335
761.8658	0.049009
762.1007	0.046561
762.3356	0.048713
762.5705	0.045126
762.8054	0.044725
763.0403	0.045042
763.2752	0.045843
763.5101	0.047215
763.7450	0.046920
763.9800	0.048186
764.2149	0.048840
764.4499	0.052005
764.6849	0.052891
764.9198	0.058357
765.1548	0.054158
765.3898	0.054875
765.6248	0.050254
765.8599	0.048333
766.0949	0.045316
766.3299	0.045590
766.5650	0.043543
766.8000	0.039302
767.0351	0.036390
767.2701	0.036327
767.5052	0.035061
767.7403	0.036875
767.9754	0.037508
768.2105	0.041982
768.4456	0.044746
768.6808	0.044915
768.9159	0.045485
769.1510	0.046730
769.3862	0.046582
769.6214	0.044957
769.8565	0.040863
770.0917	0.043712
770.3269	0.042699
770.5621	0.041686
770.7973	0.046033
771.0325	0.047067
771.2677	0.047532
771.5030	0.046033
771.7382	0.044641
771.9735	0.041982
772.2087	0.041792
772.4440	0.038901
772.6793	0.041264
772.9146	0.036622
773.1499	0.035757
773.3852	0.037909
773.6205	0.035018
773.8558	0.036327
774.0911	0.033225
774.3265	0.032887
774.5618	0.031178
774.7972	0.031051
775.0326	0.030608
775.2679	0.027696
775.5033	0.026472
775.7387	0.027506
775.9741	0.025438
776.2095	0.024742
776.4450	0.024404
776.6804	0.024299
776.9158	0.025290
777.1513	0.024721
777.3868	0.023391
777.6222	0.023729
777.8577	0.022336
778.0932	0.025586
778.3287	0.023075
778.5642	0.025438
778.7997	0.026599
779.0352	0.029025
779.2707	0.032275
779.5063	0.031009
779.7418	0.028055
779.9774	0.027021
780.2130	0.028413
780.4485	0.027654
780.6841	0.027232
780.9197	0.029447
781.1553	0.030334
781.3909	0.031494
781.6265	0.031832
781.8622	0.032866
782.0978	0.032191
782.3335	0.032697
782.5691	0.034301
782.8048	0.032571
783.0405	0.031326
783.2761	0.031895
783.5118	0.032592
783.7475	0.032043
783.9832	0.034617
784.2190	0.032381
784.4547	0.031558
784.6904	0.028477
784.9262	0.027548
785.1619	0.026683
785.3977	0.028392
785.6335	0.028920
785.8692	0.026894
786.1050	0.028646
786.3408	0.026831
786.5766	0.027253
786.8124	0.025586
787.0483	0.026261
787.2841	0.027633
787.5199	0.027358
787.7558	0.028603
787.9917	0.030334
788.2275	0.029342
788.4634	0.028983
788.6993	0.030439
788.9352	0.031642
789.1711	0.026936
789.4070	0.029954
789.6429	0.025016
789.8789	0.026704
790.1148	0.026367
790.3507	0.023096
790.5867	0.025860
790.8227	0.022800
791.0586	0.023771
791.2946	0.020500
791.5306	0.024320
791.7666	0.023349
792.0026	0.022421
792.2387	0.023307
792.4747	0.020627
792.7107	0.021260
792.9468	0.021218
793.1828	0.020627
793.4189	0.023518
793.6550	0.019677
793.8910	0.026029
794.1271	0.027147
794.3632	0.028962
794.5993	0.029595
794.8355	0.030714
795.0716	0.030313
795.3077	0.030587
795.5439	0.029426
795.7800	0.029447
796.0162	0.026873
796.2523	0.021809
796.4885	0.023307
796.7247	0.020247
796.9609	0.019551
797.1971	0.020690
797.4333	0.020859
797.6695	0.021534
797.9058	0.024024
798.1420	0.021682
798.3783	0.021112
798.6145	0.021197
798.8508	0.022526
799.0871	0.021365
799.3233	0.022125
799.5596	0.020479
799.7959	0.020395
800.0322	0.017293
800.2686	0.017778
800.5049	0.017989
800.7412	0.018242
800.9776	0.016850
801.2139	0.019192
801.4503	0.016934
801.6867	0.018348
801.9230	0.015246
802.1594	0.016027
802.3958	0.014718
802.6322	0.015858
802.8686	0.015668
803.1051	0.017166
803.3415	0.017061
803.5779	0.017419
803.8144	0.017377
804.0508	0.016343
804.2873	0.016491
804.5238	0.016407
804.7603	0.018200
804.9968	0.016786
805.2333	0.016639
805.4698	0.016744
805.7063	0.018686
805.9428	0.018116
806.1794	0.019044
806.4159	0.022231
806.6525	0.024911
806.8890	0.022610
807.1256	0.023792
807.3622	0.021809
807.5988	0.021302
807.8354	0.020015
808.0720	0.021323
808.3086	0.023750
808.5452	0.021429
808.7818	0.023117
809.0185	0.021724
809.2551	0.022779
809.4918	0.019234
809.7284	0.021007
809.9651	0.019825
810.2018	0.018580
810.4385	0.018242
810.6752	0.019361
810.9119	0.016449
811.1486	0.018264
811.3853	0.016407
811.6221	0.017799
811.8588	0.016597
812.0956	0.015225
812.3323	0.015098
812.5691	0.014951
812.8059	0.013136
813.0427	0.014001
813.2795	0.013748
813.5163	0.015204
813.7531	0.016343
813.9899	0.017673
814.2267	0.015900
814.4636	0.018643
814.7004	0.017187
814.9373	0.017166
815.1742	0.014866
815.4110	0.014043
815.6479	0.015246
815.8848	0.011532
816.1217	0.013706
816.3586	0.014444
816.5955	0.014001
816.8324	0.013199
817.0694	0.014803
817.3063	0.013094
817.5433	0.015415
817.7802	0.013136
818.0172	0.015035
818.2542	0.014149
818.4912	0.013663
818.7282	0.011511
818.9652	0.011574
819.2022	0.010456
819.4392	0.013516
819.6762	0.010794
819.9133	0.011574
820.1503	0.011806
820.3874	0.013473
820.6244	0.013980
820.8615	0.015056
821.0986	0.013347
821.3357	0.014444
821.5727	0.015837
821.8099	0.014085
822.0470	0.013030
822.2841	0.013706
822.5212	0.011342
822.7584	0.011595
822.9955	0.010772
823.2327	0.010477
823.4698	0.011595
823.7070	0.011511
823.9442	0.010878
824.1814	0.009823
824.4186	0.011722
824.6558	0.011089
824.8930	0.009338
825.1302	0.010920
825.3675	0.012397
825.6047	0.011574
825.8419	0.011996
826.0792	0.013516
826.3165	0.011701
826.5537	0.010857
826.7910	0.012102
827.0283	0.012355
827.2656	0.011089
827.5029	0.013030
827.7402	0.014233
827.9776	0.012418
828.2149	0.012186
828.4522	0.011701
828.6896	0.012798
828.9270	0.013115
829.1643	0.011300
829.4017	0.010815
829.6391	0.011975
829.8765	0.012165
830.1139	0.009907
830.3513	0.010076
830.5887	0.008873
830.8261	0.009211
831.0636	0.009105
831.3010	0.008979
831.5385	0.007755
831.7759	0.008325
832.0134	0.008240
832.2509	0.007227
832.4884	0.006278
832.7259	0.007797
832.9634	0.008029
833.2009	0.009190
833.4384	0.007860
833.6759	0.009844
833.9135	0.009971
834.1510	0.010920
834.3886	0.009760
834.6261	0.010224
834.8637	0.008409
835.1013	0.010160
835.3389	0.010055
835.5765	0.009126
835.8141	0.009675
836.0517	0.009063
836.2893	0.008831
836.5269	0.009148
836.7646	0.007903
837.0022	0.008304
837.2399	0.006658
837.4775	0.007122
837.7152	0.007565
837.9529	0.005708
838.1906	0.007080
838.4283	0.007396
838.6660	0.004906
838.9037	0.007544
839.1414	0.005666
839.3791	0.006763
839.6169	0.004780
839.8546	0.007502
840.0924	0.007101
840.3302	0.007396
840.5679	0.006763
840.8057	0.007206
841.0435	0.005603
841.2813	0.005075
841.5191	0.004927
841.7569	0.006489
841.9947	0.006109
842.2326	0.006869
842.4704	0.004189
842.7082	0.005560
842.9461	0.004906
843.1840	0.005159
843.4218	0.004991
843.6597	0.005413
843.8976	0.005391
844.1355	0.004569
844.3734	0.005729
844.6113	0.006130
844.8492	0.004948
845.0872	0.005286
845.3251	0.004843
845.5631	0.004294
845.8010	0.005856
846.0390	0.005180
846.2770	0.005054
846.5149	0.005117
846.7529	0.004104
846.9909	0.005961
847.2289	0.003513
847.4669	0.003661
847.7050	0.005877
847.9430	0.005434
848.1810	0.006447
848.4191	0.004189
848.6571	0.003978
848.8952	0.005666
849.1333	0.003746
849.3713	0.005244
849.6094	0.004716
849.8475	0.005729
850.0856	0.004569
850.3237	0.004421
850.5619	0.004674
850.8000	0.004590
851.0381	0.005581
851.2763	0.004146
851.5144	0.003302
851.7526	0.005054
851.9908	0.005455
852.2289	0.006995
852.4671	0.006805
852.7053	0.009126
852.9435	0.010836
853.1817	0.012186
853.4200	0.011173
853.6582	0.013389
853.8964	0.013030
854.1347	0.012840
854.3729	0.013642
854.6112	0.014360
854.8495	0.014170
855.0877	0.013663
855.3260	0.011469
855.5643	0.011891
855.8026	0.011152
856.0409	0.012355
856.2792	0.012418
856.5176	0.012756
856.7559	0.011912
856.9942	0.011933
857.2326	0.012334
857.4710	0.008979
857.7093	0.009401
857.9477	0.010182
858.1861	0.009823
858.4245	0.009570
858.6629	0.009949
858.9013	0.009380
859.1397	0.006974
859.3781	0.008873
859.6166	0.009148
859.8550	0.008472
860.0935	0.007797
860.3319	0.008937
860.5704	0.007016
860.8089	0.008620
861.0473	0.006025
861.2858	0.007059
861.5243	0.006088
861.7628	0.007860
862.0013	0.007059
862.2399	0.006848
862.4784	0.005982
862.7169	0.006447
862.9555	0.003999
863.1940	0.006236
863.4326	0.006151
863.6712	0.006890
863.9098	0.006214
864.1483	0.006510
864.3869	0.004948
864.6255	0.005560
864.8642	0.004400
865.1028	0.006299
865.3414	0.004843
865.5800	0.005750
865.8187	0.005265
866.0573	0.005624
866.2960	0.003830
866.5347	0.005054
866.7733	0.005919
867.0120	0.004421
867.2507	0.004653
867.4894	0.004379
867.7281	0.004864
867.9669	0.004400
868.2056	0.005560
868.4443	0.006953
868.6831	0.006088
868.9218	0.004379
869.1606	0.002838
869.3993	0.002712
869.6381	0.002796
869.8769	0.005349
870.1157	0.005286
870.3545	0.004758
870.5933	0.004484
870.8321	0.005159
871.0709	0.005750
871.3097	0.005518
871.5486	0.003809
871.7874	0.006193
872.0263	0.004674
872.2651	0.006362
872.5040	0.003429
872.7429	0.004104
872.9818	0.004294
873.2207	0.004674
873.4596	0.003535
873.6985	0.004695
873.9374	0.004379
874.1763	0.005391
874.4153	0.005223
874.6542	0.005539
874.8932	0.005666
875.1321	0.004463
875.3711	0.005961
875.6101	0.007227
875.8491	0.006510
876.0880	0.005750
876.3270	0.005307
876.5661	0.004273
876.8051	0.004927
877.0441	0.005919
877.2831	0.005012
877.5222	0.005455
877.7612	0.006784
878.0003	0.005391
878.2393	0.005940
878.4784	0.006932
878.7175	0.005328
878.9566	0.006974
879.1957	0.006404
879.4348	0.006552
879.6739	0.006489
879.9130	0.007755
880.1521	0.007776
880.3913	0.008093
880.6304	0.007649
880.8696	0.008177
881.1087	0.007122
881.3479	0.008515
881.5871	0.007417
881.8262	0.006025
882.0654	0.006425
882.3046	0.005518
882.5438	0.005286
882.7831	0.004653
883.0223	0.005603
883.2615	0.004948
883.5007	0.005877
883.7400	0.005075
883.9792	0.006362
884.2185	0.006404
884.4578	0.006848
884.6971	0.004336
884.9363	0.004526
885.1756	0.006383
885.4149	0.006848
885.6542	0.007206
885.8936	0.007037
886.1329	0.005455
886.3722	0.006088
886.6116	0.005940
886.8509	0.006130
887.0903	0.005117
887.3296	0.006552
887.5690	0.005771
887.8084	0.006383
888.0478	0.005708
888.2872	0.005560
888.5266	0.006046
888.7660	0.004463
889.0054	0.004885
889.2448	0.007080
889.4843	0.005223
889.7237	0.005117
889.9632	0.005033
890.2026	0.004590
890.4421	0.003197
890.6816	0.004780
890.9211	0.004189
891.1606	0.005117
891.4001	0.004653
891.6396	0.005539
891.8791	0.006236
892.1186	0.004653
892.3581	0.004927
892.5977	0.004948
892.8372	0.004547
893.0768	0.004421
893.3163	0.005434
893.5559	0.004822
893.7955	0.004062
894.0351	0.004547
894.2747	0.003239
894.5143	0.005075
894.7539	0.004041
894.9935	0.004611
895.2331	0.004864
895.4727	0.004632
895.7124	0.004442
895.9520	0.006531
896.1917	0.004611
896.4314	0.006425
896.6710	0.005729
896.9107	0.003724
897.1504	0.004991
897.3901	0.002923
897.6298	0.004526
897.8695	0.006067
898.1092	0.004315
898.3489	0.004189
898.5887	0.004273
898.8284	0.003513
899.0682	0.004358
899.3079	0.004611
899.5477	0.004716
899.7875	0.004695
900.0272	0.002543
900.2670	0.003197
900.5068	0.005370
900.7466	0.005581
900.9864	0.006046
901.2263	0.003492
901.4661	0.004146
901.7059	0.005370
901.9458	0.004315
902.1856	0.004463
902.4255	0.002501
902.6654	0.003978
902.9052	0.002817
903.1451	0.006003
903.3850	0.003218
903.6249	0.003999
903.8648	0.003302
904.1047	0.005307
904.3446	0.005497
904.5846	0.005877
904.8245	0.005265
905.0644	0.004379
905.3044	0.003872
905.5444	0.005265
905.7843	0.003429
906.0243	0.004927
906.2643	0.003682
906.5043	0.005603
906.7443	0.005012
906.9843	0.005814
907.2243	0.005328
907.4643	0.004822
907.7043	0.004189
907.9444	0.004991
908.1844	0.004231
908.4245	0.004062
908.6645	0.003746
908.9046	0.002859
909.1447	0.003872
909.3847	0.003598
909.6248	0.002479
909.8649	0.004442
910.1050	0.003577
910.3452	0.003513
910.5853	0.004168
910.8254	0.003492
911.0655	0.003070
911.3057	0.003619
911.5458	0.002733
911.7860	0.002690
912.0262	0.003914
912.2663	0.004358
912.5065	0.004189
912.7467	0.006383
912.9869	0.004146
913.2271	0.003830
913.4673	0.002901
913.7075	0.003429
913.9478	0.002036
914.1880	0.004210
914.4283	0.003809
914.6685	0.003999
914.9088	0.002205
915.1490	0.004294
915.3893	0.003724
915.6296	0.002838
915.8699	0.002733
916.1102	0.002205
916.3505	0.003070
916.5908	0.003598
916.8311	0.004674
917.0714	0.004146
917.3118	0.002986
917.5521	0.004927
917.7925	0.003661
918.0328	0.002543
918.2732	0.005497
918.5136	0.004653
918.7539	0.003366
918.9943	0.004442
919.2347	0.004358
919.4751	0.004358
919.7155	0.004463
919.9560	0.004210
920.1964	0.003260
920.4368	0.004442
920.6773	0.002754
920.9177	0.003746
921.1582	0.002712
921.3986	0.004104
921.6391	0.003324
921.8796	0.004083
922.1201	0.002796
922.3606	0.003471
922.6011	0.002627
922.8416	0.003113
923.0821	0.002311
923.3226	0.002986
923.5631	0.002923
923.8037	0.004168
924.0442	0.002311
924.2848	0.002311
924.5254	0.002079
924.7659	0.003007
925.0065	0.002733
925.2471	0.001994
925.4877	0.002522
925.7283	0.002754
925.9689	0.001277
926.2095	0.002796
926.4501	0.002648
926.6908	0.001171
926.9314	0.002606
927.1720	0.002627
927.4127	0.002100
927.6533	0.002817
927.8940	0.000770
928.1347	0.002036
928.3754	0.001931
928.6161	0.002057
928.8568	0.001952
929.0975	0.002142
929.3382	0.001572
929.5789	0.001445
929.8196	0.000812
930.0604	0.002901
930.3011	0.002754
930.5419	0.001213
930.7826	0.002458
931.0234	0.002543
931.2642	0.001973
931.5049	0.001298
931.7457	0.003387
931.9865	0.002163
932.2273	0.001889
932.4681	0.002501
932.7089	0.002353
932.9498	0.002648
933.1906	0.002015
933.4314	0.002184
933.6723	0.001994
933.9131	0.003049
934.1540	0.002290
934.3949	0.001129
934.6358	0.002015
934.8766	0.004104
935.1175	0.002332
935.3584	0.003450
935.5993	0.000960
935.8403	0.001593
936.0812	0.000200
936.3221	0.001467
936.5630	0.000369
936.8040	0.001403
937.0449	0.001319
937.2859	0.003197
937.5269	0.002648
937.7678	0.001952
938.0088	0.002142
938.2498	0.001213
938.4908	0.002501
938.7318	0.001994
938.9728	0.001699
939.2138	0.002479
939.4549	0.002142
939.6959	0.001846
939.9369	0.002522
940.1780	0.000749
940.4190	0.000496
940.6601	0.001002
940.9012	0.001804
941.1422	0.001994
941.3833	0.001889
941.6244	0.000580
941.8655	0.000834
942.1066	0.001403
942.3477	0.002501
942.5889	0.001277
942.8300	0.001087
943.0711	0.000517
943.3123	0.002015
943.5534	0.000939
943.7946	0.001910
944.0357	0.001361
944.2769	0.000770
944.5181	0.001994
944.7593	0.001277
945.0005	-0.000074
945.2417	0.000411
945.4829	-0.000243
945.7241	0.001994
945.9653	0.001256
946.2066	-0.000327
946.4478	0.001403
946.6891	0.000918
946.9303	0.001298
947.1716	0.001171
947.4128	0.001045
947.6541	0.001234
947.8954	0.001150
948.1367	0.001403
948.3780	0.002057
948.6193	0.001403
948.8606	0.000644
949.1019	0.001720
949.3433	-0.000327
949.5846	0.001741
949.8259	0.000834
950.0673	0.001678
950.3086	0.001741
950.5500	0.000939
950.7914	0.001023
951.0327	0.000960
951.2741	0.001530
951.5155	0.001699
951.7569	-0.000369
951.9983	0.002585
952.2398	0.001403
952.4812	0.002268
952.7226	0.000496
952.9640	0.002437
953.2055	0.001002
953.4469	0.002458
953.6884	0.001635
953.9299	0.002184
954.1713	0.001593
954.4128	0.002479
954.6543	0.000855
954.8958	0.001973
955.1373	-0.000032
955.3788	0.001002
955.6203	0.001614
955.8618	0.001488
956.1034	0.000939
956.3449	0.000981
956.5865	0.001066
956.8280	0.001298
957.0696	0.000306
957.3111	0.000243
957.5527	0.000074
957.7943	0.000749
958.0359	0.000306
958.2775	0.001488
958.5191	0.001319
958.7607	0.001150
959.0023	0.002311
959.2439	0.001973
959.4856	0.000369
959.7272	0.000686
959.9688	0.000285
960.2105	0.000791
960.4522	-0.000327
960.6938	0.001234
960.9355	0.000243
961.1772	0.001973
961.4189	-0.000264
961.6606	0.001952
961.9023	-0.000074
962.1440	0.000707
962.3857	-0.000011
962.6274	0.002332
962.8692	0.000475
963.1109	0.000074
963.3527	0.000686
963.5944	0.001192
963.8362	0.002015
964.0779	0.001614
964.3197	0.001192
964.5615	0.000897
964.8033	0.000707
965.0451	0.000411
965.2869	0.001361
965.5287	0.000855
965.7705	0.001192
966.0123	0.000369
966.2542	0.000327
966.4960	0.000897
966.7379	0.001635
966.9797	0.000559
967.2216	0.000454
967.4634	0.001382
967.7053	0.000538
967.9472	-0.000707
968.1891	-0.000285
968.4310	0.000179
968.6729	0.000095
968.9148	0.000095
969.1567	0.000116
969.3987	0.000834
969.6406	0.001467
969.8825	0.000348
970.1245	0.000791
970.3664	0.000496
970.6084	0.000116
970.8504	0.000032
971.0923	0.001087
971.3343	0.000791
971.5763	0.000454
971.8183	0.000390
972.0603	0.001699
972.3023	0.000538
972.5443	0.000538
972.7864	0.000855
973.0284	0.001530
973.2704	0.001108
973.5125	0.001171
973.7545	0.001783
973.9966	-0.000369
974.2387	0.001424
974.4807	0.001234
974.7228	-0.000327
974.9649	-0.000517
975.2070	0.000665
975.4491	-0.000095
975.6912	0.000264
975.9333	-0.000981
976.1755	-0.000137
976.4176	0.000559
976.6597	0.000517
976.9019	0.000285
977.1440	0.001066
977.3862	0.000644
977.6283	0.000179
977.8705	0.001066
978.1127	0.001023
978.3549	0.001720
978.5971	0.001783
978.8393	0.000158
979.0815	0.001298
979.3237	0.000876
979.5659	0.000749
979.8082	-0.001213
980.0504	0.002479
980.2926	0.000011
980.5349	-0.000306
980.7771	-0.000623
981.0194	-0.000369
981.2617	-0.000243
981.5040	0.000644
981.7462	-0.000834
981.9885	0.000032
982.2308	-0.000032
982.4731	0.000369
982.7155	0.000369
982.9578	-0.000011
983.2001	0.001023
983.4424	0.000053
983.6848	0.000665
983.9271	0.000137
984.1695	0.001340
984.4118	0.000496
984.6542	0.000939
984.8966	0.000897
985.1390	0.001108
985.3814	0.001234
985.6238	0.000834
985.8662	-0.000411
986.1086	0.001910
986.3510	0.000243
986.5934	0.000517
986.8358	0.000728
987.0783	-0.000011
987.3207	0.002121
987.5632	-0.001171
987.8056	-0.000559
988.0481	0.000053
988.2906	0.000728
988.5331	0.000264
988.7756	0.000686
989.0180	-0.000454
989.2605	0.001445
989.5031	-0.000200
989.7456	0.000306
989.9881	0.000749
990.2306	0.000686
990.4732	-0.001129
990.7157	-0.000327
990.9582	-0.000158
991.2008	0.000327
991.4434	-0.000517
991.6859	0.001213
991.9285	0.000897
992.1711	0.000517
992.4137	-0.000475
992.6563	0.000707
992.8989	-0.000433
993.1415	0.000454
993.3841	-0.000179
993.6267	0.000791
993.8694	0.000918
994.1120	0.000517
994.3547	0.000770
994.5973	-0.000559
994.8400	0.001868
995.0826	-0.000053
995.3253	-0.000623
995.5680	0.000348
995.8107	-0.000960
996.0534	0.000960
996.2961	0.000390
996.5388	0.001488
996.7815	-0.000053
997.0242	0.000770
997.2670	-0.000011
997.5097	0.001171
997.7524	-0.000032
997.9952	0.000686
998.2379	-0.000390
998.4807	-0.000243
998.7235	0.000834
998.9662	0.001171
999.2090	-0.000834
999.4518	0.000032
999.6946	-0.000623
999.9374	-0.000411
1000.1802	0.000538
1000.4230	0.000222
1000.6659	-0.000306
1000.9087	0.001002
1001.1515	0.000770
1001.3944	0.000496
1001.6372	0.000749
1001.8801	-0.000243
1002.1230	-0.000264
1002.3658	0.000179
1002.6087	0.001593
1002.8516	-0.000116
1003.0945	-0.000200
1003.3374	0.001424
1003.5803	-0.000454
1003.8232	0.000306
1004.0661	0.000411
1004.3091	0.000116
1004.5520	0.000855
1004.7949	0.000812
1005.0379	0.000960
1005.2808	-0.001762
1005.5238	0.000348
1005.7667	0.000243
1006.0097	0.001171
1006.2527	0.000348
1006.4957	-0.000390
1006.7387	0.000411
1006.9817	0.001403
1007.2247	-0.000580
1007.4677	0.001066
1007.7107	0.000264
1007.9538	0.000053
1008.1968	0.002458
1008.4398	0.001551
1008.6829	-0.000665
1008.9259	0.000770
1009.1690	-0.000285
1009.4121	0.001403
1009.6551	0.000200
1009.8982	0.000032
1010.1413	-0.000264
1010.3844	0.000749
1010.6275	-0.000939
1010.8706	0.001910
1011.1137	0.001171
1011.3568	0.000517
1011.6000	0.000876
1011.8431	0.000116
1012.0863	0.001256
1012.3294	0.000623
1012.5726	-0.001256
1012.8157	0.001192
1013.0589	-0.000580
1013.3021	0.001023
1013.5452	-0.000158
1013.7884	0.000095
1014.0316	0.000644
1014.2748	0.000538
1014.5180	-0.000876
1014.7613	0.000200
1015.0045	0.000179
1015.2477	0.000728
1015.4909	0.000665
1015.7342	0.000390
1015.9774	0.000939
1016.2207	0.000559
1016.4640	0.000770
1016.7072	0.000770
1016.9505	0.000686
1017.1938	0.000222
1017.4371	0.000222
1017.6804	0.001741
1017.9237	-0.001213
1018.1670	0.001403
1018.4103	-0.001361
1018.6536	-0.000053
1018.8969	0.002479
1019.1403	0.001889
1019.3836	-0.000454
1019.6270	0.001234
1019.8703	-0.000538
1020.1137	0.000475
1020.3571	0.000749
1020.6004	0.001403
1020.8438	-0.000623
1021.0872	0.001509
1021.3306	0.001171
1021.5740	0.000601
1021.8174	-0.001213
1022.0608	-0.000538
1022.3042	0.000348
1022.5477	-0.000749
1022.7911	0.000116
1023.0345	0.000559
