# Wavelength (nm)	Intensity (a.u.)
197.7802	0.000028
197.9842	-0.000943
198.1882	-0.000478
198.3922	-0.000352
198.5963	0.001104
198.8003	-0.000267
199.0044	0.001125
199.2085	0.000893
199.4126	0.000535
199.6168	-0.000162
199.8209	0.001358
200.0251	0.000767
200.2292	0.001020
200.4334	-0.000035
200.6376	0.000387
200.8418	0.000577
201.0461	0.000535
201.2503	-0.000478
201.4546	0.000408
201.6589	-0.000647
201.8631	-0.001006
202.0674	0.000450
202.2718	-0.000014
202.4761	0.001125
202.6805	0.000429
202.8848	-0.000436
203.0892	0.001315
203.2936	-0.000162
203.4980	0.001864
203.7024	0.000155
203.9069	-0.000352
204.1113	-0.000436
204.3158	0.000007
204.5203	-0.000098
204.7248	-0.000331
204.9293	-0.000415
205.1338	0.000788
205.3384	-0.001259
205.5430	0.000851
205.7475	0.000978
205.9521	-0.000077
206.1567	-0.000774
206.3614	0.001273
206.5660	0.000999
206.7706	0.000535
206.9753	-0.000816
207.1800	0.000893
207.3847	0.000809
207.5894	-0.000225
207.7941	-0.000499
207.9989	0.002117
208.2036	-0.000457
208.4084	0.001315
208.6132	-0.000521
208.8180	0.001147
209.0228	-0.001111
209.2276	-0.000436
209.4325	-0.000077
209.6373	0.000577
209.8422	-0.000521
210.0471	0.000408
210.2520	0.000788
210.4569	0.001294
210.6618	0.000070
210.8668	0.000535
211.0718	-0.000141
211.2767	-0.000183
211.4817	-0.000521
211.6867	0.000556
211.8918	-0.000077
212.0968	0.000070
212.3018	0.000703
212.5069	-0.000710
212.7120	0.000936
212.9171	0.000661
213.1222	-0.000204
213.3273	-0.001132
213.5325	0.000830
213.7376	0.001125
213.9428	0.000176
214.1480	0.001484
214.3532	0.000091
214.5584	0.000851
214.7636	0.000070
214.9689	0.000302
215.1741	0.000471
215.3794	0.000682
215.5847	-0.001238
215.7900	0.000577
215.9953	0.000429
216.2007	0.000535
216.4060	-0.000943
216.6114	0.000830
216.8168	-0.000056
217.0222	-0.000816
217.2276	0.001822
217.4330	0.001505
217.6384	0.000366
217.8439	-0.000753
218.0494	0.000408
218.2548	-0.000098
218.4603	0.000324
218.6659	0.002202
218.8714	0.000387
219.0769	0.001463
219.2825	0.000767
219.4881	0.001041
219.6936	0.000914
219.8992	0.000492
220.1049	-0.000605
220.3105	-0.000120
220.5161	-0.000521
220.7218	-0.000098
220.9275	-0.000689
221.1332	-0.000710
221.3389	-0.000035
221.5446	-0.000246
221.7503	-0.000964
221.9561	-0.000120
222.1618	0.000070
222.3676	0.000556
222.5734	0.000703
222.7792	-0.000668
222.9850	0.000070
223.1909	0.000049
223.3967	0.000577
223.6026	0.000661
223.8085	-0.001111
224.0144	-0.000415
224.2203	0.000598
224.4262	0.000302
224.6322	-0.000141
224.8381	0.000070
225.0441	-0.001955
225.2501	0.001041
225.4561	0.000450
225.6621	0.000028
225.8681	0.001168
226.0742	-0.000436
226.2802	-0.000014
226.4863	-0.000542
226.6924	-0.000035
226.8985	-0.001048
227.1046	-0.000563
227.3107	0.000366
227.5169	0.000577
227.7230	0.000366
227.9292	-0.000098
228.1354	0.000893
228.3416	0.000577
228.5478	0.000155
228.7541	0.000936
228.9603	0.001505
229.1666	0.000070
229.3729	0.000007
229.5791	-0.000056
229.7855	0.001062
229.9918	0.000260
230.1981	-0.000542
230.4045	0.000640
230.6108	0.000366
230.8172	0.000260
231.0236	0.001020
231.2300	-0.000753
231.4364	0.000134
231.6429	0.000366
231.8493	0.001125
232.0558	0.001062
232.2623	0.000556
232.4688	0.000113
232.6753	-0.000668
232.8818	-0.000436
233.0884	-0.000056
233.2949	-0.000647
233.5015	0.001294
233.7081	-0.001449
233.9147	0.001948
234.1213	-0.000943
234.3279	0.001463
234.5346	0.000661
234.7413	0.000936
234.9479	-0.000521
235.1546	0.000893
235.3613	-0.000225
235.5680	0.000577
235.7748	0.000176
235.9815	0.001484
236.1883	-0.000478
236.3951	0.000661
236.6018	-0.000478
236.8087	0.001210
237.0155	-0.000753
237.2223	0.000408
237.4292	-0.000246
237.6360	0.000957
237.8429	0.000260
238.0498	0.000577
238.2567	0.000197
238.4636	0.000281
238.6706	0.000914
238.8775	0.001231
239.0845	0.000809
239.2915	0.001020
239.4985	-0.000858
239.7055	0.000999
239.9125	-0.000563
240.1195	0.001168
240.3266	0.000155
240.5337	-0.001280
240.7407	0.000872
240.9478	-0.000373
241.1549	-0.000626
241.3621	0.000556
241.5692	0.001083
241.7764	0.000450
241.9835	0.000725
242.1907	0.000366
242.3979	0.000872
242.6051	-0.000014
242.8124	-0.000436
243.0196	0.000260
243.2269	-0.000394
243.4341	0.000851
243.6414	-0.000985
243.8487	-0.000014
244.0560	-0.000098
244.2634	0.000113
244.4707	0.000429
244.6781	0.001463
244.8854	0.000007
245.0928	0.000302
245.3002	-0.000077
245.5076	0.000957
245.7151	0.000957
245.9225	0.000640
246.1300	0.001083
246.3375	0.000999
246.5449	0.002012
246.7524	0.000239
246.9600	0.000640
247.1675	0.001780
247.3750	0.000091
247.5826	-0.000816
247.7902	0.000450
247.9978	-0.000141
248.2054	-0.001132
248.4130	0.000893
248.6206	0.000788
248.8283	0.000429
249.0359	-0.000204
249.2436	0.000957
249.4513	0.000260
249.6590	0.000134
249.8667	0.000324
250.0745	0.001590
250.2822	-0.000077
250.4900	0.001336
250.6978	0.000830
250.9056	0.002244
251.1134	0.000049
251.3212	0.000324
251.5290	-0.000288
251.7369	0.000366
251.9447	0.000239
252.1526	0.000155
252.3605	-0.000499
252.5684	0.001336
252.7763	0.001421
252.9843	0.000239
253.1922	-0.000943
253.4002	-0.000120
253.6082	0.000640
253.8162	-0.000162
254.0242	0.000450
254.2322	0.000281
254.4402	-0.000267
254.6483	0.000302
254.8564	0.000218
255.0644	0.000218
255.2725	0.000809
255.4806	0.000830
255.6888	-0.000879
255.8969	0.000007
256.1051	0.000007
256.3132	-0.000098
256.5214	0.001822
256.7296	0.000725
256.9378	-0.000352
257.1460	0.000957
257.3543	-0.000162
257.5625	0.000239
257.7708	0.000535
257.9791	0.000872
258.1874	0.001358
258.3957	-0.000710
258.6040	0.000725
258.8124	0.001189
259.0207	-0.000985
259.2291	-0.000120
259.4375	0.000028
259.6459	0.000872
259.8543	-0.000204
260.0627	0.000640
260.2711	-0.000647
260.4796	0.000809
260.6881	-0.000689
260.8965	-0.000309
261.1050	-0.001259
261.3135	0.000049
261.5221	0.000028
261.7306	0.000450
261.9392	0.000028
262.1477	0.001801
262.3563	0.000682
262.5649	0.000957
262.7735	0.000260
262.9822	0.000070
263.1908	-0.001154
263.3995	-0.000204
263.6081	0.000260
263.8168	0.000703
264.0255	-0.000225
264.2342	0.000577
264.4429	-0.000098
264.6517	-0.000141
264.8604	0.001252
265.0692	0.000155
265.2780	-0.000816
265.4868	0.000429
265.6956	0.001632
265.9044	0.001400
266.1133	-0.000352
266.3221	0.000746
266.5310	-0.000098
266.7399	0.000260
266.9488	0.000155
267.1577	-0.000352
267.3666	-0.000267
267.5755	0.000155
267.7845	0.000387
267.9935	0.000239
268.2024	0.000577
268.4114	0.000535
268.6205	-0.000732
268.8295	0.000324
269.0385	0.000113
269.2476	0.000577
269.4566	-0.000077
269.6657	0.001906
269.8748	-0.000668
270.0839	-0.000795
270.2931	0.001421
270.5022	-0.000225
270.7114	-0.000457
270.9205	0.000577
271.1297	0.000176
271.3389	0.000070
271.5481	0.000661
271.7573	0.000492
271.9666	0.000028
272.1758	0.001674
272.3851	0.000260
272.5944	0.000302
272.8037	-0.000309
273.0130	-0.000035
273.2223	0.000682
273.4316	0.001125
273.6410	0.000556
273.8504	0.000598
274.0597	-0.000225
274.2691	0.000492
274.4785	0.000429
274.6880	0.000260
274.8974	-0.000837
275.1069	0.000345
275.3163	-0.001934
275.5258	0.001104
275.7353	0.002603
275.9448	0.000703
276.1543	0.000324
276.3639	0.000492
276.5734	-0.000267
276.7830	0.001358
276.9926	-0.000499
277.2022	0.001737
277.4118	-0.000035
277.6214	0.001273
277.8310	0.000134
278.0407	0.001526
278.2503	-0.000478
278.4600	-0.000816
278.6697	0.000070
278.8794	-0.000352
279.0891	-0.000647
279.2989	0.001083
279.5086	-0.000098
279.7184	0.000851
279.9281	0.000598
280.1379	0.000113
280.3477	0.000661
280.5576	0.000703
280.7674	-0.000668
280.9772	0.000260
281.1871	0.000113
281.3970	0.000155
281.6069	-0.000542
281.8168	0.000302
282.0267	-0.001006
282.2366	0.000872
282.4466	0.001231
282.6565	-0.000584
282.8665	0.000366
283.0765	0.000302
283.2865	0.002181
283.4965	-0.000162
283.7065	0.000767
283.9166	0.001210
284.1266	0.000155
284.3367	0.001801
284.5468	0.001948
284.7569	0.001147
284.9670	0.001379
285.1771	0.000893
285.3873	0.000619
285.5974	0.001062
285.8076	-0.000352
286.0178	0.001189
286.2280	0.000176
286.4382	0.000767
286.6484	0.000914
286.8587	-0.000542
287.0689	-0.000035
287.2792	-0.000394
287.4895	-0.000668
287.6998	0.000830
287.9101	-0.000457
288.1204	0.002117
288.3308	-0.000710
288.5411	0.001379
288.7515	0.000345
288.9619	0.002159
289.1723	-0.000668
289.3827	0.000830
289.5931	-0.000309
289.8035	0.000049
290.0140	0.000492
290.2245	0.000408
290.4349	0.000070
290.6454	-0.000837
290.8559	0.001569
291.0665	0.000281
291.2770	0.000957
291.4875	0.001759
291.6981	0.000535
291.9087	0.001442
292.1193	0.000324
292.3299	0.002012
292.5405	0.000218
292.7511	0.000471
292.9618	0.000260
293.1724	0.000324
293.3831	0.001125
293.5938	-0.000457
293.8045	0.001041
294.0152	0.001547
294.2260	0.000366
294.4367	0.000513
294.6475	0.000640
294.8582	0.000387
295.0690	0.000682
295.2798	-0.000077
295.4906	0.001822
295.7015	0.002117
295.9123	-0.000120
296.1232	-0.000394
296.3340	-0.000246
296.5449	-0.000098
296.7558	0.000450
296.9667	0.000682
297.1777	0.001801
297.3886	0.001189
297.5995	-0.000478
297.8105	-0.000309
298.0215	-0.001934
298.2325	0.000197
298.4435	0.000366
298.6545	0.000239
298.8656	0.000155
299.0766	0.000429
299.2877	-0.000225
299.4988	0.001463
299.7099	0.000851
299.9210	-0.000309
300.1321	0.000767
300.3432	0.001759
300.5544	-0.001533
300.7655	-0.000331
300.9767	-0.000120
301.1879	0.000492
301.3991	-0.000056
301.6103	0.000682
301.8215	0.000028
302.0328	0.001315
302.2441	0.001421
302.4553	0.001653
302.6666	-0.000141
302.8779	-0.000014
303.0892	0.000070
303.3006	0.001864
303.5119	0.000218
303.7233	0.000577
303.9346	0.000091
304.1460	-0.000689
304.3574	-0.001196
304.5688	-0.000795
304.7803	0.000535
304.9917	0.001125
305.2031	-0.001175
305.4146	0.000218
305.6261	-0.000352
305.8376	0.000999
306.0491	-0.000098
306.2606	0.000302
306.4722	-0.000225
306.6837	0.000345
306.8953	-0.000225
307.1069	-0.000415
307.3184	-0.000246
307.5301	0.001041
307.7417	0.000936
307.9533	0.001147
308.1650	0.000155
308.3766	-0.000098
308.5883	-0.000141
308.8000	0.001632
309.0117	0.000914
309.2234	0.000218
309.4351	-0.001006
309.6469	0.000239
309.8586	0.000577
310.0704	0.000767
310.2822	0.001484
310.4940	0.000535
310.7058	0.000302
310.9176	0.002096
311.1295	0.000281
311.3413	0.000028
311.5532	0.000830
311.7651	0.001083
311.9770	-0.000331
312.1889	0.000999
312.4008	-0.000584
312.6127	-0.000584
312.8247	0.000070
313.0366	-0.000774
313.2486	0.000830
313.4606	-0.000056
313.6726	0.001547
313.8846	0.000197
314.0967	-0.001787
314.3087	0.000640
314.5208	0.000936
314.7328	0.000788
314.9449	-0.000120
315.1570	-0.000563
315.3692	0.001505
315.5813	0.000408
315.7934	0.001463
316.0056	0.001505
316.2177	-0.000225
316.4299	-0.000499
316.6421	-0.001196
316.8543	0.000577
317.0666	-0.000035
317.2788	0.000661
317.4911	-0.000267
317.7033	0.000682
317.9156	-0.000352
318.1279	-0.000246
318.3402	-0.000689
318.5525	-0.000204
318.7649	0.001210
318.9772	0.001695
319.1896	-0.000499
319.4019	0.000556
319.6143	-0.000415
319.8267	-0.000352
320.0392	0.000598
320.2516	0.000070
320.4640	-0.000267
320.6765	0.001822
320.8890	0.000324
321.1014	0.000851
321.3139	0.000260
321.5265	0.000999
321.7390	-0.000014
321.9515	0.000113
322.1641	0.000028
322.3766	0.001590
322.5892	-0.000098
322.8018	-0.000415
323.0144	0.001147
323.2270	0.001252
323.4397	0.000049
323.6523	0.000345
323.8650	-0.000710
324.0777	0.000450
324.2904	-0.000542
324.5031	0.001864
324.7158	-0.000521
324.9285	-0.000521
325.1412	0.000767
325.3540	0.000725
325.5668	0.000302
325.7796	0.000725
325.9924	-0.000521
326.2052	0.000914
326.4180	-0.000415
326.6308	0.001273
326.8437	-0.000879
327.0566	0.000957
327.2694	0.000218
327.4823	0.002244
327.6952	0.001569
327.9082	0.000746
328.1211	0.000725
328.3340	0.000239
328.5470	-0.000056
328.7600	0.000535
328.9730	-0.000309
329.1860	0.001716
329.3990	0.000239
329.6120	0.001294
329.8251	0.001189
330.0381	0.000577
330.2512	0.000978
330.4643	-0.000120
330.6774	0.001505
330.8905	-0.001027
331.1036	0.000872
331.3167	0.000070
331.5299	0.000113
331.7431	-0.000605
331.9562	0.000070
332.1694	0.000450
332.3826	-0.000014
332.5959	0.001336
332.8091	-0.000457
333.0223	-0.000309
333.2356	0.000556
333.4489	0.000028
333.6622	0.000345
333.8755	0.000936
334.0888	-0.000921
334.3021	-0.000774
334.5154	-0.000014
334.7288	-0.000542
334.9422	0.000577
335.1555	-0.000309
335.3689	-0.000014
335.5823	0.000598
335.7958	0.000999
336.0092	0.001104
336.2227	-0.000288
336.4361	0.000936
336.6496	0.000492
336.8631	0.001231
337.0766	-0.000668
337.2901	0.000914
337.5036	0.001484
337.7172	0.000113
337.9307	-0.000056
338.1443	0.000239
338.3579	0.000535
338.5715	0.001421
338.7851	0.000619
338.9987	0.000661
339.2124	0.000535
339.4260	0.001526
339.6397	-0.000162
339.8533	0.000260
340.0670	0.001210
340.2807	-0.000626
340.4945	-0.000943
340.7082	0.000113
340.9219	-0.000584
341.1357	0.000577
341.3495	-0.000035
341.5633	0.001231
341.7771	0.000492
341.9909	-0.000077
342.2047	-0.000373
342.4185	0.001104
342.6324	0.000281
342.8463	0.001442
343.0601	-0.000816
343.2740	-0.000542
343.4879	-0.000204
343.7019	0.001885
343.9158	-0.000056
344.1297	0.001421
344.3437	-0.000732
344.5577	0.000725
344.7717	0.000830
344.9857	0.002286
345.1997	-0.000141
345.4137	0.001041
345.6277	0.000028
345.8418	0.001822
346.0559	-0.000204
346.2699	0.000028
346.4840	-0.000098
346.6981	0.000239
346.9123	-0.001301
347.1264	0.000682
347.3406	-0.000225
347.5547	-0.000162
347.7689	-0.000837
347.9831	0.000577
348.1973	0.000577
348.4115	-0.000647
348.6257	-0.000521
348.8400	0.001505
349.0542	0.000661
349.2685	0.000450
349.4828	0.000598
349.6971	0.000450
349.9114	-0.001386
350.1257	0.000260
350.3400	0.001737
350.5544	0.001421
350.7687	-0.000499
350.9831	0.000450
351.1975	0.000767
351.4119	0.000957
351.6263	-0.000056
351.8407	0.001147
352.0552	0.001104
352.2696	0.000429
352.4841	-0.000542
352.6986	0.000598
352.9131	0.000197
353.1276	0.002771
353.3421	0.000450
353.5566	0.001695
353.7712	0.000176
353.9858	0.001210
354.2003	0.000725
354.4149	0.000450
354.6295	0.000492
354.8441	-0.000795
355.0588	-0.000267
355.2734	-0.000098
355.4881	0.000450
355.7027	0.001927
355.9174	0.001379
356.1321	0.000492
356.3468	-0.000309
356.5615	0.000830
356.7763	-0.000267
356.9910	-0.000141
357.2058	0.000281
357.4206	0.000914
357.6353	0.001210
357.8501	-0.000141
358.0650	-0.000014
358.2798	0.001189
358.4946	0.000535
358.7095	0.000492
358.9243	0.000471
359.1392	-0.000457
359.3541	-0.000077
359.5690	0.000218
359.7839	0.001379
359.9989	0.000767
360.2138	-0.000584
360.4288	0.000429
360.6438	0.000450
360.8587	0.000176
361.0737	0.001041
361.2888	0.001104
361.5038	0.000260
361.7188	0.001379
361.9339	-0.000605
362.1489	0.000914
362.3640	-0.000478
362.5791	0.000999
362.7942	0.000893
363.0093	0.000598
363.2245	0.000408
363.4396	-0.000415
363.6548	0.001083
363.8699	0.000767
364.0851	0.001083
364.3003	0.000703
364.5155	-0.000373
364.7308	0.000408
364.9460	-0.000478
365.1612	0.000556
365.3765	-0.000267
365.5918	0.000070
365.8071	0.001125
366.0224	0.001062
366.2377	-0.000014
366.4530	-0.000014
366.6684	0.000809
366.8837	-0.000309
367.0991	0.000408
367.3145	0.000725
367.5299	-0.000626
367.7453	0.000345
367.9607	-0.000605
368.1761	0.000197
368.3916	0.000387
368.6070	0.001484
368.8225	0.000703
369.0380	0.000218
369.2535	-0.000689
369.4690	0.001442
369.6845	0.001358
369.9001	0.000049
370.1156	0.001358
370.3312	-0.000077
370.5468	0.000260
370.7624	0.001400
370.9780	-0.001365
371.1936	0.000408
371.4092	-0.000246
371.6249	0.000619
371.8405	-0.000689
372.0562	0.000260
372.2719	0.001189
372.4876	0.001294
372.7033	0.001315
372.9190	0.000830
373.1348	0.001906
373.3505	0.002898
373.5663	0.002202
373.7820	0.001041
373.9978	0.002349
374.2136	0.001104
374.4294	0.001885
374.6453	0.002202
374.8611	0.001632
375.0770	0.002054
375.2928	0.003130
375.5087	0.002582
375.7246	0.001885
375.9405	0.002096
376.1564	0.002096
376.3724	0.001780
376.5883	0.003489
376.8043	0.001569
377.0203	0.003046
377.2362	0.001463
377.4522	0.002054
377.6682	0.002729
377.8843	0.003299
378.1003	0.003404
378.3164	0.003616
378.5324	0.004101
378.7485	0.003827
378.9646	0.004312
379.1807	0.004016
379.3968	0.005072
379.6129	0.004375
379.8291	0.006211
380.0452	0.005494
380.2614	0.004671
380.4776	0.006274
380.6938	0.006528
380.9100	0.005283
381.1262	0.006380
381.3424	0.006570
381.5587	0.007161
381.7749	0.008448
381.9912	0.007625
382.2075	0.006549
382.4238	0.008216
382.6401	0.009461
382.8564	0.008975
383.0728	0.007393
383.2891	0.009165
383.5055	0.009820
383.7219	0.008933
383.9382	0.009123
384.1546	0.008258
384.3711	0.009355
384.5875	0.009862
384.8039	0.011719
385.0204	0.010685
385.2368	0.012099
385.4533	0.011972
385.6698	0.010347
385.8863	0.011634
386.1028	0.011065
386.3194	0.012626
386.5359	0.014905
386.7525	0.014842
386.9690	0.013133
387.1856	0.015686
387.4022	0.013829
387.6188	0.014082
387.8355	0.014779
388.0521	0.013871
388.2687	0.013323
388.4854	0.015053
388.7021	0.017817
388.9188	0.017142
389.1355	0.014800
389.3522	0.017142
389.5689	0.015306
389.7856	0.016826
390.0024	0.015475
390.2192	0.016446
390.4359	0.015981
390.6527	0.017817
390.8695	0.018303
391.0863	0.020371
391.3032	0.018049
391.5200	0.019569
391.7369	0.018556
391.9537	0.020497
392.1706	0.020054
392.3875	0.021299
392.6044	0.021827
392.8213	0.021806
393.0383	0.024064
393.2552	0.022903
393.4722	0.021869
393.6891	0.021278
393.9061	0.021700
394.1231	0.022080
394.3401	0.021194
394.5572	0.024064
394.7742	0.023367
394.9912	0.023093
395.2083	0.021848
395.4254	0.023367
395.6425	0.022924
395.8596	0.025034
396.0767	0.021700
396.2938	0.022375
396.5109	0.023388
396.7281	0.023620
396.9453	0.025266
397.1624	0.024148
397.3796	0.025583
397.5968	0.026638
397.8140	0.027651
398.0313	0.027968
398.2485	0.027862
398.4658	0.030690
398.6830	0.031956
398.9003	0.031787
399.1176	0.028516
399.3349	0.032272
399.5522	0.027567
399.7696	0.027735
399.9869	0.028769
400.2043	0.027714
400.4216	0.027334
400.6390	0.029191
400.8564	0.029635
401.0738	0.027271
401.2912	0.028411
401.5087	0.030078
401.7261	0.029044
401.9436	0.028727
402.1610	0.028622
402.3785	0.028833
402.5960	0.027356
402.8135	0.029846
403.0310	0.028010
403.2486	0.028664
403.4661	0.028537
403.6837	0.028833
403.9013	0.031112
404.1189	0.031724
404.3365	0.029508
404.5541	0.030183
404.7717	0.029993
404.9893	0.031175
405.2070	0.031808
405.4246	0.033792
405.6423	0.032779
405.8600	0.031302
406.0777	0.031703
406.2954	0.031914
406.5131	0.030901
406.7309	0.030289
406.9486	0.030605
407.1664	0.030774
407.3842	0.030310
407.6020	0.029656
407.8198	0.029782
408.0376	0.029023
408.2554	0.030901
408.4733	0.030563
408.6911	0.032568
408.9090	0.030711
409.1269	0.032969
409.3448	0.029466
409.5627	0.030943
409.7806	0.031534
409.9985	0.032610
410.2165	0.031344
410.4344	0.032167
410.6524	0.030057
410.8704	0.030711
411.0884	0.029445
411.3064	0.031470
411.5244	0.030816
411.7424	0.031048
411.9605	0.030901
412.1785	0.031006
412.3966	0.031555
412.6147	0.032104
412.8328	0.033370
413.0509	0.033159
413.2690	0.032188
413.4871	0.035522
413.7053	0.034108
413.9234	0.032631
414.1416	0.033180
414.3598	0.032378
414.5780	0.031850
414.7962	0.031492
415.0144	0.030753
415.2326	0.032779
415.4509	0.033159
415.6692	0.029782
415.8874	0.033475
416.1057	0.030479
416.3240	0.035311
416.5423	0.034298
416.7606	0.032884
416.9790	0.031808
417.1973	0.033686
417.4157	0.033707
417.6341	0.033623
417.8524	0.033327
418.0708	0.033116
418.2893	0.032610
418.5077	0.033180
418.7261	0.033496
418.9446	0.033560
419.1630	0.031977
419.3815	0.032631
419.6000	0.034361
419.8185	0.035079
420.0370	0.033581
420.2555	0.037379
420.4741	0.036050
420.6926	0.036451
420.9112	0.037949
421.1298	0.037928
421.3483	0.039321
421.5669	0.040966
421.7856	0.040460
422.0042	0.038118
422.2228	0.039996
422.4415	0.041473
422.6601	0.039954
422.8788	0.039299
423.0975	0.038434
423.3162	0.038603
423.5349	0.040059
423.7536	0.037653
423.9724	0.039046
424.1911	0.036999
424.4099	0.036303
424.6287	0.037886
424.8475	0.034889
425.0663	0.037801
425.2851	0.035881
425.5039	0.036451
425.7228	0.035227
425.9416	0.034530
426.1605	0.032399
426.3793	0.033306
426.5982	0.035016
426.8171	0.035417
427.0361	0.034024
427.2550	0.037105
427.4739	0.038286
427.6929	0.036155
427.9118	0.036240
428.1308	0.034931
428.3498	0.035712
428.5688	0.036725
428.7878	0.035438
429.0068	0.036345
429.2259	0.037801
429.4449	0.038856
429.6640	0.039743
429.8831	0.040312
430.1022	0.043246
430.3213	0.043668
430.5404	0.041199
430.7595	0.041937
430.9787	0.040966
431.1978	0.041684
431.4170	0.038392
431.6362	0.037147
431.8553	0.036324
432.0745	0.031935
432.2938	0.035628
432.5130	0.032526
432.7322	0.036556
432.9515	0.033243
433.1707	0.034699
433.3900	0.034488
433.6093	0.040017
433.8286	0.039911
434.0479	0.041051
434.2673	0.039595
434.4866	0.037822
434.7059	0.035818
434.9253	0.035227
435.1447	0.036746
435.3641	0.037527
435.5835	0.036556
435.8029	0.035712
436.0223	0.035775
436.2418	0.038012
436.4612	0.039869
436.6807	0.041536
436.9001	0.040038
437.1196	0.038286
437.3391	0.036873
437.5586	0.037886
437.7782	0.039764
437.9977	0.038751
438.2173	0.038898
438.4368	0.039215
438.6564	0.041156
438.8760	0.040840
439.0956	0.039954
439.3152	0.039088
439.5348	0.039363
439.7545	0.038519
439.9741	0.038434
440.1938	0.038202
440.4135	0.035923
440.6331	0.039004
440.8528	0.038202
441.0725	0.042254
441.2923	0.045609
441.5120	0.046981
441.7318	0.046770
441.9515	0.046791
442.1713	0.045250
442.3911	0.047508
442.6109	0.045039
442.8307	0.043963
443.0505	0.043013
443.2703	0.043879
443.4902	0.045757
443.7101	0.044343
443.9299	0.047656
444.1498	0.048394
444.3697	0.047255
444.5896	0.044301
444.8095	0.045124
445.0295	0.047107
445.2494	0.046221
445.4694	0.044533
445.6894	0.044934
445.9093	0.042887
446.1293	0.043879
446.3493	0.044216
446.5694	0.047318
446.7894	0.045039
447.0094	0.043478
447.2295	0.044934
447.4496	0.044638
447.6696	0.043794
447.8897	0.042549
448.1098	0.041009
448.3300	0.041557
448.5501	0.041916
448.7702	0.041156
448.9904	0.040587
449.2106	0.041515
449.4307	0.041578
449.6509	0.041895
449.8711	0.041663
450.0914	0.039827
450.3116	0.043351
450.5318	0.040924
450.7521	0.040270
450.9724	0.038835
451.1926	0.039658
451.4129	0.039173
451.6332	0.037590
451.8535	0.039046
452.0739	0.037527
452.2942	0.038730
452.5146	0.037274
452.7349	0.039236
452.9553	0.039447
453.1757	0.036725
453.3961	0.037611
453.6165	0.035121
453.8369	0.037189
454.0574	0.037928
454.2778	0.037379
454.4983	0.034361
454.7188	0.034868
454.9393	0.034340
455.1597	0.037168
455.3803	0.038012
455.6008	0.037780
455.8213	0.037485
456.0419	0.036999
456.2624	0.034361
456.4830	0.035037
456.7036	0.035079
456.9242	0.035860
457.1448	0.035037
457.3654	0.036303
457.5860	0.037464
457.8067	0.037231
458.0274	0.037231
458.2480	0.035733
458.4687	0.037717
458.6894	0.037020
458.9101	0.037316
459.1308	0.038265
459.3516	0.038160
459.5723	0.037464
459.7931	0.037801
460.0138	0.036598
460.2346	0.037041
460.4554	0.035374
460.6762	0.035923
460.8970	0.036746
461.1178	0.036282
461.3387	0.035691
461.5595	0.036197
461.7804	0.034973
462.0013	0.030985
462.2222	0.033180
462.4431	0.030922
462.6640	0.030690
462.8849	0.031555
463.1059	0.031344
463.3268	0.032441
463.5478	0.034762
463.7687	0.035121
463.9897	0.034636
464.2107	0.035184
464.4317	0.036071
464.6528	0.036683
464.8738	0.036556
465.0948	0.038687
465.3159	0.036957
465.5370	0.036704
465.7581	0.038075
465.9792	0.036999
466.2003	0.036556
466.4214	0.035353
466.6425	0.033011
466.8637	0.030711
467.0848	0.032462
467.3060	0.032357
467.5272	0.032863
467.7484	0.031893
467.9696	0.030859
468.1908	0.032125
468.4120	0.031344
468.6333	0.030225
468.8545	0.029360
469.0758	0.028474
469.2970	0.027377
469.5183	0.027081
469.7396	0.024844
469.9610	0.025731
470.1823	0.025731
470.4036	0.025984
470.6250	0.026111
470.8463	0.025330
471.0677	0.024760
471.2891	0.025688
471.5105	0.022650
471.7319	0.024865
471.9533	0.023241
472.1748	0.023599
472.3962	0.026047
472.6177	0.025203
472.8391	0.025646
473.0606	0.027630
473.2821	0.026511
473.5036	0.027334
473.7251	0.026174
473.9467	0.026807
474.1682	0.025414
474.3898	0.026891
474.6113	0.026343
474.8329	0.024000
475.0545	0.024718
475.2761	0.027820
475.4977	0.028685
475.7193	0.028474
475.9410	0.025499
476.1626	0.026596
476.3843	0.027377
476.6060	0.024570
476.8277	0.024929
477.0494	0.026364
477.2711	0.024190
477.4928	0.023789
477.7145	0.024802
477.9363	0.026469
478.1580	0.025266
478.3798	0.024633
478.6016	0.025752
478.8234	0.024676
479.0452	0.025245
479.2670	0.024887
479.4888	0.025435
479.7107	0.024929
479.9325	0.024823
480.1544	0.024169
480.3763	0.026132
480.5982	0.027419
480.8201	0.025899
481.0420	0.026490
481.2639	0.024465
481.4859	0.025583
481.7078	0.024739
481.9298	0.025034
482.1517	0.025625
482.3737	0.024865
482.5957	0.024549
482.8177	0.023494
483.0398	0.023431
483.2618	0.023684
483.4838	0.024317
483.7059	0.024211
483.9280	0.023473
484.1501	0.023895
484.3721	0.024296
484.5943	0.025667
484.8164	0.027334
485.0385	0.027567
485.2606	0.023747
485.4828	0.036366
485.7050	0.059874
485.9271	0.079584
486.1493	0.083044
486.3715	0.071712
486.5937	0.056266
486.8160	0.048774
487.0382	0.045820
487.2605	0.041009
487.4827	0.032357
487.7050	0.029445
487.9273	0.025351
488.1496	0.024254
488.3719	0.023494
488.5942	0.022164
488.8165	0.021468
489.0389	0.022249
489.2612	0.021679
489.4836	0.022185
489.7060	0.021130
489.9284	0.020540
490.1508	0.019928
490.3732	0.021742
490.5956	0.020835
490.8180	0.019906
491.0405	0.021637
491.2630	0.022375
491.4854	0.020962
491.7079	0.019020
491.9304	0.020181
492.1529	0.018809
492.3755	0.020307
492.5980	0.017712
492.8205	0.018450
493.0431	0.019970
493.2657	0.018978
493.4882	0.018429
493.7108	0.019379
493.9334	0.019674
494.1561	0.018155
494.3787	0.020181
494.6013	0.018640
494.8240	0.018767
495.0466	0.018408
495.2693	0.018683
495.4920	0.016931
495.7147	0.016425
495.9374	0.018978
496.1601	0.017817
496.3829	0.020603
496.6056	0.021004
496.8284	0.020181
497.0511	0.019653
497.2739	0.018197
497.4967	0.018218
497.7195	0.018598
497.9423	0.016783
498.1652	0.016108
498.3880	0.018936
498.6109	0.016045
498.8337	0.018197
499.0566	0.017564
499.2795	0.018471
499.5024	0.016003
499.7253	0.018429
499.9482	0.018408
500.1712	0.017205
500.3941	0.017754
500.6171	0.015686
500.8400	0.015032
501.0630	0.015475
501.2860	0.016551
501.5090	0.016889
501.7320	0.017311
501.9551	0.017522
502.1781	0.017374
502.4012	0.018113
502.6242	0.017332
502.8473	0.016889
503.0704	0.016403
503.2935	0.017037
503.5166	0.016741
503.7397	0.017416
503.9628	0.017585
504.1860	0.017860
504.4092	0.014842
504.6323	0.016720
504.8555	0.016129
505.0787	0.015116
505.3019	0.016530
505.5251	0.017226
505.7483	0.015095
505.9716	0.016256
506.1948	0.014188
506.4181	0.015285
506.6414	0.015623
506.8647	0.014926
507.0880	0.012985
507.3113	0.014546
507.5346	0.013154
507.7579	0.015876
507.9813	0.015580
508.2046	0.015201
508.4280	0.014926
508.6514	0.014568
508.8748	0.013027
509.0982	0.014335
509.3216	0.014167
509.5450	0.015749
509.7685	0.014124
509.9919	0.015116
510.2154	0.013344
510.4388	0.013850
510.6623	0.013787
510.8858	0.014272
511.1093	0.013871
511.3329	0.012964
511.5564	0.015475
511.7799	0.014610
512.0035	0.014673
512.2270	0.014293
512.4506	0.012436
512.6742	0.013365
512.8978	0.012267
513.1214	0.013048
513.3451	0.013702
513.5687	0.012816
513.7923	0.012711
514.0160	0.014504
514.2397	0.011866
514.4634	0.012689
514.6871	0.012436
514.9108	0.013154
515.1345	0.013048
515.3582	0.011508
515.5819	0.011761
515.8057	0.011128
516.0295	0.011550
516.2532	0.013386
516.4770	0.011466
516.7008	0.012605
516.9246	0.011360
517.1485	0.013323
517.3723	0.011212
517.5961	0.012310
517.8200	0.010790
518.0439	0.011107
518.2677	0.010811
518.4916	0.013280
518.7155	0.011339
518.9395	0.012689
519.1634	0.011655
519.3873	0.011930
519.6113	0.012373
519.8352	0.011044
520.0592	0.011529
520.2832	0.011170
520.5072	0.011381
520.7312	0.011297
520.9552	0.011339
521.1792	0.011149
521.4033	0.012183
521.6273	0.011149
521.8514	0.010495
522.0755	0.011845
522.2996	0.011065
522.5237	0.010326
522.7478	0.012162
522.9719	0.012141
523.1960	0.011318
523.4202	0.012689
523.6443	0.011381
523.8685	0.011381
524.0927	0.012035
524.3169	0.009925
524.5411	0.013491
524.7653	0.011276
524.9895	0.013428
525.2138	0.013365
525.4380	0.011466
525.6623	0.010896
525.8865	0.012099
526.1108	0.013069
526.3351	0.012858
526.5594	0.010790
526.7837	0.011909
527.0081	0.012858
527.2324	0.012267
527.4568	0.011845
527.6811	0.012436
527.9055	0.012246
528.1299	0.012901
528.3543	0.011466
528.5787	0.014779
528.8031	0.014146
529.0276	0.013745
529.2520	0.012837
529.4765	0.012795
529.7009	0.013133
529.9254	0.013534
530.1499	0.012647
530.3744	0.013259
530.5989	0.012225
530.8234	0.015306
531.0480	0.013006
531.2725	0.012521
531.4971	0.013491
531.7217	0.014019
531.9462	0.013639
532.1708	0.013323
532.3954	0.013175
532.6200	0.013006
532.8447	0.013871
533.0693	0.016488
533.2940	0.016530
533.5186	0.016741
533.7433	0.015517
533.9680	0.015391
534.1927	0.017226
534.4174	0.017226
534.6421	0.017986
534.8668	0.018049
535.0916	0.018577
535.3163	0.017121
535.5411	0.016889
535.7659	0.016235
535.9907	0.017775
536.2155	0.017395
536.4403	0.014652
536.6651	0.015074
536.8899	0.016509
537.1148	0.016087
537.3396	0.015834
537.5645	0.015939
537.7894	0.016847
538.0143	0.019273
538.2392	0.017205
538.4641	0.019906
538.6890	0.019041
538.9139	0.019906
539.1389	0.019632
539.3638	0.020540
539.5888	0.020054
539.8138	0.021637
540.0388	0.019400
540.2638	0.018493
540.4888	0.020793
540.7138	0.019210
540.9389	0.020476
541.1639	0.019759
541.3890	0.020814
541.6140	0.021278
541.8391	0.021405
542.0642	0.021785
542.2893	0.023072
542.5144	0.023705
542.7396	0.022544
542.9647	0.023705
543.1899	0.023346
543.4150	0.021700
543.6402	0.022882
543.8654	0.022945
544.0906	0.024232
544.3158	0.026575
544.5410	0.023663
544.7662	0.024507
544.9915	0.024570
545.2167	0.025119
545.4420	0.024802
545.6673	0.024106
545.8926	0.023747
546.1179	0.024718
546.3432	0.023262
546.5685	0.024190
546.7938	0.024992
547.0192	0.024401
547.2445	0.024654
547.4699	0.026849
547.6953	0.027102
547.9206	0.029065
548.1460	0.030162
548.3715	0.031154
548.5969	0.030647
548.8223	0.026765
549.0478	0.029381
549.2732	0.027545
549.4987	0.026195
549.7242	0.029023
549.9496	0.028284
550.1751	0.029571
550.4007	0.030183
550.6262	0.028390
550.8517	0.027018
551.0773	0.026912
551.3028	0.025372
551.5284	0.025351
551.7540	0.026870
551.9796	0.028115
552.2052	0.032673
552.4308	0.033813
552.6564	0.029487
552.8820	0.032547
553.1077	0.032019
553.3333	0.031006
553.5590	0.029677
553.7847	0.032568
554.0104	0.033306
554.2361	0.034699
554.4618	0.030880
554.6875	0.029698
554.9132	0.028769
555.1390	0.031428
555.3648	0.032315
555.5905	0.034087
555.8163	0.031871
556.0421	0.036641
556.2679	0.035712
556.4937	0.034952
556.7195	0.034657
556.9454	0.032716
557.1712	0.031154
557.3971	0.032610
557.6230	0.033243
557.8488	0.035459
558.0747	0.033538
558.3006	0.032462
558.5266	0.033644
558.7525	0.032315
558.9784	0.031302
559.2044	0.031956
559.4303	0.031660
559.6563	0.033327
559.8823	0.032336
560.1083	0.036662
560.3343	0.036514
560.5603	0.037759
560.7863	0.041768
561.0124	0.043140
561.2384	0.042127
561.4645	0.042043
561.6905	0.042570
561.9166	0.042085
562.1427	0.042275
562.3688	0.041747
562.5949	0.039447
562.8211	0.041811
563.0472	0.039574
563.2733	0.041241
563.4995	0.040038
563.7257	0.043182
563.9519	0.043731
564.1781	0.046073
564.4043	0.045926
564.6305	0.045525
564.8567	0.045904
565.0829	0.046601
565.3092	0.048352
565.5355	0.046516
565.7617	0.046622
565.9880	0.048437
566.2143	0.046643
566.4406	0.047951
566.6669	0.048057
566.8932	0.048458
567.1196	0.053417
567.3459	0.060465
567.5723	0.063757
567.7987	0.063799
568.0250	0.063715
568.2514	0.066542
568.4778	0.067661
568.7043	0.073591
568.9307	0.079689
569.1571	0.082242
569.3836	0.084775
569.6100	0.100264
569.8365	0.107502
570.0630	0.114803
570.2895	0.115394
570.5160	0.116090
570.7425	0.117146
570.9690	0.126473
571.1956	0.130693
571.4221	0.138522
571.6487	0.141603
571.8752	0.147575
572.1018	0.152028
572.3284	0.147702
572.5550	0.140717
572.7816	0.131115
573.0082	0.125924
573.2349	0.137762
573.4615	0.152534
573.6882	0.161692
573.9149	0.163549
574.1415	0.170534
574.3682	0.179038
574.5949	0.183407
574.8216	0.186656
575.0484	0.185833
575.2751	0.187944
575.5018	0.187711
575.7286	0.177329
575.9554	0.171336
576.1821	0.167707
576.4089	0.174797
576.6357	0.178215
576.8626	0.191658
577.0894	0.191953
577.3162	0.200858
577.5431	0.204256
577.7699	0.226645
577.9968	0.259649
578.2237	0.252875
578.4505	0.235192
578.6774	0.227426
578.9044	0.211726
579.1313	0.200183
579.3582	0.202905
579.5851	0.207062
579.8121	0.212908
580.0391	0.216875
580.2660	0.219850
580.4930	0.214300
580.7200	0.209025
580.9470	0.213731
581.1741	0.249942
581.4011	0.302655
581.6281	0.328252
581.8552	0.335807
582.0822	0.325678
582.3093	0.312911
582.5364	0.289931
582.7635	0.262413
582.9906	0.238462
583.2177	0.228629
583.4449	0.213731
583.6720	0.195794
583.8991	0.192945
584.1263	0.199128
584.3535	0.197271
584.5807	0.203517
584.8079	0.214469
585.0351	0.227975
585.2623	0.239539
585.4895	0.243189
585.7167	0.235846
585.9440	0.227616
586.1713	0.216600
586.3985	0.202504
586.6258	0.201913
586.8531	0.203201
587.0804	0.217044
587.3077	0.226561
587.5350	0.230718
587.7624	0.228776
587.9897	0.219323
588.2171	0.203348
588.4445	0.203517
588.6718	0.198368
588.8992	0.190286
589.1266	0.176865
589.3540	0.165596
589.5815	0.164309
589.8089	0.162283
590.0363	0.161756
590.2638	0.155678
590.4913	0.148482
590.7187	0.144663
590.9462	0.137425
591.1737	0.130313
591.4012	0.128351
591.6288	0.128245
591.8563	0.132234
592.0838	0.131748
592.3114	0.132023
592.5389	0.153378
592.7665	0.182963
592.9941	0.200478
593.2217	0.199740
593.4493	0.202989
593.6769	0.202019
593.9046	0.191425
594.1322	0.182816
594.3598	0.170007
594.5875	0.169606
594.8152	0.180262
595.0429	0.193050
595.2705	0.194992
595.4983	0.193472
595.7260	0.181972
595.9537	0.168635
596.1814	0.159667
596.4092	0.147301
596.6369	0.141455
596.8647	0.137003
597.0925	0.144642
597.3203	0.146182
597.5481	0.147069
597.7759	0.147090
598.0037	0.140991
598.2315	0.134048
598.4594	0.136939
598.6872	0.155889
598.9151	0.175472
599.1430	0.185643
599.3709	0.180305
599.5988	0.173404
599.8267	0.175451
600.0546	0.181655
600.2825	0.180030
600.5105	0.177308
600.7384	0.174924
600.9664	0.183913
601.1944	0.183533
601.4223	0.178996
601.6503	0.170028
601.8783	0.166314
602.1064	0.165343
602.3344	0.160321
602.5624	0.161798
602.7905	0.165744
603.0185	0.171547
603.2466	0.178806
603.4747	0.182119
603.7028	0.185854
603.9309	0.176844
604.1590	0.169184
604.3871	0.164626
604.6152	0.157240
604.8434	0.151226
605.0715	0.150086
605.2997	0.153800
605.5279	0.163824
605.7561	0.163233
605.9843	0.172961
606.2125	0.168129
606.4407	0.160025
606.6689	0.151732
606.8972	0.148124
607.1254	0.151437
607.3537	0.155045
607.5819	0.152851
607.8102	0.153125
608.0385	0.154032
608.2668	0.145085
608.4951	0.141118
608.7235	0.143523
608.9518	0.137488
609.1801	0.134829
609.4085	0.130419
609.6369	0.127908
609.8653	0.134070
610.0936	0.145570
610.3220	0.146647
610.5505	0.142321
610.7789	0.138459
611.0073	0.131833
611.2357	0.133605
611.4642	0.133774
611.6927	0.135905
611.9211	0.130841
612.1496	0.127823
612.3781	0.122717
612.6066	0.122379
612.8351	0.126304
613.0637	0.124447
613.2922	0.121851
613.5208	0.123940
613.7493	0.123540
613.9779	0.124658
614.2065	0.124911
614.4351	0.121450
614.6637	0.122189
614.8923	0.124574
615.1209	0.122484
615.3495	0.121556
615.5782	0.128182
615.8068	0.127106
616.0355	0.121767
616.2642	0.118116
616.4929	0.111216
616.7216	0.107101
616.9503	0.106911
617.1790	0.103725
617.4077	0.104864
617.6365	0.102775
617.8652	0.108346
618.0940	0.107650
618.3227	0.102712
618.5515	0.097056
618.7803	0.093849
619.0091	0.088383
619.2379	0.090557
619.4667	0.084310
619.6956	0.086167
619.9244	0.089058
620.1533	0.094039
620.3821	0.093722
620.6110	0.091380
620.8399	0.083382
621.0688	0.075722
621.2977	0.072704
621.5266	0.068695
621.7556	0.075469
621.9845	0.078866
622.2135	0.078085
622.4424	0.080512
622.6714	0.080238
622.9004	0.084184
623.1294	0.083783
623.3584	0.088784
623.5874	0.087602
623.8164	0.084564
624.0454	0.084015
624.2745	0.084205
624.5035	0.085830
624.7326	0.088024
624.9617	0.087476
625.1908	0.083340
625.4199	0.078697
625.6490	0.078929
625.8781	0.076102
626.1072	0.073802
626.3364	0.070678
626.5655	0.068062
626.7947	0.066669
627.0238	0.066964
627.2530	0.068969
627.4822	0.068336
627.7114	0.067112
627.9406	0.065930
628.1698	0.062343
628.3991	0.055506
628.6283	0.056287
628.8576	0.056751
629.0868	0.058713
629.3161	0.058545
629.5454	0.059663
629.7747	0.061710
630.0040	0.059157
630.2333	0.058059
630.4626	0.058439
630.6920	0.054198
630.9213	0.053628
631.1507	0.052531
631.3801	0.052193
631.6094	0.053016
631.8388	0.051475
632.0682	0.050758
632.2976	0.050188
632.5271	0.047951
632.7565	0.044828
632.9859	0.043288
633.2154	0.042591
633.4448	0.041367
633.6743	0.042781
633.9038	0.041262
634.1333	0.042486
634.3628	0.041621
634.5923	0.039848
634.8218	0.039911
635.0514	0.037907
635.2809	0.040080
635.5105	0.039489
635.7400	0.039743
635.9696	0.040819
636.1992	0.043372
636.4288	0.044554
636.6584	0.045778
636.8880	0.040840
637.1177	0.041958
637.3473	0.039616
637.5770	0.037907
637.8066	0.038434
638.0363	0.039131
638.2660	0.041853
638.4957	0.042697
638.7254	0.039405
638.9551	0.038540
639.1848	0.038244
639.4145	0.039278
639.6443	0.034624
639.8740	0.036649
640.1038	0.034674
640.3336	0.035189
640.5633	0.035467
640.7931	0.035341
641.0229	0.033878
641.2528	0.033761
641.4826	0.032640
641.7124	0.030827
641.9423	0.032582
642.1721	0.029750
642.4020	0.029523
642.6319	0.028757
642.8617	0.027642
643.0916	0.028060
643.3216	0.030032
643.5515	0.029310
643.7814	0.026169
644.0113	0.028160
644.2413	0.026621
644.4712	0.025763
644.7012	0.027251
644.9312	0.027339
645.1612	0.026242
645.3912	0.023985
645.6212	0.026809
645.8512	0.026155
646.0812	0.026320
646.3113	0.024853
646.5413	0.023127
646.7714	0.023645
647.0015	0.024702
647.2316	0.022760
647.4616	0.022905
647.6918	0.022548
647.9219	0.025840
648.1520	0.027380
648.3821	0.029434
648.6123	0.029519
648.8424	0.031663
649.0726	0.031829
649.3028	0.033096
649.5329	0.032675
649.7631	0.032453
649.9933	0.032079
650.2236	0.027562
650.4538	0.028001
650.6840	0.026529
650.9143	0.027174
651.1445	0.027750
651.3748	0.028001
651.6051	0.026815
651.8354	0.027903
652.0657	0.029417
652.2960	0.030227
652.5263	0.029090
652.7566	0.032377
652.9870	0.029726
653.2173	0.031502
653.4477	0.031382
653.6780	0.031731
653.9084	0.031564
654.1388	0.032905
654.3692	0.031297
654.5996	0.036062
654.8300	0.036412
655.0605	0.060083
655.2909	0.173231
655.5213	0.502651
655.7518	0.939786
655.9823	1.000000
656.2128	1.000000
656.4433	1.000000
656.6738	1.000000
656.9043	1.000000
657.1348	0.815006
657.3653	0.670009
657.5959	0.573757
657.8264	0.501615
658.0570	0.455495
658.2875	0.421705
658.5181	0.379614
658.7487	0.357480
658.9793	0.341345
659.2099	0.295859
659.4406	0.215685
659.6712	0.138375
659.9018	0.081767
660.1325	0.050946
660.3632	0.034666
660.5938	0.027722
660.8245	0.025806
661.0552	0.024249
661.2859	0.022890
661.5166	0.019250
661.7474	0.022702
661.9781	0.021891
662.2088	0.021353
662.4396	0.021388
662.6704	0.021126
662.9011	0.021490
663.1319	0.019536
663.3627	0.020163
663.5935	0.021166
663.8243	0.021836
664.0552	0.020202
664.2860	0.020843
664.5168	0.022021
664.7477	0.021139
664.9786	0.022816
665.2094	0.022858
665.4403	0.022606
665.6712	0.022560
665.9021	0.020980
666.1330	0.023245
666.3640	0.021869
666.5949	0.020621
666.8259	0.019518
667.0568	0.020551
667.2878	0.020207
667.5188	0.019887
667.7497	0.020898
667.9807	0.022012
668.2117	0.018846
668.4428	0.018556
668.6738	0.018872
668.9048	0.021004
669.1359	0.019780
669.3669	0.019421
669.5980	0.020983
669.8291	0.021953
670.0602	0.020751
670.2913	0.021595
670.5224	0.022122
670.7535	0.022776
670.9846	0.020012
671.2157	0.024422
671.4469	0.024549
671.6781	0.028812
671.9092	0.027313
672.1404	0.032716
672.3716	0.034446
672.6028	0.034425
672.8340	0.031027
673.0652	0.031133
673.2964	0.030078
673.5277	0.030415
673.7589	0.027630
673.9902	0.028769
674.2214	0.026828
674.4527	0.027123
674.6840	0.025752
674.9153	0.024275
675.1466	0.025836
675.3779	0.027925
675.6093	0.025688
675.8406	0.025562
676.0719	0.024275
676.3033	0.025182
676.5347	0.022861
676.7661	0.022692
676.9974	0.023241
677.2288	0.021763
677.4602	0.024739
677.6917	0.026427
677.9231	0.027630
678.1545	0.027693
678.3860	0.027693
678.6174	0.028558
678.8489	0.028959
679.0804	0.031449
679.3119	0.030584
679.5434	0.033496
679.7749	0.034066
680.0064	0.032737
680.2379	0.034150
680.4694	0.034319
680.7010	0.032167
680.9325	0.031492
681.1641	0.032716
681.3957	0.033897
681.6273	0.034741
681.8589	0.033496
682.0905	0.032357
682.3221	0.032441
682.5537	0.029086
682.7854	0.030036
683.0170	0.028537
683.2487	0.028812
683.4803	0.031048
683.7120	0.029951
683.9437	0.027440
684.1754	0.033011
684.4071	0.033538
684.6388	0.037041
684.8705	0.039194
685.1023	0.037991
685.3340	0.040544
685.5658	0.042359
685.7975	0.043900
686.0293	0.041768
686.2611	0.044005
686.4929	0.041515
686.7247	0.040903
686.9565	0.041515
687.1883	0.043879
687.4202	0.042169
687.6520	0.040376
687.8838	0.038835
688.1157	0.040122
688.3476	0.038519
688.5795	0.037928
688.8114	0.035754
689.0433	0.033433
689.2752	0.033349
689.5071	0.036029
689.7390	0.034340
689.9710	0.032652
690.2029	0.032927
690.4349	0.032040
690.6669	0.033074
690.8988	0.034404
691.1308	0.037126
691.3628	0.036197
691.5948	0.036725
691.8269	0.036619
692.0589	0.035965
692.2909	0.035839
692.5230	0.036683
692.7550	0.034003
692.9871	0.036999
693.2192	0.036113
693.4513	0.036852
693.6834	0.036366
693.9155	0.035016
694.1476	0.033581
694.3797	0.030859
694.6119	0.029635
694.8440	0.031492
695.0762	0.031956
695.3083	0.035818
695.5405	0.029276
695.7727	0.028136
696.0049	0.026596
696.2371	0.027524
696.4693	0.030247
696.7016	0.035290
696.9338	0.038645
697.1660	0.039932
697.3983	0.038350
697.6306	0.035100
697.8628	0.037274
698.0951	0.035543
698.3274	0.037970
698.5597	0.037020
698.7920	0.035712
699.0243	0.035374
699.2567	0.035902
699.4890	0.031513
699.7214	0.031639
699.9537	0.031006
700.1861	0.029613
700.4185	0.029276
700.6509	0.031597
700.8833	0.027609
701.1157	0.026364
701.3481	0.028263
701.5806	0.028242
701.8130	0.026786
702.0454	0.026554
702.2779	0.029023
702.5104	0.028516
702.7429	0.029635
702.9753	0.028558
703.2078	0.029635
703.4403	0.027820
703.6729	0.028495
703.9054	0.027271
704.1379	0.027946
704.3705	0.027630
704.6030	0.024486
704.8356	0.024169
705.0682	0.023958
705.3008	0.023578
705.5334	0.022544
705.7660	0.022038
705.9986	0.021679
706.2312	0.025393
706.4638	0.027060
706.6965	0.031660
706.9291	0.036134
707.1618	0.034784
707.3945	0.037379
707.6272	0.035100
707.8599	0.034172
708.0926	0.034404
708.3253	0.036282
708.5580	0.035733
708.7907	0.034847
709.0235	0.034214
709.2562	0.032716
709.4890	0.031238
709.7217	0.034467
709.9545	0.032737
710.1873	0.032716
710.4201	0.033327
710.6529	0.034214
710.8857	0.032927
711.1186	0.031281
711.3514	0.032716
711.5842	0.029846
711.8171	0.027271
712.0500	0.028200
712.2828	0.026300
712.5157	0.027567
712.7486	0.028157
712.9815	0.029276
713.2144	0.028326
713.4474	0.030247
713.6803	0.030605
713.9132	0.032884
714.1462	0.031323
714.3791	0.034172
714.6121	0.033138
714.8451	0.032969
715.0781	0.032547
715.3111	0.034636
715.5441	0.032905
715.7771	0.031365
716.0102	0.031196
716.2432	0.028242
716.4762	0.027524
716.7093	0.026195
716.9424	0.027588
717.1754	0.026385
717.4085	0.025878
717.6416	0.025625
717.8747	0.027145
718.1078	0.028305
718.3410	0.027503
718.5741	0.025646
718.8072	0.027313
719.0404	0.028896
719.2736	0.027820
719.5067	0.029297
719.7399	0.028284
719.9731	0.028516
720.2063	0.027524
720.4395	0.027567
720.6727	0.026722
720.9060	0.026744
721.1392	0.028010
721.3725	0.028284
721.6057	0.029445
721.8390	0.025731
722.0723	0.028959
722.3055	0.026997
722.5388	0.026448
722.7721	0.025076
723.0055	0.028221
723.2388	0.027166
723.4721	0.028031
723.7055	0.027313
723.9388	0.028537
724.1722	0.025899
724.4056	0.026891
724.6389	0.026533
724.8723	0.026174
725.1057	0.028959
725.3391	0.029381
725.5726	0.031618
725.8060	0.030479
726.0394	0.030647
726.2729	0.031449
726.5063	0.032420
726.7398	0.033306
726.9733	0.030120
727.2068	0.030247
727.4403	0.029951
727.6738	0.031597
727.9073	0.032842
728.1408	0.030563
728.3743	0.030605
728.6079	0.030985
728.8414	0.033391
729.0750	0.032441
729.3086	0.033665
729.5421	0.033686
729.7757	0.034762
730.0093	0.036788
730.2429	0.033939
730.4766	0.036071
730.7102	0.038645
730.9438	0.041600
731.1775	0.040481
731.4111	0.040397
731.6448	0.040861
731.8785	0.040840
732.1122	0.040840
732.3458	0.038160
732.5795	0.039468
732.8133	0.041410
733.0470	0.041431
733.2807	0.040355
733.5145	0.040945
733.7482	0.043330
733.9820	0.043942
734.2157	0.048521
734.4495	0.049534
734.6833	0.047550
734.9171	0.044870
735.1509	0.044237
735.3847	0.045778
735.6185	0.045103
735.8524	0.043604
736.0862	0.049049
736.3201	0.047255
736.5539	0.045630
736.7878	0.046073
737.0217	0.046158
737.2556	0.048458
737.4895	0.042908
737.7234	0.043393
737.9573	0.040038
738.1912	0.040629
738.4252	0.040249
738.6591	0.037907
738.8931	0.041431
739.1271	0.044849
739.3610	0.044469
739.5950	0.043731
739.8290	0.042528
740.0630	0.039595
740.2970	0.040819
740.5310	0.039785
740.7651	0.036788
740.9991	0.036978
741.2332	0.033454
741.4672	0.031618
741.7013	0.033750
741.9354	0.031998
742.1695	0.034235
742.4036	0.031850
742.6377	0.031386
742.8718	0.031154
743.1059	0.031048
743.3400	0.031323
743.5742	0.029234
743.8083	0.028347
744.0425	0.029424
744.2767	0.029698
744.5108	0.028474
744.7450	0.029592
744.9792	0.030162
745.2134	0.027883
745.4477	0.028010
745.6819	0.026322
745.9161	0.026680
746.1504	0.025752
746.3846	0.028136
746.6189	0.026511
746.8532	0.025076
747.0874	0.029086
747.3217	0.032315
747.5560	0.029635
747.7903	0.028390
748.0247	0.027356
748.2590	0.027123
748.4933	0.025667
748.7277	0.026068
748.9620	0.027229
749.1964	0.029023
749.4308	0.030036
749.6652	0.033201
749.8995	0.032631
750.1339	0.036303
750.3684	0.037485
750.6028	0.040355
750.8372	0.039468
751.0717	0.034762
751.3061	0.036852
751.5406	0.037738
751.7750	0.039004
752.0095	0.038181
752.2440	0.037168
752.4785	0.036725
752.7130	0.035142
752.9475	0.033602
753.1820	0.032589
753.4166	0.036430
753.6511	0.038877
753.8856	0.040587
754.1202	0.038793
754.3548	0.040059
754.5894	0.038223
754.8239	0.039932
755.0585	0.037316
755.2931	0.040988
755.5278	0.041389
755.7624	0.041389
755.9970	0.040397
756.2317	0.044448
756.4663	0.045862
756.7010	0.049534
756.9356	0.049281
757.1703	0.051096
757.4050	0.054092
757.6397	0.056329
757.8744	0.055822
758.1091	0.057236
758.3438	0.056245
758.5786	0.052319
758.8133	0.050462
759.0481	0.048753
759.2828	0.053691
759.5176	0.052742
759.7524	0.055337
759.9872	0.056624
760.2220	0.061267
760.4568	0.061815
760.6916	0.061478
760.9264	0.059579
761.1613	0.058144
761.3961	0.055422
761.6310	0.053459
761.8658	0.049365
762.1007	0.048732
762.3356	0.047909
762.5705	0.045693
762.8054	0.048416
763.0403	0.047529
763.2752	0.047930
763.5101	0.048859
763.7450	0.047951
763.9800	0.046369
764.2149	0.050209
764.4499	0.052319
764.6849	0.054556
764.9198	0.057089
765.1548	0.055822
765.3898	0.055274
765.6248	0.050695
765.8599	0.049808
766.0949	0.046643
766.3299	0.044786
766.5650	0.041241
766.8000	0.040355
767.0351	0.036936
767.2701	0.038920
767.5052	0.034952
767.7403	0.035501
767.9754	0.039236
768.2105	0.041958
768.4456	0.043562
768.6808	0.043013
768.9159	0.047171
769.1510	0.043984
769.3862	0.043499
769.6214	0.043520
769.8565	0.042486
770.0917	0.041853
770.3269	0.043077
770.5621	0.043457
770.7973	0.044997
771.0325	0.047065
771.2677	0.045714
771.5030	0.044955
771.7382	0.043963
771.9735	0.041705
772.2087	0.038308
772.4440	0.039954
772.6793	0.038751
772.9146	0.036978
773.1499	0.037717
773.3852	0.036345
773.6205	0.038624
773.8558	0.035607
774.0911	0.034551
774.3265	0.033665
774.5618	0.031070
774.7972	0.030247
775.0326	0.030141
775.2679	0.028010
775.5033	0.027672
775.7387	0.026870
775.9741	0.025667
776.2095	0.025161
776.4450	0.024085
776.6804	0.023895
776.9158	0.023114
777.1513	0.022840
777.3868	0.023937
777.6222	0.022734
777.8577	0.023262
778.0932	0.022375
778.3287	0.025414
778.5642	0.024844
778.7997	0.026849
779.0352	0.027440
779.2707	0.030204
779.5063	0.030669
779.7418	0.029339
779.9774	0.028579
780.2130	0.026596
780.4485	0.028200
780.6841	0.026406
780.9197	0.028706
781.1553	0.031470
781.3909	0.033602
781.6265	0.033560
781.8622	0.033032
782.0978	0.033602
782.3335	0.032462
782.5691	0.033707
782.8048	0.032188
783.0405	0.032547
783.2761	0.032800
783.5118	0.031998
783.7475	0.033813
783.9832	0.030458
784.2190	0.032230
784.4547	0.030479
784.6904	0.030247
784.9262	0.029402
785.1619	0.027419
785.3977	0.026575
785.6335	0.028938
785.8692	0.028136
786.1050	0.027862
786.3408	0.027208
786.5766	0.028284
786.8124	0.025098
787.0483	0.025562
787.2841	0.024591
787.5199	0.026638
787.7558	0.027356
787.9917	0.028347
788.2275	0.027419
788.4634	0.030458
788.6993	0.029613
788.9352	0.028537
789.1711	0.029972
789.4070	0.026596
789.6429	0.023874
789.8789	0.026406
790.1148	0.025667
790.3507	0.024486
790.5867	0.023473
790.8227	0.024000
791.0586	0.022903
791.2946	0.021341
791.5306	0.022439
791.7666	0.021869
792.0026	0.023030
792.2387	0.021679
792.4747	0.020624
792.7107	0.021025
792.9468	0.020962
793.1828	0.018049
793.4189	0.021299
793.6550	0.023156
793.8910	0.024802
794.1271	0.029508
794.3632	0.029128
794.5993	0.029128
794.8355	0.029191
795.0716	0.032040
795.3077	0.030415
795.5439	0.031428
795.7800	0.028748
796.0162	0.025583
796.2523	0.024042
796.4885	0.021468
796.7247	0.020793
796.9609	0.019780
797.1971	0.019674
797.4333	0.022270
797.6695	0.021974
797.9058	0.022143
798.1420	0.022734
798.3783	0.023958
798.6145	0.021679
798.8508	0.022586
799.0871	0.022312
799.3233	0.021489
799.5596	0.020729
799.7959	0.020772
800.0322	0.019864
800.2686	0.019316
800.5049	0.019717
800.7412	0.018725
800.9776	0.017015
801.2139	0.018387
801.4503	0.018007
801.6867	0.017015
801.9230	0.018366
802.1594	0.016192
802.3958	0.016678
802.6322	0.013892
802.8686	0.016256
803.1051	0.015285
803.3415	0.016657
803.5779	0.017522
803.8144	0.016826
804.0508	0.017163
804.2873	0.016551
804.5238	0.015433
804.7603	0.014947
804.9968	0.016783
805.2333	0.016868
805.4698	0.016235
805.7063	0.017332
805.9428	0.019189
806.1794	0.019759
806.4159	0.021384
806.6525	0.023768
806.8890	0.022586
807.1256	0.021088
807.3622	0.023008
807.5988	0.022059
807.8354	0.022608
808.0720	0.021510
808.3086	0.019421
808.5452	0.022164
808.7818	0.021426
809.0185	0.021974
809.2551	0.020392
809.4918	0.019379
809.7284	0.020603
809.9651	0.018176
810.2018	0.019020
810.4385	0.017881
810.6752	0.018493
810.9119	0.018366
811.1486	0.017754
811.3853	0.018366
811.6221	0.015855
811.8588	0.016214
812.0956	0.016192
812.3323	0.013913
812.5691	0.014314
812.8059	0.014736
813.0427	0.013006
813.2795	0.015644
813.5163	0.017311
813.7531	0.019611
813.9899	0.018640
814.2267	0.018767
814.4636	0.016235
814.7004	0.015602
814.9373	0.016235
815.1742	0.014990
815.4110	0.016024
815.6479	0.014167
815.8848	0.011444
816.1217	0.012901
816.3586	0.012542
816.5955	0.014525
816.8324	0.013745
817.0694	0.014589
817.3063	0.012542
817.5433	0.013238
817.7802	0.014251
818.0172	0.013660
818.2542	0.012711
818.4912	0.013069
818.7282	0.012310
818.9652	0.012246
819.2022	0.011634
819.4392	0.012394
819.6762	0.011255
819.9133	0.010052
820.1503	0.012225
820.3874	0.014441
820.6244	0.015369
820.8615	0.014694
821.0986	0.016382
821.3357	0.015580
821.5727	0.013956
821.8099	0.014378
822.0470	0.012521
822.2841	0.012415
822.5212	0.011972
822.7584	0.012795
822.9955	0.011761
823.2327	0.011360
823.4698	0.011107
823.7070	0.010917
823.9442	0.010094
824.1814	0.011613
824.4186	0.011297
824.6558	0.013090
824.8930	0.010495
825.1302	0.010537
825.3675	0.010410
825.6047	0.012246
825.8419	0.012922
826.0792	0.011677
826.3165	0.012500
826.5537	0.010664
826.7910	0.012183
827.0283	0.012162
827.2656	0.013217
827.5029	0.012774
827.7402	0.011824
827.9776	0.011655
828.2149	0.011909
828.4522	0.011888
828.6896	0.011634
828.9270	0.013196
829.1643	0.012943
829.4017	0.011782
829.6391	0.011297
829.8765	0.011360
830.1139	0.010516
830.3513	0.010178
830.5887	0.008807
830.8261	0.007667
831.0636	0.009545
831.3010	0.008870
831.5385	0.006844
831.7759	0.006781
832.0134	0.007519
832.2509	0.007393
832.4884	0.007752
832.7259	0.008427
832.9634	0.008258
833.2009	0.008553
833.4384	0.007688
833.6759	0.008617
833.9135	0.009841
834.1510	0.008849
834.3886	0.011191
834.6261	0.009988
834.8637	0.010558
835.1013	0.011972
835.3389	0.009355
835.5765	0.010284
835.8141	0.010664
836.0517	0.008807
836.2893	0.008596
836.5269	0.008364
836.7646	0.010136
837.0022	0.008954
837.2399	0.005852
837.4775	0.007203
837.7152	0.006211
837.9529	0.007836
838.1906	0.005726
838.4283	0.006781
838.6660	0.005831
838.9037	0.005979
839.1414	0.004692
839.3791	0.008047
839.6169	0.007308
839.8546	0.006929
840.0924	0.006211
840.3302	0.007140
840.5679	0.007583
840.8057	0.008068
841.0435	0.007182
841.2813	0.005662
841.5191	0.006633
841.7569	0.005261
841.9947	0.005325
842.2326	0.006507
842.4704	0.005768
842.7082	0.005684
842.9461	0.005789
843.1840	0.004565
843.4218	0.004797
843.6597	0.004966
843.8976	0.004206
844.1355	0.006886
844.3734	0.005557
844.6113	0.005473
844.8492	0.004291
845.0872	0.005515
845.3251	0.004523
845.5631	0.004249
845.8010	0.005304
846.0390	0.005283
846.2770	0.003911
846.5149	0.003848
846.7529	0.004038
846.9909	0.004016
847.2289	0.003805
847.4669	0.005114
847.7050	0.006084
847.9430	0.006464
848.1810	0.004333
848.4191	0.004734
848.6571	0.003531
848.8952	0.004417
849.1333	0.004713
849.3713	0.004544
849.6094	0.003130
849.8475	0.003383
850.0856	0.004227
850.3237	0.004671
850.5619	0.005620
850.8000	0.004607
851.0381	0.004270
851.2763	0.003658
851.5144	0.005515
851.7526	0.006274
851.9908	0.006401
852.2289	0.005473
852.4671	0.005641
852.7053	0.007203
852.9435	0.009672
853.1817	0.013871
853.4200	0.012457
853.6582	0.013280
853.8964	0.011170
854.1347	0.014610
854.3729	0.013428
854.6112	0.013534
854.8495	0.012331
855.0877	0.013871
855.3260	0.012901
855.5643	0.012352
855.8026	0.011803
856.0409	0.012014
856.2792	0.013090
856.5176	0.011845
856.7559	0.011402
856.9942	0.011761
857.2326	0.011128
857.4710	0.010875
857.7093	0.009925
857.9477	0.009313
858.1861	0.010368
858.4245	0.009714
858.6629	0.007688
858.9013	0.008975
859.1397	0.009187
859.3781	0.008975
859.6166	0.009123
859.8550	0.007245
860.0935	0.008258
860.3319	0.007583
860.5704	0.008005
860.8089	0.008237
861.0473	0.006802
861.2858	0.006886
861.5243	0.006507
861.7628	0.007097
862.0013	0.005684
862.2399	0.004734
862.4784	0.006781
862.7169	0.006000
862.9555	0.005346
863.1940	0.005958
863.4326	0.005008
863.6712	0.008110
863.9098	0.005409
864.1483	0.005958
864.3869	0.005620
864.6255	0.006127
864.8642	0.006274
865.1028	0.005557
865.3414	0.006253
865.5800	0.005831
865.8187	0.005641
866.0573	0.004291
866.2960	0.004713
866.5347	0.005515
866.7733	0.003953
867.0120	0.004776
867.2507	0.003974
867.4894	0.005810
867.7281	0.005536
867.9669	0.006422
868.2056	0.004607
868.4443	0.006211
868.6831	0.004966
868.9218	0.005050
869.1606	0.003932
869.3993	0.005473
869.6381	0.004607
869.8769	0.003974
870.1157	0.004312
870.3545	0.003974
870.5933	0.004628
870.8321	0.005409
871.0709	0.004523
871.3097	0.005979
871.5486	0.004460
871.7874	0.004839
872.0263	0.004038
872.2651	0.006106
872.5040	0.003679
872.7429	0.003510
872.9818	0.004481
873.2207	0.003869
873.4596	0.004713
873.6985	0.004924
873.9374	0.003489
874.1763	0.004565
874.4153	0.003763
874.6542	0.004523
874.8932	0.005008
875.1321	0.005895
875.3711	0.006443
875.6101	0.005937
875.8491	0.005473
876.0880	0.006507
876.3270	0.004080
876.5661	0.005325
876.8051	0.005641
877.0441	0.006633
877.2831	0.005135
877.5222	0.005536
877.7612	0.004692
878.0003	0.006063
878.2393	0.006739
878.4784	0.006253
878.7175	0.007330
878.9566	0.006127
879.1957	0.007794
879.4348	0.006148
879.6739	0.007667
879.9130	0.008216
880.1521	0.008680
880.3913	0.008617
880.6304	0.009018
880.8696	0.009102
881.1087	0.007836
881.3479	0.006464
881.5871	0.006422
881.8262	0.006106
882.0654	0.007604
882.3046	0.005050
882.5438	0.005240
882.7831	0.006190
883.0223	0.004924
883.2615	0.006380
883.5007	0.006718
883.7400	0.008174
883.9792	0.005895
884.2185	0.005620
884.4578	0.006211
884.6971	0.004185
884.9363	0.004396
885.1756	0.007330
885.4149	0.005937
885.6542	0.006359
885.8936	0.005451
886.1329	0.005093
886.3722	0.005641
886.6116	0.005831
886.8509	0.005409
887.0903	0.007541
887.3296	0.006000
887.5690	0.006443
887.8084	0.005093
888.0478	0.003637
888.2872	0.003341
888.5266	0.004903
888.7660	0.004628
889.0054	0.002771
889.2448	0.004291
889.4843	0.005050
889.7237	0.005557
889.9632	0.003109
890.2026	0.004016
890.4421	0.004417
890.6816	0.001547
890.9211	0.002307
891.1606	0.005451
891.4001	0.003404
891.6396	0.004607
891.8791	0.004481
892.1186	0.005768
892.3581	0.004797
892.5977	0.005219
892.8372	0.003531
893.0768	0.004818
893.3163	0.004607
893.5559	0.004945
893.7955	0.004755
894.0351	0.004312
894.2747	0.004586
894.5143	0.002560
894.7539	0.003573
894.9935	0.004924
895.2331	0.004586
895.4727	0.004143
895.7124	0.004755
895.9520	0.004797
896.1917	0.003763
896.4314	0.005451
896.6710	0.004375
896.9107	0.005050
897.1504	0.004439
897.3901	0.003383
897.6298	0.005705
897.8695	0.005325
898.1092	0.006443
898.3489	0.005473
898.5887	0.004797
898.8284	0.004016
899.0682	0.004354
899.3079	0.004839
899.5477	0.003383
899.7875	0.004692
900.0272	0.003658
900.2670	0.004544
900.5068	0.003784
900.7466	0.005641
900.9864	0.004460
901.2263	0.003679
901.4661	0.003827
901.7059	0.004354
901.9458	0.005325
902.1856	0.004016
902.4255	0.003236
902.6654	0.004502
902.9052	0.002307
903.1451	0.003594
903.3850	0.003193
903.6249	0.004417
903.8648	0.004270
904.1047	0.004354
904.3446	0.004312
904.5846	0.004460
904.8245	0.004059
905.0644	0.003489
905.3044	0.004692
905.5444	0.005705
905.7843	0.004502
906.0243	0.006000
906.2643	0.003383
906.5043	0.004227
906.7443	0.004586
906.9843	0.003046
907.2243	0.004882
907.4643	0.004628
907.7043	0.002898
907.9444	0.006464
908.1844	0.004101
908.4245	0.004523
908.6645	0.004038
908.9046	0.003362
909.1447	0.004354
909.3847	0.004080
909.6248	0.002328
909.8649	0.003700
910.1050	0.004249
910.3452	0.004016
910.5853	0.002265
910.8254	0.003404
911.0655	0.003658
911.3057	0.003805
911.5458	0.003468
911.7860	0.002624
912.0262	0.003067
912.2663	0.003468
912.5065	0.004016
912.7467	0.004101
912.9869	0.003594
913.2271	0.001653
913.4673	0.004312
913.7075	0.002328
913.9478	0.005029
914.1880	0.002940
914.4283	0.002349
914.6685	0.003489
914.9088	0.003700
915.1490	0.003151
915.3893	0.002708
915.6296	0.004101
915.8699	0.003046
916.1102	0.003257
916.3505	0.002687
916.5908	0.003489
916.8311	0.002223
917.0714	0.003172
917.3118	0.004333
917.5521	0.005219
917.7925	0.003974
918.0328	0.004502
918.2732	0.003573
918.5136	0.003974
918.7539	0.003742
918.9943	0.003827
919.2347	0.003869
919.4751	0.003236
919.7155	0.003151
919.9560	0.004544
920.1964	0.003742
920.4368	0.002476
920.6773	0.004586
920.9177	0.003025
921.1582	0.003531
921.3986	0.003890
921.6391	0.003151
921.8796	0.004016
922.1201	0.002624
922.3606	0.003067
922.6011	0.002982
922.8416	0.003616
923.0821	0.002518
923.3226	0.003067
923.5631	0.002159
923.8037	0.002392
924.0442	0.002497
924.2848	0.002518
924.5254	0.002877
924.7659	0.002835
925.0065	0.002518
925.2471	0.002539
925.4877	0.003362
925.7283	0.003848
925.9689	0.003109
926.2095	0.002349
926.4501	0.001273
926.6908	0.002666
926.9314	0.002307
927.1720	0.002138
927.4127	0.001505
927.6533	0.001843
927.8940	0.003447
928.1347	0.001041
928.3754	0.002434
928.6161	0.001674
928.8568	0.000851
929.0975	0.002898
929.3382	0.002687
929.5789	0.002940
929.8196	0.001463
930.0604	0.001547
930.3011	0.001737
930.5419	0.003278
930.7826	0.002497
931.0234	0.001801
931.2642	0.001358
931.5049	0.001569
931.7457	0.001674
931.9865	0.001864
932.2273	0.001294
932.4681	0.002265
932.7089	0.002455
932.9498	0.002117
933.1906	0.002392
933.4314	0.001421
933.6723	0.002898
933.9131	0.001948
934.1540	0.003109
934.3949	0.000957
934.6358	0.000851
934.8766	0.002497
935.1175	0.001590
935.3584	0.002434
935.5993	0.002244
935.8403	0.002054
936.0812	0.000345
936.3221	0.002434
936.5630	0.000767
936.8040	0.002223
937.0449	-0.000077
937.2859	0.001505
937.5269	0.001822
937.7678	0.002434
938.0088	0.001716
938.2498	0.001590
938.4908	0.002476
938.7318	0.002687
938.9728	0.001695
939.2138	0.001294
939.4549	0.001611
939.6959	0.003130
939.9369	0.000914
940.1780	0.001020
940.4190	0.001104
940.6601	0.001252
940.9012	0.002159
941.1422	0.000218
941.3833	0.002286
941.6244	0.001653
941.8655	0.001632
942.1066	0.000640
942.3477	0.001927
942.5889	0.000661
942.8300	0.000914
943.0711	0.000703
943.3123	0.000598
943.5534	0.000556
943.7946	0.001569
944.0357	0.001104
944.2769	0.001695
944.5181	0.000725
944.7593	0.001843
945.0005	0.000936
945.2417	-0.000668
945.4829	0.000429
945.7241	0.001231
945.9653	0.000682
946.2066	0.001885
946.4478	0.000450
946.6891	0.000239
946.9303	0.001885
947.1716	0.001737
947.4128	0.000492
947.6541	0.000218
947.8954	0.002117
948.1367	0.001970
948.3780	0.000408
948.6193	0.000936
948.8606	0.000936
949.1019	0.000914
949.3433	0.000070
949.5846	0.000851
949.8259	0.000809
950.0673	0.000767
950.3086	0.000239
950.5500	0.001062
950.7914	0.000429
951.0327	-0.000183
951.2741	0.000914
951.5155	0.001716
951.7569	0.000936
951.9983	0.001294
952.2398	0.000345
952.4812	0.000788
952.7226	-0.000288
952.9640	0.000746
953.2055	0.001273
953.4469	0.001231
953.6884	0.000598
953.9299	0.003784
954.1713	0.000366
954.4128	0.000260
954.6543	0.000408
954.8958	0.001737
955.1373	0.000113
955.3788	0.001843
955.6203	0.001674
955.8618	0.002054
956.1034	0.000049
956.3449	0.000556
956.5865	0.000999
956.8280	0.001505
957.0696	0.001083
957.3111	0.001885
957.5527	0.001674
957.7943	0.000661
958.0359	0.000619
958.2775	0.000239
958.5191	0.000260
958.7607	0.001147
959.0023	0.001210
959.2439	0.002666
959.4856	0.000682
959.7272	0.000556
959.9688	0.001569
960.2105	0.001653
960.4522	0.000872
960.6938	0.001611
960.9355	-0.000056
961.1772	0.000155
961.4189	0.000577
961.6606	0.000851
961.9023	-0.000183
962.1440	0.000872
962.3857	-0.000056
962.6274	0.001885
962.8692	0.000661
963.1109	0.001168
963.3527	0.000872
963.5944	0.000577
963.8362	0.001611
964.0779	-0.000373
964.3197	-0.000014
964.5615	0.001315
964.8033	0.000957
965.0451	0.000619
965.2869	0.000830
965.5287	0.000302
965.7705	-0.000331
966.0123	-0.000732
966.2542	0.001653
966.4960	0.000492
966.7379	0.000091
966.9797	0.001864
967.2216	0.001843
967.4634	0.001716
967.7053	0.001737
967.9472	0.000746
968.1891	0.001759
968.4310	0.001147
968.6729	-0.001111
968.9148	0.000113
969.1567	-0.000035
969.3987	-0.000056
969.6406	0.000767
969.8825	0.000809
970.1245	0.000999
970.3664	0.001041
970.6084	0.001252
970.8504	0.000324
971.0923	0.000134
971.3343	-0.000457
971.5763	-0.001407
971.8183	0.000725
972.0603	-0.000331
972.3023	0.001695
972.5443	-0.000014
972.7864	0.001104
973.0284	0.000091
973.2704	0.001421
973.5125	0.001970
973.7545	0.001336
973.9966	0.000070
974.2387	0.000239
974.4807	0.000914
974.7228	-0.000478
974.9649	-0.000309
975.2070	0.001062
975.4491	0.000302
975.6912	0.001505
975.9333	0.000408
976.1755	0.000703
976.4176	0.000387
976.6597	0.000197
976.9019	-0.000837
977.1440	0.000387
977.3862	0.000957
977.6283	0.001780
977.8705	0.001484
978.1127	0.000260
978.3549	0.000134
978.5971	0.001210
978.8393	0.000767
979.0815	0.002708
979.3237	0.000324
979.5659	0.001210
979.8082	0.000070
980.0504	0.001632
980.2926	-0.001111
980.5349	0.001716
980.7771	0.000577
981.0194	0.001970
981.2617	0.000577
981.5040	-0.000035
981.7462	0.000345
981.9885	-0.000900
982.2308	-0.000141
982.4731	0.000134
982.7155	-0.000098
982.9578	0.001400
983.2001	0.000091
983.4424	-0.000035
983.6848	-0.000246
983.9271	0.001358
984.1695	0.000387
984.4118	0.000028
984.6542	0.000682
984.8966	0.000725
985.1390	0.000788
985.3814	-0.000056
985.6238	-0.000689
985.8662	-0.000098
986.1086	0.002138
986.3510	0.001294
986.5934	-0.001787
986.8358	0.002096
987.0783	-0.001048
987.3207	-0.000120
987.5632	0.000471
987.8056	0.001294
988.0481	0.000513
988.2906	0.000767
988.5331	-0.000225
988.7756	0.000281
989.0180	0.001780
989.2605	-0.000141
989.5031	0.000345
989.7456	0.001421
989.9881	-0.000204
990.2306	0.000197
990.4732	0.000872
990.7157	0.000091
990.9582	-0.000120
991.2008	0.001104
991.4434	0.000893
991.6859	-0.001006
991.9285	0.000155
992.1711	0.000619
992.4137	0.001189
992.6563	0.000830
992.8989	0.000113
993.1415	0.001294
993.3841	-0.000774
993.6267	0.000513
993.8694	0.000999
994.1120	0.001189
994.3547	0.000049
994.5973	-0.000267
994.8400	-0.000225
995.0826	0.000260
995.3253	0.000746
995.5680	0.000070
995.8107	0.000598
996.0534	-0.000309
996.2961	0.000366
996.5388	-0.000035
996.7815	0.000366
997.0242	0.000872
997.2670	0.000830
997.5097	0.000260
997.7524	-0.000331
997.9952	0.000746
998.2379	-0.000035
998.4807	0.000661
998.7235	-0.000352
998.9662	-0.000352
999.2090	0.000661
999.4518	0.000197
999.6946	0.000155
999.9374	0.001442
1000.1802	0.000260
1000.4230	0.000640
1000.6659	0.001104
1000.9087	-0.000056
1001.1515	0.000408
1001.3944	0.000429
1001.6372	-0.000710
1001.8801	0.000007
1002.1230	0.000725
1002.3658	0.001294
1002.6087	0.000513
1002.8516	0.000577
1003.0945	-0.000478
1003.3374	0.000703
1003.5803	0.002413
1003.8232	0.000176
1004.0661	0.001421
1004.3091	0.000619
1004.5520	0.000302
1004.7949	0.000007
1005.0379	0.000070
1005.2808	-0.000309
1005.5238	0.000450
1005.7667	-0.000478
1006.0097	0.000936
1006.2527	-0.000352
1006.4957	0.000788
1006.7387	0.000345
1006.9817	0.001062
1007.2247	-0.001132
1007.4677	0.000155
1007.7107	0.000661
1007.9538	0.002476
1008.1968	-0.000900
1008.4398	0.000556
1008.6829	-0.000795
1008.9259	0.001569
1009.1690	0.001463
1009.4121	0.000978
1009.6551	0.001104
1009.8982	0.000345
1010.1413	0.000070
1010.3844	-0.000162
1010.6275	-0.000394
1010.8706	0.001125
1011.1137	-0.000077
1011.3568	0.000155
1011.6000	-0.000077
1011.8431	0.000366
1012.0863	-0.000331
1012.3294	0.001379
1012.5726	0.000197
1012.8157	0.001315
1013.0589	-0.000668
1013.3021	-0.000204
1013.5452	-0.000436
1013.7884	-0.000120
1014.0316	0.000155
1014.2748	-0.000035
1014.5180	-0.000035
1014.7613	0.000049
1015.0045	0.000155
1015.2477	-0.000774
1015.4909	-0.000267
1015.7342	0.000957
1015.9774	-0.000816
1016.2207	0.000450
1016.4640	-0.001006
1016.7072	0.000239
1016.9505	-0.000077
1017.1938	0.001147
1017.4371	0.000387
1017.6804	0.000682
1017.9237	-0.000879
1018.1670	0.000070
1018.4103	-0.000584
1018.6536	0.000049
1018.8969	-0.000141
1019.1403	0.000936
1019.3836	0.000450
1019.6270	0.000408
1019.8703	0.000260
1020.1137	0.001083
1020.3571	-0.000795
1020.6004	0.000134
1020.8438	0.000682
1021.0872	0.000387
1021.3306	-0.001132
1021.5740	-0.000077
1021.8174	-0.000373
1022.0608	0.001674
1022.3042	-0.000331
1022.5477	-0.000225
1022.7911	-0.000246
1023.0345	-0.000183
