# Wavelength (nm)	Intensity (a.u.)
197.7802	-0.000746
197.9842	-0.000450
198.1882	0.000838
198.3922	-0.000049
198.5963	-0.000830
198.8003	0.001112
199.0044	-0.001506
199.2085	0.000542
199.4126	0.000943
199.6168	-0.000999
199.8209	-0.000218
200.0251	-0.000894
200.2292	-0.000725
200.4334	0.001239
200.6376	0.001154
200.8418	-0.000577
201.0461	-0.000282
201.2503	-0.000429
201.4546	-0.000028
201.6589	-0.000197
201.8631	-0.000746
202.0674	0.000373
202.2718	-0.000049
202.4761	-0.000429
202.6805	0.000225
202.8848	-0.000450
203.0892	0.000626
203.2936	0.000310
203.4980	0.000436
203.7024	-0.000239
203.9069	0.000943
204.1113	-0.000640
204.3158	-0.000408
204.5203	0.001091
204.7248	-0.001422
204.9293	-0.002351
205.1338	0.000267
205.3384	-0.000493
205.5430	0.000753
205.7475	-0.000915
205.9521	0.000099
206.1567	-0.000429
206.3614	0.000352
206.5660	-0.000134
206.7706	-0.001042
206.9753	-0.000260
207.1800	0.000056
207.3847	0.000795
207.5894	-0.000324
207.7941	0.000394
207.9989	-0.000197
208.2036	-0.000450
208.4084	-0.000408
208.6132	-0.000303
208.8180	0.000711
209.0228	0.000626
209.2276	-0.000493
209.4325	0.000120
209.6373	0.001239
209.8422	-0.000218
210.0471	0.000457
210.2520	0.000542
210.4569	0.000457
210.6618	-0.000134
210.8668	-0.000134
211.0718	0.000352
211.2767	-0.000028
211.4817	-0.000662
211.6867	0.000457
211.8918	-0.000387
212.0968	0.000204
212.3018	-0.001147
212.5069	0.000711
212.7120	0.000352
212.9171	0.000077
213.1222	-0.000493
213.3273	-0.000091
213.5325	0.000626
213.7376	-0.001168
213.9428	0.001492
214.1480	-0.000725
214.3532	0.000669
214.5584	-0.000239
214.7636	-0.000577
214.9689	-0.000535
215.1741	-0.000999
215.3794	-0.000704
215.5847	0.000141
215.7900	0.001133
215.9953	0.000985
216.2007	0.000141
216.4060	0.000690
216.6114	0.000267
216.8168	-0.000450
217.0222	0.000563
217.2276	0.000985
217.4330	-0.000577
217.6384	-0.000978
217.8439	0.000500
218.0494	0.001070
218.2548	-0.000176
218.4603	-0.000493
218.6659	-0.000324
218.8714	0.001049
219.0769	-0.000746
219.2825	-0.000218
219.4881	0.000077
219.6936	-0.000366
219.8992	0.000521
220.1049	0.000415
220.3105	0.002400
220.5161	-0.000873
220.7218	-0.000640
220.9275	-0.000049
221.1332	0.000943
221.3389	-0.000366
221.5446	-0.000450
221.7503	-0.000978
221.9561	0.000183
222.1618	0.000056
222.3676	0.000099
222.5734	-0.000007
222.7792	0.000479
222.9850	-0.000683
223.1909	-0.000725
223.3967	-0.000535
223.6026	-0.000007
223.8085	0.000669
224.0144	-0.000535
224.2203	0.000479
224.4262	0.000964
224.6322	-0.000028
224.8381	-0.001042
225.0441	0.001028
225.2501	-0.000704
225.4561	-0.000134
225.6621	0.000753
225.8681	0.001112
226.0742	-0.000830
226.2802	-0.001844
226.4863	0.001112
226.6924	-0.000746
226.8985	0.000901
227.1046	0.000099
227.3107	0.000542
227.5169	0.000204
227.7230	0.000394
227.9292	0.000246
228.1354	-0.000894
228.3416	0.000584
228.5478	0.000542
228.7541	0.001049
228.9603	-0.000176
229.1666	-0.001168
229.3729	0.000056
229.5791	-0.000936
229.7855	0.000500
229.9918	0.000077
230.1981	-0.000915
230.4045	0.000077
230.6108	0.000626
230.8172	-0.000894
231.0236	0.000711
231.2300	-0.001633
231.4364	-0.001063
231.6429	-0.000113
231.8493	-0.000366
232.0558	-0.001358
232.2623	-0.000746
232.4688	-0.000028
232.6753	-0.000683
232.8818	-0.000704
233.0884	0.000816
233.2949	-0.000725
233.5015	0.000690
233.7081	-0.001063
233.9147	-0.000535
234.1213	-0.001823
234.3279	-0.000303
234.5346	0.000056
234.7413	-0.000260
234.9479	0.000225
235.1546	0.000542
235.3613	0.000246
235.5680	0.001809
235.7748	0.000267
235.9815	0.001218
236.1883	0.000415
236.3951	-0.001126
236.6018	0.001408
236.8087	0.000204
237.0155	0.000056
237.2223	0.000669
237.4292	-0.000640
237.6360	-0.000091
237.8429	-0.000662
238.0498	0.000880
238.2567	-0.000978
238.4636	0.000521
238.6706	-0.000493
238.8775	0.000183
239.0845	-0.001063
239.2915	0.001344
239.4985	0.000099
239.7055	-0.000429
239.9125	-0.001063
240.1195	0.000626
240.3266	-0.001105
240.5337	0.000479
240.7407	0.000267
240.9478	0.000605
241.1549	-0.000450
241.3621	0.000521
241.5692	-0.000282
241.7764	0.000310
241.9835	-0.000303
242.1907	-0.000746
242.3979	-0.000852
242.6051	0.000647
242.8124	0.000584
243.0196	-0.000640
243.2269	-0.001232
243.4341	0.000457
243.6414	-0.000091
243.8487	-0.000683
244.0560	0.000373
244.2634	-0.000577
244.4707	-0.000387
244.6781	-0.000662
244.8854	-0.000324
245.0928	-0.000091
245.3002	-0.000387
245.5076	-0.000028
245.7151	-0.000725
245.9225	0.000394
246.1300	-0.001886
246.3375	0.000838
246.5449	0.000901
246.7524	-0.000640
246.9600	-0.001063
247.1675	0.000479
247.3750	-0.001295
247.5826	0.000331
247.7902	-0.000493
247.9978	0.000669
248.2054	-0.000091
248.4130	0.000626
248.6206	0.000436
248.8283	-0.000028
249.0359	-0.000873
249.2436	0.000141
249.4513	-0.000049
249.6590	-0.000535
249.8667	-0.000260
250.0745	0.000120
250.2822	0.000056
250.4900	-0.000218
250.6978	0.000563
250.9056	-0.000767
251.1134	-0.001126
251.3212	0.001049
251.5290	-0.000598
251.7369	-0.000218
251.9447	0.000120
252.1526	0.000162
252.3605	-0.000134
252.5684	-0.001147
252.7763	0.000225
252.9843	-0.000556
253.1922	-0.001992
253.4002	0.000310
253.6082	0.000183
253.8162	0.000267
254.0242	-0.001147
254.2322	0.001281
254.4402	-0.000619
254.6483	-0.000155
254.8564	-0.001147
255.0644	0.000246
255.2725	0.000331
255.4806	0.000099
255.6888	-0.000640
255.8969	0.000838
256.1051	-0.000767
256.3132	-0.000514
256.5214	0.001260
256.7296	-0.000493
256.9378	-0.000218
257.1460	0.000120
257.3543	-0.000282
257.5625	0.000204
257.7708	-0.000239
257.9791	0.001049
258.1874	-0.001021
258.3957	-0.001084
258.6040	-0.000598
258.8124	-0.000788
259.0207	0.001028
259.2291	-0.000176
259.4375	-0.000408
259.6459	0.000985
259.8543	0.000183
260.0627	0.000626
260.2711	0.000183
260.4796	-0.001084
260.6881	-0.001126
260.8965	0.002210
261.1050	-0.000514
261.3135	0.000056
261.5221	0.000394
261.7306	-0.000091
261.9392	-0.000324
262.1477	-0.000303
262.3563	0.000373
262.5649	-0.000070
262.7735	-0.000070
262.9822	-0.000091
263.1908	-0.001274
263.3995	-0.000049
263.6081	-0.001021
263.8168	0.000077
264.0255	-0.000366
264.2342	-0.000176
264.4429	0.000225
264.6517	-0.000852
264.8604	0.000056
265.0692	-0.000345
265.2780	0.000056
265.4868	-0.000852
265.6956	0.000014
265.9044	0.000795
266.1133	-0.000683
266.3221	0.000521
266.5310	0.000415
266.7399	-0.000408
266.9488	0.000859
267.1577	0.000352
267.3666	-0.000957
267.5755	0.000436
267.7845	-0.000408
267.9935	0.000289
268.2024	-0.000387
268.4114	0.000415
268.6205	0.000289
268.8295	-0.000619
269.0385	0.000352
269.2476	-0.000260
269.4566	-0.000324
269.6657	0.000267
269.8748	-0.000598
270.0839	0.000964
270.2931	0.000204
270.5022	-0.000260
270.7114	0.001028
270.9205	-0.000134
271.1297	0.000014
271.3389	-0.000303
271.5481	0.000521
271.7573	0.000626
271.9666	-0.000303
272.1758	-0.000408
272.3851	0.000352
272.5944	0.000436
272.8037	0.000162
273.0130	-0.000345
273.2223	0.000394
273.4316	0.000014
273.6410	-0.000619
273.8504	0.000077
274.0597	-0.000239
274.2691	-0.000852
274.4785	-0.000450
274.6880	0.000753
274.8974	0.000331
275.1069	0.001175
275.3163	-0.000197
275.5258	-0.000662
275.7353	0.000373
275.9448	-0.000345
276.1543	-0.001358
276.3639	0.000056
276.5734	0.000225
276.7830	-0.000450
276.9926	0.000732
277.2022	-0.000260
277.4118	-0.000767
277.6214	0.000436
277.8310	-0.000113
278.0407	-0.000936
278.2503	0.001239
278.4600	0.000056
278.6697	-0.000303
278.8794	-0.000324
279.0891	0.000056
279.2989	-0.001021
279.5086	-0.001654
279.7184	-0.000345
279.9281	0.000352
280.1379	0.000056
280.3477	-0.000429
280.5576	-0.000282
280.7674	0.000500
280.9772	-0.000809
281.1871	-0.000915
281.3970	0.000647
281.6069	0.000605
281.8168	0.000669
282.0267	-0.001274
282.2366	0.002147
282.4466	0.001091
282.6565	-0.000577
282.8665	-0.000260
283.0765	-0.000619
283.2865	0.000014
283.4965	0.001492
283.7065	-0.000324
283.9166	-0.000915
284.1266	-0.000429
284.3367	-0.000450
284.5468	-0.000598
284.7569	0.000331
284.9670	-0.000303
285.1771	-0.000134
285.3873	-0.000260
285.5974	0.000246
285.8076	0.000162
286.0178	0.000542
286.2280	-0.001295
286.4382	-0.000324
286.6484	0.000647
286.8587	-0.000260
287.0689	-0.000704
287.2792	-0.001823
287.4895	-0.001084
287.6998	0.000246
287.9101	-0.000303
288.1204	0.000964
288.3308	0.001534
288.5411	-0.000176
288.7515	-0.001379
288.9619	0.001070
289.1723	0.000563
289.3827	-0.000239
289.5931	0.000289
289.8035	-0.000429
290.0140	0.000267
290.2245	0.000331
290.4349	-0.000472
290.6454	0.001049
290.8559	0.000415
291.0665	0.000162
291.2770	-0.000239
291.4875	-0.000345
291.6981	0.000690
291.9087	-0.000303
292.1193	-0.000091
292.3299	0.000394
292.5405	-0.001211
292.7511	0.000204
292.9618	-0.001379
293.1724	-0.000556
293.3831	0.000352
293.5938	-0.000387
293.8045	-0.000746
294.0152	0.000626
294.2260	-0.000366
294.4367	0.000795
294.6475	-0.000176
294.8582	-0.000915
295.0690	-0.000197
295.2798	0.000584
295.4906	0.000310
295.7015	-0.000999
295.9123	-0.000746
296.1232	0.000521
296.3340	0.000120
296.5449	-0.000472
296.7558	-0.000007
296.9667	-0.000535
297.1777	-0.000176
297.3886	-0.000303
297.5995	0.001133
297.8105	0.000394
298.0215	-0.001844
298.2325	-0.000788
298.4435	-0.001443
298.6545	-0.000472
298.8656	-0.000070
299.0766	0.000352
299.2877	-0.000472
299.4988	-0.000176
299.7099	-0.001105
299.9210	-0.000450
300.1321	0.000352
300.3432	0.001281
300.5544	-0.001063
300.7655	0.000500
300.9767	-0.000662
301.1879	0.001344
301.3991	0.000795
301.6103	-0.000155
301.8215	-0.000387
302.0328	-0.000028
302.2441	-0.000704
302.4553	-0.000324
302.6666	-0.000028
302.8779	-0.000260
303.0892	-0.000260
303.3006	0.000099
303.5119	-0.000345
303.7233	-0.000788
303.9346	0.000141
304.1460	-0.000598
304.3574	0.000647
304.5688	-0.001485
304.7803	0.000500
304.9917	0.000162
305.2031	-0.000493
305.4146	0.001450
305.6261	0.000647
305.8376	-0.000662
306.0491	-0.000556
306.2606	0.000584
306.4722	0.000183
306.6837	0.000394
306.8953	-0.000028
307.1069	0.001619
307.3184	0.000141
307.5301	-0.000303
307.7417	-0.000683
307.9533	0.001091
308.1650	-0.001211
308.3766	0.001175
308.5883	-0.000239
308.8000	0.000120
309.0117	-0.000978
309.2234	-0.000619
309.4351	0.000035
309.6469	-0.001063
309.8586	0.001830
310.0704	0.001112
310.2822	0.000373
310.4940	0.001070
310.7058	0.000457
310.9176	-0.000662
311.1295	-0.000725
311.3413	0.000711
311.5532	-0.000303
311.7651	-0.000070
311.9770	0.000099
312.1889	0.000479
312.4008	0.000732
312.6127	0.000816
312.8247	0.000077
313.0366	0.000035
313.2486	-0.001633
313.4606	-0.000704
313.6726	-0.001379
313.8846	0.000880
314.0967	-0.001253
314.3087	-0.000239
314.5208	0.000225
314.7328	0.000816
314.9449	-0.000049
315.1570	-0.000704
315.3692	0.001703
315.5813	-0.000366
315.7934	-0.000366
316.0056	0.000711
316.2177	0.000373
316.4299	-0.000788
316.6421	0.000436
316.8543	-0.000662
317.0666	-0.000873
317.2788	0.000690
317.4911	0.001323
317.7033	0.000795
317.9156	0.000246
318.1279	-0.000197
318.3402	0.000014
318.5525	-0.000366
318.7649	-0.000155
318.9772	-0.000746
319.1896	0.000647
319.4019	-0.000873
319.6143	0.000014
319.8267	0.001091
320.0392	-0.000303
320.2516	0.000542
320.4640	-0.000830
320.6765	0.000753
320.8890	0.000267
321.1014	0.000943
321.3139	-0.000894
321.5265	0.000647
321.7390	-0.000239
321.9515	-0.000324
322.1641	-0.000577
322.3766	-0.000113
322.5892	-0.001316
322.8018	0.001091
323.0144	0.000563
323.2270	0.000626
323.4397	0.000099
323.6523	-0.000556
323.8650	-0.000134
324.0777	0.001154
324.2904	-0.000472
324.5031	0.000521
324.7158	-0.000324
324.9285	-0.000683
325.1412	-0.000324
325.3540	0.000394
325.5668	0.000457
325.7796	0.000838
325.9924	-0.000303
326.2052	0.000922
326.4180	-0.000598
326.6308	-0.001612
326.8437	0.000267
327.0566	-0.001105
327.2694	-0.000493
327.4823	0.001598
327.6952	-0.001232
327.9082	0.001175
328.1211	-0.000662
328.3340	0.001028
328.5470	-0.000577
328.7600	0.000542
328.9730	-0.000746
329.1860	0.000120
329.3990	0.000014
329.6120	0.001112
329.8251	-0.000556
330.0381	0.000816
330.2512	-0.001379
330.4643	-0.000683
330.6774	0.000183
330.8905	-0.001105
331.1036	0.000035
331.3167	-0.000091
331.5299	-0.000662
331.7431	-0.000007
331.9562	0.000901
332.1694	0.000204
332.3826	-0.000134
332.5959	0.000352
332.8091	-0.001675
333.0223	0.000373
333.2356	-0.000619
333.4489	0.000626
333.6622	-0.000957
333.8755	-0.000514
334.0888	0.000500
334.3021	-0.000535
334.5154	-0.000028
334.7288	-0.000007
334.9422	-0.000239
335.1555	0.000331
335.3689	-0.000134
335.5823	0.000479
335.7958	0.000711
336.0092	0.000563
336.2227	-0.000387
336.4361	0.000099
336.6496	-0.001569
336.8631	-0.001506
337.0766	-0.000852
337.2901	0.002463
337.5036	-0.000303
337.7172	-0.000197
337.9307	-0.000239
338.1443	-0.000091
338.3579	0.000711
338.5715	0.000753
338.7851	-0.000725
338.9987	-0.000640
339.2124	-0.000704
339.4260	0.000289
339.6397	-0.000239
339.8533	-0.000091
340.0670	-0.000387
340.2807	0.000457
340.4945	0.000394
340.7082	-0.000830
340.9219	0.000922
341.1357	0.000795
341.3495	0.000753
341.5633	0.001534
341.7771	-0.000640
341.9909	0.000373
342.2047	-0.000662
342.4185	-0.001422
342.6324	-0.000070
342.8463	0.000859
343.0601	-0.000767
343.2740	-0.000640
343.4879	0.000626
343.7019	0.001175
343.9158	0.000204
344.1297	0.000457
344.3437	0.000099
344.5577	0.000859
344.7717	-0.000091
344.9857	0.000732
345.1997	0.000584
345.4137	-0.000704
345.6277	0.000056
345.8418	0.000077
346.0559	-0.000366
346.2699	-0.000366
346.4840	-0.000493
346.6981	0.000289
346.9123	-0.000176
347.1264	0.001006
347.3406	0.001492
347.5547	0.000774
347.7689	0.000859
347.9831	-0.001379
348.1973	0.001323
348.4115	0.000584
348.6257	0.000267
348.8400	-0.000957
349.0542	-0.001168
349.2685	0.000014
349.4828	0.001471
349.6971	-0.001506
349.9114	-0.001147
350.1257	0.001028
350.3400	-0.000619
350.5544	-0.000260
350.7687	-0.001443
350.9831	0.001154
351.1975	-0.000704
351.4119	0.000647
351.6263	-0.000450
351.8407	-0.001189
352.0552	-0.001063
352.2696	0.000035
352.4841	0.000563
352.6986	0.000500
352.9131	0.000352
353.1276	-0.000260
353.3421	0.001006
353.5566	0.001513
353.7712	-0.000260
353.9858	-0.000303
354.2003	-0.000894
354.4149	-0.000450
354.6295	-0.000408
354.8441	0.000753
355.0588	0.000795
355.2734	-0.000535
355.4881	0.000457
355.7027	0.000880
355.9174	-0.000809
356.1321	0.000310
356.3468	-0.001189
356.5615	0.000901
356.7763	-0.000408
356.9910	-0.000028
357.2058	0.000415
357.4206	-0.000894
357.6353	-0.000091
357.8501	0.001091
358.0650	-0.000640
358.2798	-0.000809
358.4946	-0.000450
358.7095	0.000056
358.9243	-0.001274
359.1392	-0.000049
359.3541	0.000310
359.5690	0.000605
359.7839	-0.000070
359.9989	0.000415
360.2138	-0.001042
360.4288	0.000626
360.6438	0.000753
360.8587	0.000373
361.0737	-0.001063
361.2888	-0.000577
361.5038	-0.000091
361.7188	-0.000260
361.9339	-0.000704
362.1489	-0.000218
362.3640	-0.000873
362.5791	0.000162
362.7942	-0.000408
363.0093	-0.000028
363.2245	-0.000303
363.4396	0.001408
363.6548	0.002843
363.8699	0.000521
364.0851	-0.001844
364.3003	-0.000429
364.5155	-0.000725
364.7308	-0.000239
364.9460	0.000014
365.1612	0.002337
365.3765	-0.001021
365.5918	-0.000662
365.8071	0.000099
366.0224	-0.000704
366.2377	-0.000303
366.4530	-0.000282
366.6684	-0.000155
366.8837	0.000246
367.0991	-0.000493
367.3145	0.000732
367.5299	-0.000324
367.7453	0.001196
367.9607	0.000436
368.1761	0.000373
368.3916	-0.000725
368.6070	-0.000852
368.8225	0.000162
369.0380	0.000120
369.2535	0.000246
369.4690	0.000605
369.6845	-0.000957
369.9001	0.000521
370.1156	0.000859
370.3312	-0.000176
370.5468	0.000373
370.7624	-0.001211
370.9780	0.000394
371.1936	0.000732
371.4092	0.000457
371.6249	0.001682
371.8405	0.000436
372.0562	0.000542
372.2719	0.000563
372.4876	0.000584
372.7033	0.001260
372.9190	0.000077
373.1348	-0.001126
373.3505	0.000647
373.5663	-0.000683
373.7820	0.000521
373.9978	-0.001063
374.2136	-0.001084
374.4294	-0.000577
374.6453	-0.000725
374.8611	-0.000366
375.0770	0.001049
375.2928	-0.000915
375.5087	0.002569
375.7246	-0.000767
375.9405	0.000162
376.1564	0.001872
376.3724	-0.000577
376.5883	-0.001485
376.8043	0.000267
377.0203	0.001049
377.2362	-0.000619
377.4522	-0.000662
377.6682	0.001598
377.8843	-0.000450
378.1003	0.000669
378.3164	0.001091
378.5324	-0.000535
378.7485	-0.000619
378.9646	0.000542
379.1807	-0.000619
379.3968	0.001788
379.6129	0.000415
379.8291	0.000289
380.0452	-0.001232
380.2614	-0.000091
380.4776	0.000563
380.6938	0.000077
380.9100	-0.000113
381.1262	-0.000282
381.3424	0.000246
381.5587	0.000120
381.7749	-0.000007
381.9912	-0.001886
382.2075	0.000099
382.4238	-0.000662
382.6401	0.000669
382.8564	0.001809
383.0728	0.000141
383.2891	-0.000070
383.5055	-0.000007
383.7219	-0.000366
383.9382	0.000732
384.1546	0.002400
384.3711	0.000711
384.5875	0.000669
384.8039	0.000162
385.0204	0.001471
385.2368	0.001175
385.4533	0.000542
385.6698	0.001724
385.8863	0.001112
386.1028	0.000647
386.3194	0.001957
386.5359	0.001154
386.7525	0.000647
386.9690	0.000880
387.1856	0.000732
387.4022	0.000436
387.6188	0.002062
387.8355	0.001577
388.0521	0.002210
388.2687	0.001471
388.4854	0.000732
388.7021	0.000732
388.9188	0.001914
389.1355	0.001682
389.3522	0.002822
389.5689	0.002421
389.7856	0.003815
390.0024	0.002316
390.2192	0.003012
390.4359	0.002864
390.6527	0.003561
390.8695	0.002864
391.0863	0.005673
391.3032	0.003941
391.5200	0.005335
391.7369	0.005778
391.9537	0.005377
392.1706	0.006222
392.3875	0.005652
392.6044	0.004913
392.8213	0.007404
393.0383	0.007130
393.2552	0.008080
393.4722	0.007235
393.6891	0.005799
393.9061	0.007679
394.1231	0.008544
394.3401	0.008396
394.5572	0.008819
394.7742	0.009642
394.9912	0.009811
395.2083	0.008544
395.4254	0.010402
395.6425	0.009769
395.8596	0.010656
396.0767	0.010972
396.2938	0.011880
396.5109	0.011036
396.7281	0.012450
396.9453	0.012112
397.1624	0.013485
397.3796	0.012408
397.5968	0.014055
397.8140	0.014625
398.0313	0.014456
398.2485	0.014794
398.4658	0.015976
398.6830	0.015807
398.9003	0.018341
399.1176	0.018468
399.3349	0.016673
399.5522	0.017877
399.7696	0.017074
399.9869	0.016483
400.2043	0.017644
400.4216	0.015427
400.6390	0.017201
400.8564	0.019418
401.0738	0.020157
401.2912	0.018088
401.5087	0.020030
401.7261	0.018552
401.9436	0.020537
402.1610	0.020854
402.3785	0.019460
402.5960	0.019270
402.8135	0.020790
403.0310	0.020072
403.2486	0.020579
403.4661	0.019904
403.6837	0.022205
403.9013	0.020875
404.1189	0.023134
404.3365	0.023240
404.5541	0.025182
404.7717	0.021656
404.9893	0.023683
405.2070	0.024000
405.4246	0.026343
405.6423	0.026787
405.8600	0.026259
406.0777	0.024063
406.2954	0.025330
406.5131	0.022817
406.7309	0.023345
406.9486	0.023979
407.1664	0.024169
407.3842	0.025435
407.6020	0.024929
407.8198	0.025351
408.0376	0.024570
408.2554	0.025837
408.4733	0.025055
408.6911	0.025414
408.9090	0.025604
409.1269	0.025119
409.3448	0.025351
409.5627	0.025119
409.7806	0.027441
409.9985	0.026196
410.2165	0.027484
410.4344	0.026217
410.6524	0.025562
410.8704	0.026196
411.0884	0.026153
411.3064	0.025098
411.5244	0.026787
411.7424	0.026998
411.9605	0.027800
412.1785	0.026745
412.3966	0.028940
412.6147	0.027842
412.8328	0.028983
413.0509	0.027547
413.2690	0.030545
413.4871	0.030165
413.7053	0.030946
413.9234	0.026723
414.1416	0.026259
414.3598	0.030059
414.5780	0.029130
414.7962	0.029574
415.0144	0.029194
415.2326	0.030397
415.4509	0.028391
415.6692	0.028645
415.8874	0.029743
416.1057	0.028518
416.3240	0.028096
416.5423	0.028434
416.7606	0.028096
416.9790	0.028581
417.1973	0.028772
417.4157	0.028750
417.6341	0.028180
417.8524	0.029595
418.0708	0.030144
418.2893	0.030376
418.5077	0.028708
418.7261	0.029785
418.9446	0.030186
419.1630	0.029679
419.3815	0.028054
419.6000	0.029004
419.8185	0.030313
420.0370	0.030503
420.2555	0.030672
420.4741	0.033205
420.6926	0.033818
420.9112	0.033564
421.1298	0.033480
421.3483	0.034641
421.5669	0.033712
421.7856	0.036605
422.0042	0.037175
422.2228	0.035803
422.4415	0.033121
422.6601	0.035908
422.8788	0.033818
423.0975	0.033649
423.3162	0.034747
423.5349	0.032065
423.7536	0.034240
423.9724	0.033290
424.1911	0.032276
424.4099	0.034092
424.6287	0.031559
424.8475	0.034515
425.0663	0.030630
425.2851	0.033459
425.5039	0.031432
425.7228	0.030946
425.9416	0.029299
426.1605	0.029785
426.3793	0.029658
426.5982	0.029257
426.8171	0.029278
427.0361	0.029806
427.2550	0.031643
427.4739	0.032234
427.6929	0.031411
427.9118	0.030904
428.1308	0.029827
428.3498	0.031347
428.5688	0.029384
428.7878	0.030440
429.0068	0.031031
429.2259	0.028349
429.4449	0.032319
429.6640	0.034831
429.8831	0.035254
430.1022	0.037576
430.3213	0.033205
430.5404	0.036077
430.7595	0.036457
430.9787	0.036077
431.1978	0.033311
431.4170	0.033227
431.6362	0.030883
431.8553	0.030587
432.0745	0.027589
432.2938	0.028434
432.5130	0.026238
432.7322	0.029025
432.9515	0.027969
433.1707	0.028814
433.3900	0.029468
433.6093	0.031559
433.8286	0.033987
434.0479	0.033037
434.2673	0.034050
434.4866	0.032783
434.7059	0.029511
434.9253	0.031031
435.1447	0.030144
435.3641	0.031411
435.5835	0.029933
435.8029	0.030672
436.0223	0.030081
436.2418	0.029764
436.4612	0.032530
436.6807	0.029954
436.9001	0.029827
437.1196	0.030925
437.3391	0.029595
437.5586	0.029848
437.7782	0.030355
437.9977	0.028772
438.2173	0.029046
438.4368	0.030672
438.6564	0.029912
438.8760	0.029701
439.0956	0.030608
439.3152	0.030672
439.5348	0.030313
439.7545	0.030102
439.9741	0.028793
440.1938	0.030334
440.4135	0.030355
440.6331	0.028476
440.8528	0.027842
441.0725	0.031580
441.2923	0.034282
441.5120	0.034958
441.7318	0.035950
441.9515	0.034916
442.1713	0.032129
442.3911	0.034409
442.6109	0.035971
442.8307	0.033417
443.0505	0.031052
443.2703	0.032234
443.4902	0.032509
443.7101	0.033923
443.9299	0.031854
444.1498	0.032234
444.3697	0.031369
444.5896	0.032657
444.8095	0.031200
445.0295	0.033628
445.2494	0.031875
445.4694	0.031812
445.6894	0.029257
445.9093	0.029743
446.1293	0.030883
446.3493	0.031770
446.5694	0.032741
446.7894	0.031622
447.0094	0.030608
447.2295	0.030059
447.4496	0.030165
447.6696	0.029869
447.8897	0.028075
448.1098	0.028476
448.3300	0.025604
448.5501	0.028054
448.7702	0.026428
448.9904	0.027800
449.2106	0.027061
449.4307	0.027040
449.6509	0.028581
449.8711	0.026977
450.0914	0.028349
450.3116	0.025541
450.5318	0.026597
450.7521	0.025098
450.9724	0.025203
451.1926	0.024887
451.4129	0.026196
451.6332	0.024633
451.8535	0.023535
452.0739	0.023810
452.2942	0.023324
452.5146	0.024760
452.7349	0.023113
452.9553	0.024760
453.1757	0.021719
453.3961	0.023451
453.6165	0.023240
453.8369	0.023430
454.0574	0.020811
454.2778	0.022395
454.4983	0.020643
454.7188	0.023451
454.9393	0.020664
455.1597	0.019270
455.3803	0.021973
455.6008	0.023303
455.8213	0.022670
456.0419	0.021804
456.2624	0.018721
456.4830	0.020938
456.7036	0.022353
456.9242	0.020178
457.1448	0.021023
457.3654	0.019882
457.5860	0.021044
457.8067	0.021550
458.0274	0.020769
458.2480	0.021170
458.4687	0.022374
458.6894	0.022142
458.9101	0.022881
459.1308	0.021128
459.3516	0.019017
459.5723	0.019566
459.7931	0.019418
460.0138	0.019376
460.2346	0.018257
460.4554	0.018552
460.6762	0.021593
460.8970	0.019671
461.1178	0.019502
461.3387	0.018679
461.5595	0.019333
461.7804	0.018869
462.0013	0.015301
462.2222	0.017264
462.4431	0.014435
462.6640	0.016736
462.8849	0.015639
463.1059	0.015512
463.3268	0.015385
463.5478	0.016800
463.7687	0.016990
463.9897	0.017919
464.2107	0.016652
464.4317	0.014900
464.6528	0.017581
464.8738	0.016905
465.0948	0.016715
465.3159	0.016736
465.5370	0.018468
465.7581	0.015913
465.9792	0.017919
466.2003	0.015807
466.4214	0.016293
466.6425	0.014625
466.8637	0.015216
467.0848	0.014604
467.3060	0.013274
467.5272	0.013126
467.7484	0.014372
467.9696	0.012218
468.1908	0.013886
468.4120	0.011352
468.6333	0.013992
468.8545	0.011711
469.0758	0.011711
469.2970	0.010951
469.5183	0.011141
469.7396	0.010993
469.9610	0.011120
470.1823	0.010318
470.4036	0.010951
470.6250	0.010508
470.8463	0.009663
471.0677	0.009494
471.2891	0.009853
471.5105	0.009410
471.7319	0.009832
471.9533	0.008671
472.1748	0.009347
472.3962	0.008375
472.6177	0.009853
472.8391	0.009072
473.0606	0.010297
473.2821	0.010972
473.5036	0.010487
473.7251	0.008333
473.9467	0.008523
474.1682	0.008903
474.3898	0.007763
474.6113	0.009473
474.8329	0.008608
475.0545	0.010677
475.2761	0.009304
475.4977	0.009368
475.7193	0.007488
475.9410	0.008840
476.1626	0.010466
476.3843	0.009051
476.6060	0.009156
476.8277	0.007552
477.0494	0.008396
477.2711	0.007552
477.4928	0.006876
477.7145	0.007763
477.9363	0.006982
478.1580	0.007974
478.3798	0.008544
478.6016	0.007953
478.8234	0.008143
479.0452	0.008122
479.2670	0.007826
479.4888	0.006222
479.7107	0.006834
479.9325	0.008059
480.1544	0.008016
480.3763	0.007763
480.5982	0.005905
480.8201	0.007531
481.0420	0.007130
481.2639	0.008312
481.4859	0.007003
481.7078	0.006538
481.9298	0.005842
482.1517	0.007214
482.3737	0.006728
482.5957	0.007531
482.8177	0.006918
483.0398	0.006707
483.2618	0.007467
483.4838	0.007024
483.7059	0.006644
483.9280	0.006264
484.1501	0.006707
484.3721	0.007045
484.5943	0.006707
484.8164	0.007404
485.0385	0.006222
485.2606	0.006285
485.4828	0.009389
485.7050	0.014055
485.9271	0.018236
486.1493	0.019207
486.3715	0.016019
486.5937	0.013949
486.8160	0.010423
487.0382	0.010867
487.2605	0.011120
487.4827	0.009093
487.7050	0.007636
487.9273	0.005377
488.1496	0.004955
488.3719	0.006749
488.5942	0.005356
488.8165	0.004110
489.0389	0.004174
489.2612	0.004765
489.4836	0.004701
489.7060	0.004511
489.9284	0.004406
490.1508	0.004575
490.3732	0.004089
490.5956	0.004723
490.8180	0.005208
491.0405	0.004913
491.2630	0.005166
491.4854	0.003667
491.7079	0.004258
491.9304	0.003857
492.1529	0.005145
492.3755	0.003815
492.5980	0.004216
492.8205	0.004258
493.0431	0.005250
493.2657	0.004321
493.4882	0.003308
493.7108	0.004131
493.9334	0.003371
494.1561	0.003899
494.3787	0.003435
494.6013	0.002104
494.8240	0.003223
495.0466	0.004342
495.2693	0.005609
495.4920	0.005271
495.7147	0.004638
495.9374	0.004131
496.1601	0.002717
496.3829	0.003477
496.6056	0.003646
496.8284	0.002801
497.0511	0.003603
497.2739	0.004532
497.4967	0.003561
497.7195	0.003223
497.9423	0.004913
498.1652	0.002083
498.3880	0.002569
498.6109	0.002611
498.8337	0.002463
499.0566	0.004406
499.2795	0.002907
499.5024	0.002780
499.7253	0.004427
499.9482	0.003456
500.1712	0.002759
500.3941	0.002210
500.6171	0.004807
500.8400	0.002991
501.0630	0.003582
501.2860	0.002506
501.5090	0.003772
501.7320	0.002548
501.9551	0.003730
502.1781	0.003603
502.4012	0.001492
502.6242	0.002527
502.8473	0.004131
503.0704	0.002696
503.2935	0.003646
503.5166	0.004279
503.7397	0.002125
503.9628	0.002041
504.1860	0.002801
504.4092	0.002928
504.6323	0.002886
504.8555	0.002147
505.0787	0.001809
505.3019	0.003941
505.5251	0.002738
505.7483	0.002379
505.9716	0.002484
506.1948	0.002632
506.4181	0.002674
506.6414	0.001302
506.8647	0.002273
507.0880	0.002231
507.3113	0.003688
507.5346	0.002484
507.7579	0.002379
507.9813	0.002104
508.2046	0.001914
508.4280	0.002653
508.6514	0.002738
508.8748	0.003392
509.0982	0.002379
509.3216	0.002801
509.5450	0.002738
509.7685	0.002696
509.9919	0.003097
510.2154	0.001999
510.4388	0.003245
510.6623	0.003941
510.8858	0.002527
511.1093	0.000204
511.3329	0.003582
511.5564	0.003266
511.7799	0.004110
512.0035	0.002379
512.2270	0.001957
512.4506	0.002337
512.6742	0.002696
512.8978	0.001534
513.1214	0.002696
513.3451	0.004005
513.5687	0.002316
513.7923	0.002316
514.0160	0.004068
514.2397	0.000943
514.4634	0.001914
514.6871	0.002189
514.9108	0.002527
515.1345	0.002252
515.3582	0.001408
515.5819	0.002463
515.8057	0.001682
516.0295	0.003097
516.2532	0.003730
516.4770	0.002674
516.7008	0.001703
516.9246	0.001893
517.1485	0.004174
517.3723	0.001914
517.5961	0.002316
517.8200	0.001260
518.0439	0.002294
518.2677	0.002506
518.4916	0.002970
518.7155	0.002949
518.9395	0.003772
519.1634	0.002759
519.3873	0.002062
519.6113	0.003160
519.8352	0.002928
520.0592	0.001872
520.2832	0.003815
520.5072	0.002041
520.7312	0.001703
520.9552	0.003223
521.1792	0.002759
521.4033	0.002970
521.6273	0.003055
521.8514	0.003223
522.0755	0.002379
522.2996	0.003603
522.5237	0.002189
522.7478	0.002801
522.9719	0.003223
523.1960	0.003498
523.4202	0.001302
523.6443	0.003033
523.8685	0.003730
524.0927	0.004068
524.3169	0.004342
524.5411	0.004068
524.7653	0.003603
524.9895	0.002928
525.2138	0.003181
525.4380	0.003097
525.6623	0.002674
525.8865	0.005229
526.1108	0.004068
526.3351	0.003688
526.5594	0.004110
526.7837	0.004617
527.0081	0.002759
527.2324	0.004342
527.4568	0.003751
527.6811	0.004638
527.9055	0.003371
528.1299	0.004511
528.3543	0.004089
528.5787	0.004427
528.8031	0.004976
529.0276	0.004976
529.2520	0.004744
529.4765	0.003456
529.7009	0.004680
529.9254	0.004596
530.1499	0.004786
530.3744	0.005694
530.5989	0.005250
530.8234	0.005440
531.0480	0.004364
531.2725	0.005145
531.4971	0.004701
531.7217	0.004406
531.9462	0.003181
532.1708	0.005673
532.3954	0.006053
532.6200	0.005926
532.8447	0.005884
533.0693	0.005314
533.2940	0.006010
533.5186	0.004532
533.7433	0.006602
533.9680	0.004976
534.1927	0.006728
534.4174	0.008037
534.6421	0.006222
534.8668	0.008291
535.0916	0.007172
535.3163	0.007869
535.5411	0.007805
535.7659	0.009262
535.9907	0.007151
536.2155	0.007552
536.4403	0.007404
536.6651	0.007298
536.8899	0.005377
537.1148	0.006391
537.3396	0.009494
537.5645	0.008037
537.7894	0.006961
538.0143	0.007763
538.2392	0.008291
538.4641	0.009241
538.6890	0.009347
538.9139	0.010698
539.1389	0.009389
539.3638	0.008396
539.5888	0.009072
539.8138	0.009262
540.0388	0.009874
540.2638	0.010677
540.4888	0.009811
540.7138	0.010381
540.9389	0.011395
541.1639	0.010550
541.3890	0.011352
541.6140	0.012049
541.8391	0.011289
542.0642	0.013358
542.2893	0.013823
542.5144	0.011395
542.7396	0.012408
542.9647	0.011437
543.1899	0.011479
543.4150	0.012746
543.6402	0.013358
543.8654	0.012725
544.0906	0.013210
544.3158	0.014351
544.5410	0.013907
544.7662	0.015174
544.9915	0.014794
545.2167	0.014752
545.4420	0.014372
545.6673	0.014562
545.8926	0.014161
546.1179	0.015068
546.3432	0.015047
546.5685	0.014815
546.7938	0.013210
547.0192	0.016251
547.2445	0.015026
547.4699	0.016040
547.6953	0.017307
547.9206	0.018426
548.1460	0.020453
548.3715	0.018236
548.5969	0.020178
548.8223	0.020030
549.0478	0.018489
549.2732	0.018046
549.4987	0.017222
549.7242	0.017644
549.9496	0.020305
550.1751	0.019228
550.4007	0.017201
550.6262	0.017285
550.8517	0.018362
551.0773	0.018679
551.3028	0.016652
551.5284	0.018996
551.7540	0.019165
551.9796	0.021128
552.2052	0.022754
552.4308	0.022163
552.6564	0.023071
552.8820	0.021529
553.1077	0.021445
553.3333	0.023789
553.5590	0.022311
553.7847	0.023071
554.0104	0.022712
554.2361	0.024169
554.4618	0.021255
554.6875	0.021234
554.9132	0.021952
555.1390	0.023556
555.3648	0.024274
555.5905	0.023915
555.8163	0.025689
556.0421	0.026597
556.2679	0.027103
556.4937	0.027505
556.7195	0.024781
556.9454	0.025435
557.1712	0.025457
557.3971	0.023873
557.6230	0.026723
557.8488	0.025435
558.0747	0.027969
558.3006	0.027526
558.5266	0.026111
558.7525	0.024654
558.9784	0.025414
559.2044	0.024591
559.4303	0.025224
559.6563	0.026343
559.8823	0.027230
560.1083	0.029152
560.3343	0.030102
560.5603	0.030925
560.7863	0.032171
561.0124	0.033543
561.2384	0.033374
561.4645	0.035359
561.6905	0.036183
561.9166	0.034177
562.1427	0.032762
562.3688	0.031770
562.5949	0.031791
562.8211	0.034852
563.0472	0.034493
563.2733	0.032635
563.4995	0.034705
563.7257	0.035148
563.9519	0.035971
564.1781	0.037112
564.4043	0.036098
564.6305	0.041398
564.8567	0.038568
565.0829	0.038885
565.3092	0.041588
565.5355	0.039899
565.7617	0.041524
565.9880	0.040004
566.2143	0.041102
566.4406	0.041778
566.6669	0.042834
566.8932	0.043467
567.1196	0.045536
567.3459	0.050772
567.5723	0.055776
567.7987	0.055101
568.0250	0.055692
568.2514	0.059028
568.4778	0.060992
568.7043	0.063568
568.9307	0.067938
569.1571	0.071654
569.3836	0.077693
569.6100	0.087807
569.8365	0.096801
570.0630	0.104445
570.2895	0.104930
570.5160	0.101784
570.7425	0.107020
570.9690	0.110441
571.1956	0.123933
571.4221	0.125875
571.6487	0.128303
571.8752	0.133582
572.1018	0.136728
572.3284	0.138692
572.5550	0.130605
572.7816	0.121758
573.0082	0.118380
573.2349	0.129169
573.4615	0.140824
573.6882	0.148826
573.9149	0.154823
574.1415	0.159721
574.3682	0.168821
574.5949	0.173678
574.8216	0.174755
575.0484	0.174269
575.2751	0.178027
575.5018	0.172221
575.7286	0.168526
575.9554	0.161748
576.1821	0.157525
576.4089	0.164620
576.6357	0.172643
576.8626	0.182757
577.0894	0.186367
577.3162	0.192195
577.5431	0.200957
577.7699	0.218017
577.9968	0.247873
578.2237	0.241180
578.4505	0.228532
578.6774	0.216476
578.9044	0.201358
579.1313	0.194095
579.3582	0.194348
579.5851	0.202857
579.8121	0.209508
580.0391	0.210923
580.2660	0.214238
580.4930	0.212591
580.7200	0.202984
580.9470	0.208220
581.1741	0.242045
581.4011	0.294472
581.6281	0.325932
581.8552	0.323018
582.0822	0.318563
582.3093	0.313305
582.5364	0.289003
582.7635	0.263751
582.9906	0.244093
583.2177	0.222958
583.4449	0.208622
583.6720	0.198635
583.8991	0.196038
584.1263	0.195531
584.3535	0.201886
584.5807	0.202245
584.8079	0.215441
585.0351	0.226632
585.2623	0.236577
585.4895	0.237780
585.7167	0.239322
585.9440	0.230242
586.1713	0.221248
586.3985	0.206869
586.6258	0.200936
586.8531	0.202604
587.0804	0.217490
587.3077	0.226547
587.5350	0.232903
587.7624	0.229187
587.9897	0.219981
588.2171	0.210649
588.4445	0.203470
588.6718	0.203512
588.8992	0.189619
589.1266	0.178112
589.3540	0.171630
589.5815	0.165950
589.8089	0.165443
590.0363	0.161790
590.2638	0.154569
590.4913	0.150241
590.7187	0.146926
590.9462	0.141479
591.1737	0.133498
591.4012	0.130183
591.6288	0.129085
591.8563	0.134574
592.0838	0.131956
592.3114	0.137594
592.5389	0.156216
592.7665	0.182778
592.9941	0.201950
593.2217	0.203364
593.4493	0.202667
593.6769	0.199247
593.9046	0.196270
594.1322	0.185375
594.3598	0.172559
594.5875	0.171587
594.8152	0.178935
595.0429	0.195615
595.2705	0.200366
595.4983	0.194665
595.7260	0.189218
595.9537	0.174733
596.1814	0.168716
596.4092	0.156069
596.6369	0.147222
596.8647	0.143485
597.0925	0.143780
597.3203	0.153070
597.5481	0.149798
597.7759	0.154084
598.0037	0.147222
598.2315	0.138966
598.4594	0.141774
598.6872	0.156554
598.9151	0.179505
599.1430	0.187613
599.3709	0.186515
599.5988	0.179801
599.8267	0.180350
600.0546	0.183580
600.2825	0.188774
600.5105	0.185122
600.7384	0.186114
600.9664	0.185122
601.1944	0.187339
601.4223	0.183981
601.6503	0.177056
601.8783	0.174079
602.1064	0.168420
602.3344	0.165950
602.5624	0.171566
602.7905	0.172601
603.0185	0.178724
603.2466	0.180878
603.4747	0.189112
603.7028	0.189091
603.9309	0.187001
604.1590	0.177985
604.3871	0.170067
604.6152	0.163839
604.8434	0.156934
605.0715	0.156512
605.2997	0.157462
605.5279	0.170025
605.7561	0.173720
605.9843	0.179716
606.2125	0.172875
606.4407	0.164366
606.6689	0.157842
606.8972	0.159785
607.1254	0.156153
607.3537	0.161157
607.5819	0.161242
607.8102	0.158138
608.0385	0.158961
608.2668	0.153155
608.4951	0.146356
608.7235	0.148235
608.9518	0.143991
609.1801	0.140845
609.4085	0.134553
609.6369	0.133096
609.8653	0.138375
610.0936	0.150072
610.3220	0.150663
610.5505	0.149080
610.7789	0.141479
611.0073	0.139198
611.2357	0.140909
611.4642	0.135503
611.6927	0.140930
611.9211	0.139156
612.1496	0.134786
612.3781	0.129845
612.6066	0.128662
612.8351	0.132547
613.0637	0.134131
613.2922	0.132336
613.5208	0.130225
613.7493	0.125896
613.9779	0.127607
614.2065	0.126340
614.4351	0.128472
614.6637	0.125369
614.8923	0.127733
615.1209	0.128219
615.3495	0.129866
615.5782	0.130225
615.8068	0.132231
616.0355	0.128113
616.2642	0.122793
616.4929	0.115635
616.7216	0.115086
616.9503	0.110800
617.1790	0.110378
617.4077	0.109955
617.6365	0.111391
617.8652	0.107506
618.0940	0.112869
618.3227	0.105289
618.5515	0.103748
618.7803	0.099124
619.0091	0.093761
619.2379	0.088968
619.4667	0.089812
619.6956	0.090446
619.9244	0.093317
620.1533	0.095365
620.3821	0.099884
620.6110	0.096611
620.8399	0.089453
621.0688	0.081219
621.2977	0.077376
621.5266	0.074674
621.7556	0.075877
621.9845	0.079171
622.2135	0.083035
622.4424	0.086244
622.6714	0.085273
622.9004	0.087553
623.1294	0.088334
623.3584	0.091523
623.5874	0.090530
623.8164	0.089327
624.0454	0.085505
624.2745	0.086413
624.5035	0.088377
624.7326	0.092346
624.9617	0.088968
625.1908	0.085590
625.4199	0.083689
625.6490	0.080649
625.8781	0.081895
626.1072	0.079065
626.3364	0.074167
626.5655	0.071063
626.7947	0.073723
627.0238	0.072372
627.2530	0.070409
627.4822	0.072224
627.7114	0.071105
627.9406	0.069522
628.1698	0.064961
628.3991	0.058922
628.6283	0.059176
628.8576	0.058796
629.0868	0.058986
629.3161	0.060253
629.5454	0.063293
629.7747	0.061308
630.0040	0.064032
630.2333	0.059598
630.4626	0.059767
630.6920	0.058922
630.9213	0.057191
631.1507	0.055249
631.3801	0.054974
631.6094	0.052673
631.8388	0.052440
632.0682	0.049843
632.2976	0.050097
632.5271	0.049970
632.7565	0.046212
632.9859	0.045072
633.2154	0.046507
633.4448	0.046233
633.6743	0.046740
633.9038	0.043699
634.1333	0.043171
634.3628	0.044037
634.5923	0.044121
634.8218	0.043235
635.0514	0.040743
635.2809	0.040427
635.5105	0.041060
635.7400	0.039540
635.9696	0.042411
636.1992	0.043340
636.4288	0.044143
636.6584	0.047056
636.8880	0.044037
637.1177	0.043530
637.3473	0.044649
637.5770	0.041356
637.8066	0.039434
638.0363	0.042263
638.2660	0.042010
638.4957	0.042411
638.7254	0.041567
638.9551	0.042791
639.1848	0.041630
639.4145	0.040638
639.6443	0.040683
639.8740	0.039549
640.1038	0.038234
640.3336	0.037920
640.5633	0.036090
640.7931	0.034601
641.0229	0.034680
641.2528	0.035034
641.4826	0.033302
641.7124	0.031851
641.9423	0.032395
642.1721	0.030349
642.4020	0.030779
642.6319	0.030867
642.8617	0.028361
643.0916	0.031412
643.3216	0.028263
643.5515	0.029112
643.7814	0.030101
644.0113	0.029417
644.2413	0.028740
644.4712	0.029441
644.7012	0.028256
644.9312	0.027272
645.1612	0.026241
645.3912	0.026762
645.6212	0.026119
645.8512	0.026312
646.0812	0.026609
646.3113	0.025566
646.5413	0.024123
646.7714	0.025021
647.0015	0.024145
647.2316	0.024286
647.4616	0.024035
647.6918	0.023057
647.9219	0.025177
648.1520	0.030741
648.3821	0.030597
648.6123	0.033192
648.8424	0.033781
649.0726	0.034876
649.3028	0.034833
649.5329	0.032465
649.7631	0.029449
649.9933	0.031636
650.2236	0.032046
650.4538	0.029453
650.6840	0.027991
650.9143	0.028323
651.1445	0.027197
651.3748	0.029431
651.6051	0.028659
651.8354	0.030857
652.0657	0.033520
652.2960	0.031520
652.5263	0.032363
652.7566	0.031634
652.9870	0.031604
653.2173	0.033677
653.4477	0.032300
653.6780	0.031498
653.9084	0.031546
654.1388	0.031821
654.3692	0.032508
654.5996	0.035064
654.8300	0.042464
655.0605	0.065224
655.2909	0.188911
655.5213	0.530518
655.7518	0.959023
655.9823	1.000000
656.2128	1.000000
656.4433	1.000000
656.6738	1.000000
656.9043	1.000000
657.1348	0.879466
657.3653	0.720618
657.5959	0.618312
657.8264	0.534726
658.0570	0.488145
658.2875	0.456303
658.5181	0.415316
658.7487	0.385153
658.9793	0.368596
659.2099	0.333755
659.4406	0.251727
659.6712	0.170906
659.9018	0.097792
660.1325	0.060262
660.3632	0.037680
660.5938	0.031139
660.8245	0.025722
661.0552	0.025536
661.2859	0.023206
661.5166	0.022596
661.7474	0.020669
661.9781	0.022800
662.2088	0.022410
662.4396	0.020989
662.6704	0.021676
662.9011	0.021784
663.1319	0.021449
663.3627	0.021933
663.5935	0.021457
663.8243	0.019466
664.0552	0.021342
664.2860	0.021401
664.5168	0.021513
664.7477	0.024559
664.9786	0.023912
665.2094	0.023529
665.4403	0.022792
665.6712	0.022915
665.9021	0.024062
666.1330	0.022299
666.3640	0.022709
666.5949	0.021568
666.8259	0.020063
667.0568	0.020400
667.2878	0.021611
667.5188	0.020939
667.7497	0.021549
667.9807	0.022694
668.2117	0.022068
668.4428	0.020917
668.6738	0.021424
668.9048	0.020621
669.1359	0.019524
669.3669	0.020980
669.5980	0.021170
669.8291	0.022585
670.0602	0.021382
670.2913	0.021339
670.5224	0.023599
670.7535	0.022437
670.9846	0.021318
671.2157	0.022838
671.4469	0.027737
671.6781	0.028054
671.9092	0.030397
672.1404	0.033015
672.3716	0.034261
672.6028	0.037407
672.8340	0.034620
673.0652	0.033628
673.2964	0.030102
673.5277	0.029616
673.7589	0.027399
673.9902	0.030756
674.2214	0.027758
674.4527	0.026871
674.6840	0.025393
674.9153	0.026111
675.1466	0.027209
675.3779	0.027251
675.6093	0.026027
675.8406	0.026153
676.0719	0.025182
676.3033	0.023936
676.5347	0.027272
676.7661	0.023957
676.9974	0.023050
677.2288	0.024274
677.4602	0.024760
677.6917	0.028223
677.9231	0.029658
678.1545	0.029088
678.3860	0.028328
678.6174	0.029701
678.8489	0.030587
679.0804	0.032129
679.3119	0.031495
679.5434	0.034768
679.7749	0.034789
680.0064	0.034071
680.2379	0.033966
680.4694	0.033966
680.7010	0.035401
680.9325	0.034325
681.1641	0.034472
681.3957	0.036732
681.6273	0.035338
681.8589	0.035296
682.0905	0.032783
682.3221	0.032108
682.5537	0.032298
682.7854	0.029236
683.0170	0.029912
683.2487	0.031453
683.4803	0.032699
683.7120	0.032340
683.9437	0.032889
684.1754	0.032023
684.4071	0.034472
684.6388	0.035570
684.8705	0.039666
685.1023	0.040321
685.3340	0.042770
685.5658	0.044079
685.7975	0.043045
686.0293	0.044417
686.2611	0.043340
686.4929	0.044312
686.7247	0.042306
686.9565	0.043045
687.1883	0.045494
687.4202	0.044396
687.6520	0.045325
687.8838	0.041947
688.1157	0.040870
688.3476	0.037787
688.5795	0.039561
688.8114	0.037344
689.0433	0.035655
689.2752	0.037407
689.5071	0.037682
689.7390	0.036014
689.9710	0.035085
690.2029	0.032868
690.4349	0.033480
690.6669	0.030524
690.8988	0.034071
691.1308	0.037914
691.3628	0.038484
691.5948	0.038991
691.8269	0.036161
692.0589	0.037724
692.2909	0.037576
692.5230	0.037027
692.7550	0.038167
692.9871	0.038062
693.2192	0.037386
693.4513	0.039286
693.6834	0.040236
693.9155	0.037682
694.1476	0.034662
694.3797	0.033184
694.6119	0.032276
694.8440	0.033944
695.0762	0.034325
695.3083	0.032657
695.5405	0.031833
695.7727	0.028877
696.0049	0.029130
696.2371	0.029489
696.4693	0.030714
696.7016	0.037196
696.9338	0.037998
697.1660	0.039033
697.3983	0.038294
697.6306	0.036753
697.8628	0.036246
698.0951	0.038041
698.3274	0.038442
698.5597	0.036183
698.7920	0.035064
699.0243	0.036077
699.2567	0.035718
699.4890	0.033480
699.7214	0.034346
699.9537	0.032023
700.1861	0.031516
700.4185	0.030798
700.6509	0.032466
700.8833	0.030418
701.1157	0.028054
701.3481	0.027631
701.5806	0.027758
701.8130	0.026681
702.0454	0.029046
702.2779	0.029109
702.5104	0.029489
702.7429	0.031263
702.9753	0.028750
703.2078	0.028349
703.4403	0.029088
703.6729	0.027969
703.9054	0.026259
704.1379	0.026618
704.3705	0.027294
704.6030	0.027040
704.8356	0.025541
705.0682	0.023028
705.3008	0.026681
705.5334	0.023535
705.7660	0.022205
705.9986	0.023957
706.2312	0.027716
706.4638	0.029637
706.6965	0.035655
706.9291	0.032255
707.1618	0.037872
707.3945	0.036584
707.6272	0.038526
707.8599	0.038378
708.0926	0.038484
708.3253	0.036795
708.5580	0.037724
708.7907	0.037154
709.0235	0.034325
709.2562	0.034810
709.4890	0.033522
709.7217	0.031896
709.9545	0.033860
710.1873	0.031643
710.4201	0.033797
710.6529	0.032825
710.8857	0.032657
711.1186	0.034134
711.3514	0.030988
711.5842	0.030313
711.8171	0.031157
712.0500	0.030503
712.2828	0.028560
712.5157	0.028729
712.7486	0.028645
712.9815	0.029173
713.2144	0.029004
713.4474	0.030693
713.6803	0.034261
713.9132	0.032023
714.1462	0.031347
714.3791	0.033058
714.6121	0.035232
714.8451	0.035591
715.0781	0.033501
715.3111	0.034831
715.5441	0.033902
715.7771	0.031516
716.0102	0.032276
716.2432	0.030608
716.4762	0.029468
716.7093	0.030798
716.9424	0.029658
717.1754	0.029574
717.4085	0.026259
717.6416	0.026407
717.8747	0.028455
718.1078	0.030102
718.3410	0.030461
718.5741	0.028455
718.8072	0.029743
719.0404	0.029088
719.2736	0.029511
719.5067	0.028814
719.7399	0.029088
719.9731	0.027695
720.2063	0.028624
720.4395	0.028286
720.6727	0.029257
720.9060	0.026196
721.1392	0.029194
721.3725	0.030440
721.6057	0.028497
721.8390	0.030313
722.0723	0.028581
722.3055	0.029025
722.5388	0.028772
722.7721	0.025858
723.0055	0.026470
723.2388	0.029025
723.4721	0.026808
723.7055	0.028793
723.9388	0.030503
724.1722	0.025224
724.4056	0.025393
724.6389	0.026639
724.8723	0.030545
725.1057	0.029489
725.3391	0.031495
725.5726	0.030630
725.8060	0.033248
726.0394	0.033079
726.2729	0.034557
726.5063	0.033902
726.7398	0.032825
726.9733	0.030756
727.2068	0.032657
727.4403	0.033712
727.6738	0.032319
727.9073	0.033438
728.1408	0.033079
728.3743	0.034789
728.6079	0.034325
728.8414	0.032593
729.0750	0.034979
729.3086	0.033332
729.5421	0.037281
729.7757	0.035570
730.0093	0.035401
730.2429	0.036394
730.4766	0.036985
730.7102	0.038737
730.9438	0.040595
731.1775	0.042897
731.4111	0.043024
731.6448	0.041250
731.8785	0.045008
732.1122	0.040912
732.3458	0.040300
732.5795	0.041968
732.8133	0.044121
733.0470	0.043699
733.2807	0.040659
733.5145	0.045980
733.7482	0.047479
733.9820	0.047436
734.2157	0.051131
734.4495	0.052145
734.6833	0.051385
734.9171	0.048745
735.1509	0.047246
735.3847	0.046001
735.6185	0.047943
735.8524	0.049590
736.0862	0.048703
736.3201	0.047584
736.5539	0.047035
736.7878	0.047753
737.0217	0.050160
737.2556	0.050371
737.4895	0.046296
737.7234	0.043847
737.9573	0.042686
738.1912	0.041736
738.4252	0.040785
738.6591	0.040764
738.8931	0.041883
739.1271	0.045409
739.3610	0.047690
739.5950	0.045980
739.8290	0.046676
740.0630	0.044670
740.2970	0.041968
740.5310	0.040553
740.7651	0.037872
740.9991	0.038442
741.2332	0.035655
741.4672	0.034747
741.7013	0.031115
741.9354	0.035359
742.1695	0.032108
742.4036	0.035908
742.6377	0.034493
742.8718	0.034662
743.1059	0.032952
743.3400	0.032952
743.5742	0.031073
743.8083	0.030440
744.0425	0.027758
744.2767	0.028539
744.5108	0.029701
744.7450	0.031326
744.9792	0.030672
745.2134	0.027019
745.4477	0.027990
745.6819	0.028054
745.9161	0.029342
746.1504	0.029194
746.3846	0.026386
746.6189	0.027716
746.8532	0.028328
747.0874	0.029616
747.3217	0.032044
747.5560	0.032171
747.7903	0.031390
748.0247	0.030102
748.2590	0.029173
748.4933	0.026322
748.7277	0.026956
748.9620	0.030081
749.1964	0.029848
749.4308	0.033121
749.6652	0.033396
749.8995	0.035612
750.1339	0.036964
750.3684	0.039202
750.6028	0.041250
750.8372	0.038210
751.0717	0.037323
751.3061	0.038357
751.5406	0.037428
751.7750	0.037133
752.0095	0.042137
752.2440	0.039181
752.4785	0.038590
752.7130	0.037956
752.9475	0.033691
753.1820	0.037302
753.4166	0.036985
753.6511	0.040849
753.8856	0.042496
754.1202	0.041862
754.3548	0.041630
754.5894	0.039899
754.8239	0.040849
755.0585	0.040870
755.2931	0.040891
755.5278	0.041482
755.7624	0.041588
755.9970	0.042242
756.2317	0.045515
756.4663	0.047732
756.7010	0.049527
756.9356	0.050371
757.1703	0.050899
757.4050	0.055565
757.6397	0.058120
757.8744	0.060295
758.1091	0.058205
758.3438	0.054235
758.5786	0.057170
758.8133	0.051533
759.0481	0.055565
759.2828	0.055840
759.5176	0.058015
759.7524	0.057867
759.9872	0.060569
760.2220	0.061583
760.4568	0.063019
760.6916	0.062639
760.9264	0.062512
761.1613	0.059725
761.3961	0.059493
761.6310	0.052419
761.8658	0.052166
762.1007	0.053264
762.3356	0.048640
762.5705	0.049569
762.8054	0.048450
763.0403	0.048661
763.2752	0.050287
763.5101	0.049970
763.7450	0.051068
763.9800	0.048112
764.2149	0.053137
764.4499	0.055185
764.6849	0.056241
764.9198	0.060337
765.1548	0.057149
765.3898	0.056262
765.6248	0.055544
765.8599	0.051870
766.0949	0.049696
766.3299	0.046212
766.5650	0.042939
766.8000	0.042897
767.0351	0.042052
767.2701	0.037893
767.5052	0.037133
767.7403	0.039603
767.9754	0.041187
768.2105	0.042791
768.4456	0.044797
768.6808	0.047204
768.9159	0.049886
769.1510	0.049907
769.3862	0.046191
769.6214	0.045262
769.8565	0.044860
770.0917	0.043763
770.3269	0.044459
770.5621	0.045135
770.7973	0.047077
771.0325	0.048070
771.2677	0.047753
771.5030	0.049484
771.7382	0.044544
771.9735	0.041968
772.2087	0.040997
772.4440	0.039413
772.6793	0.040152
772.9146	0.039054
773.1499	0.038231
773.3852	0.040215
773.6205	0.037365
773.8558	0.040490
774.0911	0.036415
774.3265	0.035465
774.5618	0.032319
774.7972	0.033417
775.0326	0.031706
775.2679	0.031770
775.5033	0.028814
775.7387	0.028624
775.9741	0.026259
776.2095	0.027357
776.4450	0.025604
776.6804	0.027272
776.9158	0.025055
777.1513	0.025604
777.3868	0.023810
777.6222	0.025288
777.8577	0.023936
778.0932	0.027272
778.3287	0.025752
778.5642	0.028328
778.7997	0.027040
779.0352	0.028814
779.2707	0.030756
779.5063	0.032445
779.7418	0.030102
779.9774	0.028349
780.2130	0.028075
780.4485	0.028159
780.6841	0.028307
780.9197	0.030566
781.1553	0.032445
781.3909	0.036373
781.6265	0.035739
781.8622	0.033100
782.0978	0.034726
782.3335	0.034261
782.5691	0.035211
782.8048	0.034937
783.0405	0.034409
783.2761	0.035422
783.5118	0.033670
783.7475	0.033649
783.9832	0.033480
784.2190	0.032276
784.4547	0.028835
784.6904	0.028497
784.9262	0.027885
785.1619	0.027779
785.3977	0.028370
785.6335	0.028349
785.8692	0.028096
786.1050	0.029236
786.3408	0.028856
786.5766	0.028687
786.8124	0.025879
787.0483	0.028434
787.2841	0.027547
787.5199	0.028307
787.7558	0.029743
787.9917	0.029848
788.2275	0.029468
788.4634	0.032445
788.6993	0.031115
788.9352	0.033163
789.1711	0.029933
789.4070	0.028476
789.6429	0.027758
789.8789	0.026892
790.1148	0.026407
790.3507	0.024929
790.5867	0.025520
790.8227	0.026027
791.0586	0.024126
791.2946	0.023789
791.5306	0.023979
791.7666	0.023493
792.0026	0.023514
792.2387	0.023324
792.4747	0.022817
792.7107	0.022142
792.9468	0.021360
793.1828	0.022606
793.4189	0.019671
793.6550	0.024253
793.8910	0.024675
794.1271	0.029173
794.3632	0.032044
794.5993	0.032234
794.8355	0.032044
795.0716	0.030672
795.3077	0.032551
795.5439	0.032424
795.7800	0.027462
796.0162	0.026217
796.2523	0.025773
796.4885	0.022944
796.7247	0.021572
796.9609	0.023767
797.1971	0.020896
797.4333	0.023071
797.6695	0.023134
797.9058	0.024190
798.1420	0.022205
798.3783	0.022332
798.6145	0.022015
798.8508	0.023831
799.0871	0.025034
799.3233	0.023409
799.5596	0.021508
799.7959	0.021572
800.0322	0.021593
800.2686	0.019840
800.5049	0.020706
800.7412	0.020706
800.9776	0.019608
801.2139	0.019671
801.4503	0.019735
801.6867	0.018911
801.9230	0.017982
802.1594	0.016779
802.3958	0.015005
802.6322	0.016905
802.8686	0.016230
803.1051	0.017898
803.3415	0.016589
803.5779	0.018806
803.8144	0.017074
804.0508	0.017138
804.2873	0.017074
804.5238	0.016610
804.7603	0.016821
804.9968	0.017940
805.2333	0.017623
805.4698	0.016758
805.7063	0.017518
805.9428	0.018785
806.1794	0.021931
806.4159	0.022944
806.6525	0.023345
806.8890	0.024654
807.1256	0.022986
807.3622	0.023873
807.5988	0.022289
807.8354	0.021846
808.0720	0.023599
808.3086	0.023556
808.5452	0.023535
808.7818	0.022416
809.0185	0.024063
809.2551	0.022902
809.4918	0.022838
809.7284	0.019397
809.9651	0.019714
810.2018	0.019291
810.4385	0.020199
810.6752	0.018362
810.9119	0.018953
811.1486	0.017370
811.3853	0.018003
811.6221	0.017243
811.8588	0.016758
812.0956	0.017454
812.3323	0.016441
812.5691	0.016103
812.8059	0.012007
813.0427	0.013802
813.2795	0.013928
813.5163	0.015575
813.7531	0.017856
813.9899	0.019714
814.2267	0.018489
814.4636	0.018214
814.7004	0.017370
814.9373	0.017687
815.1742	0.018003
815.4110	0.014646
815.6479	0.014224
815.8848	0.014773
816.1217	0.013971
816.3586	0.012915
816.5955	0.014308
816.8324	0.014076
817.0694	0.014646
817.3063	0.013949
817.5433	0.014477
817.7802	0.015427
818.0172	0.013633
818.2542	0.013358
818.4912	0.013949
818.7282	0.011606
818.9652	0.011859
819.2022	0.011965
819.4392	0.013548
819.6762	0.011205
819.9133	0.012514
820.1503	0.013590
820.3874	0.014646
820.6244	0.013654
820.8615	0.014604
821.0986	0.015575
821.3357	0.012619
821.5727	0.014161
821.8099	0.012683
822.0470	0.013084
822.2841	0.013063
822.5212	0.012471
822.7584	0.012091
822.9955	0.012746
823.2327	0.011479
823.4698	0.013041
823.7070	0.010846
823.9442	0.009009
824.1814	0.011331
824.4186	0.010487
824.6558	0.010360
824.8930	0.010402
825.1302	0.011099
825.3675	0.011986
825.6047	0.011606
825.8419	0.013633
826.0792	0.013400
826.3165	0.012746
826.5537	0.010128
826.7910	0.011247
827.0283	0.014308
827.2656	0.013527
827.5029	0.012936
827.7402	0.014055
827.9776	0.012851
828.2149	0.011627
828.4522	0.012514
828.6896	0.011226
828.9270	0.011395
829.1643	0.012978
829.4017	0.012978
829.6391	0.011944
829.8765	0.010233
830.1139	0.012324
830.3513	0.010107
830.5887	0.009579
830.8261	0.010001
831.0636	0.009494
831.3010	0.009537
831.5385	0.007890
831.7759	0.008460
832.0134	0.007193
832.2509	0.009494
832.4884	0.008059
832.7259	0.008966
832.9634	0.008037
833.2009	0.009135
833.4384	0.010064
833.6759	0.008988
833.9135	0.009853
834.1510	0.009684
834.3886	0.010719
834.6261	0.011289
834.8637	0.010656
835.1013	0.010571
835.3389	0.009347
835.5765	0.008840
835.8141	0.009727
836.0517	0.009748
836.2893	0.009938
836.5269	0.008544
836.7646	0.008312
837.0022	0.008122
837.2399	0.007151
837.4775	0.006538
837.7152	0.006032
837.9529	0.006982
838.1906	0.007172
838.4283	0.006538
838.6660	0.005842
838.9037	0.007615
839.1414	0.006285
839.3791	0.007024
839.6169	0.007383
839.8546	0.006475
840.0924	0.007256
840.3302	0.005314
840.5679	0.006074
840.8057	0.007932
841.0435	0.006475
841.2813	0.005968
841.5191	0.007108
841.7569	0.006116
841.9947	0.005630
842.2326	0.005715
842.4704	0.004997
842.7082	0.006327
842.9461	0.005799
843.1840	0.006665
843.4218	0.004913
843.6597	0.005314
843.8976	0.003667
844.1355	0.005250
844.3734	0.004131
844.6113	0.003920
844.8492	0.004068
845.0872	0.004913
845.3251	0.005293
845.5631	0.006369
845.8010	0.004554
846.0390	0.005377
846.2770	0.003941
846.5149	0.003751
846.7529	0.005926
846.9909	0.006581
847.2289	0.005018
847.4669	0.005609
847.7050	0.004807
847.9430	0.004659
848.1810	0.005103
848.4191	0.004047
848.6571	0.003582
848.8952	0.005757
849.1333	0.005630
849.3713	0.004237
849.6094	0.003245
849.8475	0.005588
850.0856	0.004870
850.3237	0.004617
850.5619	0.003582
850.8000	0.004807
851.0381	0.004089
851.2763	0.004385
851.5144	0.005314
851.7526	0.004448
851.9908	0.004891
852.2289	0.004976
852.4671	0.005884
852.7053	0.006559
852.9435	0.009790
853.1817	0.011796
853.4200	0.012830
853.6582	0.014646
853.8964	0.012809
854.1347	0.014161
854.3729	0.014161
854.6112	0.013548
854.8495	0.013147
855.0877	0.013907
855.3260	0.013422
855.5643	0.011922
855.8026	0.011395
856.0409	0.012302
856.2792	0.009600
856.5176	0.011289
856.7559	0.013168
856.9942	0.011331
857.2326	0.010951
857.4710	0.010487
857.7093	0.010423
857.9477	0.010508
858.1861	0.009114
858.4245	0.009009
858.6629	0.009537
858.9013	0.008840
859.1397	0.007721
859.3781	0.008924
859.6166	0.008671
859.8550	0.008650
860.0935	0.008417
860.3319	0.007763
860.5704	0.006454
860.8089	0.007235
861.0473	0.007320
861.2858	0.006538
861.5243	0.007383
861.7628	0.004364
862.0013	0.005715
862.2399	0.007045
862.4784	0.006095
862.7169	0.007108
862.9555	0.004490
863.1940	0.005884
863.4326	0.007130
863.6712	0.006285
863.9098	0.006581
864.1483	0.007235
864.3869	0.004807
864.6255	0.006285
864.8642	0.005609
865.1028	0.005736
865.3414	0.004997
865.5800	0.004997
865.8187	0.004427
866.0573	0.005440
866.2960	0.004448
866.5347	0.004237
866.7733	0.003667
867.0120	0.005039
867.2507	0.004765
867.4894	0.005504
867.7281	0.006369
867.9669	0.005462
868.2056	0.004427
868.4443	0.005736
868.6831	0.005673
868.9218	0.005905
869.1606	0.006686
869.3993	0.005504
869.6381	0.003287
869.8769	0.004807
870.1157	0.005271
870.3545	0.004870
870.5933	0.005250
870.8321	0.005103
871.0709	0.006074
871.3097	0.005820
871.5486	0.005652
871.7874	0.004364
872.0263	0.004680
872.2651	0.004596
872.5040	0.005377
872.7429	0.005314
872.9818	0.003751
873.2207	0.004638
873.4596	0.004448
873.6985	0.004934
873.9374	0.005335
874.1763	0.005187
874.4153	0.005947
874.6542	0.005335
874.8932	0.005208
875.1321	0.004934
875.3711	0.006137
875.6101	0.006433
875.8491	0.005293
876.0880	0.005250
876.3270	0.007341
876.5661	0.006369
876.8051	0.004047
877.0441	0.004913
877.2831	0.005778
877.5222	0.004152
877.7612	0.005757
878.0003	0.005757
878.2393	0.005926
878.4784	0.006116
878.7175	0.005208
878.9566	0.006665
879.1957	0.008713
879.4348	0.007446
879.6739	0.007298
879.9130	0.007045
880.1521	0.007826
880.3913	0.008671
880.6304	0.007826
880.8696	0.006855
881.1087	0.007742
881.3479	0.005694
881.5871	0.007320
881.8262	0.006179
882.0654	0.007256
882.3046	0.005356
882.5438	0.005968
882.7831	0.005757
883.0223	0.005820
883.2615	0.005124
883.5007	0.007214
883.7400	0.005504
883.9792	0.006876
884.2185	0.005124
884.4578	0.005504
884.6971	0.005103
884.9363	0.006454
885.1756	0.007214
885.4149	0.006158
885.6542	0.005694
885.8936	0.006496
886.1329	0.005630
886.3722	0.006771
886.6116	0.007172
886.8509	0.005208
887.0903	0.005208
887.3296	0.005398
887.5690	0.004913
887.8084	0.005609
888.0478	0.006116
888.2872	0.005483
888.5266	0.003540
888.7660	0.004807
889.0054	0.003688
889.2448	0.004575
889.4843	0.005187
889.7237	0.004828
889.9632	0.004005
890.2026	0.005103
890.4421	0.004532
890.6816	0.004406
890.9211	0.005630
891.1606	0.004342
891.4001	0.003836
891.6396	0.004216
891.8791	0.004279
892.1186	0.005145
892.3581	0.004511
892.5977	0.004174
892.8372	0.004005
893.0768	0.003519
893.3163	0.005250
893.5559	0.004617
893.7955	0.003392
894.0351	0.003519
894.2747	0.003857
894.5143	0.004068
894.7539	0.003392
894.9935	0.005039
895.2331	0.004659
895.4727	0.005335
895.7124	0.004385
895.9520	0.004174
896.1917	0.004511
896.4314	0.004575
896.6710	0.004870
896.9107	0.004596
897.1504	0.004026
897.3901	0.003625
897.6298	0.005546
897.8695	0.004723
898.1092	0.004174
898.3489	0.004913
898.5887	0.004575
898.8284	0.004131
899.0682	0.003392
899.3079	0.002653
899.5477	0.003751
899.7875	0.004828
900.0272	0.003603
900.2670	0.004364
900.5068	0.003308
900.7466	0.004744
900.9864	0.004490
901.2263	0.006201
901.4661	0.003392
901.7059	0.003899
901.9458	0.005060
902.1856	0.004152
902.4255	0.004237
902.6654	0.004342
902.9052	0.003815
903.1451	0.003456
903.3850	0.003603
903.6249	0.003941
903.8648	0.003118
904.1047	0.004554
904.3446	0.001767
904.5846	0.004195
904.8245	0.005081
905.0644	0.004976
905.3044	0.005630
905.5444	0.004913
905.7843	0.006855
906.0243	0.004195
906.2643	0.003815
906.5043	0.005525
906.7443	0.002590
906.9843	0.002294
907.2243	0.004279
907.4643	0.003815
907.7043	0.003625
907.9444	0.003667
908.1844	0.002970
908.4245	0.004174
908.6645	0.002717
908.9046	0.004110
909.1447	0.004216
909.3847	0.003899
909.6248	0.004891
909.8649	0.003899
910.1050	0.003012
910.3452	0.003540
910.5853	0.002780
910.8254	0.005039
911.0655	0.003308
911.3057	0.002020
911.5458	0.002611
911.7860	0.003815
912.0262	0.003709
912.2663	0.004300
912.5065	0.004110
912.7467	0.004575
912.9869	0.003245
913.2271	0.003392
913.4673	0.002611
913.7075	0.002611
913.9478	0.001513
914.1880	0.003920
914.4283	0.002801
914.6685	0.003582
914.9088	0.003392
915.1490	0.003118
915.3893	0.002210
915.6296	0.002548
915.8699	0.002273
916.1102	0.003582
916.3505	0.002780
916.5908	0.003941
916.8311	0.004511
917.0714	0.002717
917.3118	0.003984
917.5521	0.004638
917.7925	0.003371
918.0328	0.006285
918.2732	0.003941
918.5136	0.002463
918.7539	0.004026
918.9943	0.003857
919.2347	0.001429
919.4751	0.002273
919.7155	0.002590
919.9560	0.003076
920.1964	0.002527
920.4368	0.003012
920.6773	0.003012
920.9177	0.003498
921.1582	0.001218
921.3986	0.003962
921.6391	0.003392
921.8796	0.002527
922.1201	0.002379
922.3606	0.002696
922.6011	0.003688
922.8416	0.003688
923.0821	0.002548
923.3226	0.002632
923.5631	0.002886
923.8037	0.004427
924.0442	0.002611
924.2848	0.003202
924.5254	0.004596
924.7659	0.002421
925.0065	0.002632
925.2471	0.001893
925.4877	0.002316
925.7283	0.002822
925.9689	0.000479
926.2095	0.001893
926.4501	0.001957
926.6908	0.002252
926.9314	0.002442
927.1720	0.002379
927.4127	0.002463
927.6533	0.002358
927.8940	0.002822
928.1347	0.002759
928.3754	0.003561
928.6161	0.003751
928.8568	0.001534
929.0975	0.002379
929.3382	0.002569
929.5789	0.003245
929.8196	0.001513
930.0604	0.002421
930.3011	0.001534
930.5419	0.003076
930.7826	0.000711
931.0234	0.002020
931.2642	0.000880
931.5049	0.002864
931.7457	0.000669
931.9865	0.002886
932.2273	0.002041
932.4681	0.000943
932.7089	0.002147
932.9498	0.001028
933.1906	0.000964
933.4314	0.000985
933.6723	0.001344
933.9131	0.001914
934.1540	0.002463
934.3949	0.001851
934.6358	0.000943
934.8766	0.000310
935.1175	0.001682
935.3584	0.002337
935.5993	0.001893
935.8403	0.002125
936.0812	0.002189
936.3221	0.001365
936.5630	0.001323
936.8040	0.000732
937.0449	0.002759
937.2859	0.002843
937.5269	0.000859
937.7678	0.000647
938.0088	0.002252
938.2498	0.000922
938.4908	0.000943
938.7318	-0.000282
938.9728	0.001957
939.2138	0.000964
939.4549	0.001999
939.6959	0.001555
939.9369	0.001450
940.1780	0.001957
940.4190	0.001175
940.6601	0.000647
940.9012	0.000500
941.1422	0.000711
941.3833	0.002189
941.6244	0.000795
941.8655	0.002400
942.1066	0.000310
942.3477	0.000479
942.5889	0.001175
942.8300	0.001260
943.0711	0.000415
943.3123	0.000500
943.5534	0.000880
943.7946	0.000099
944.0357	-0.000134
944.2769	0.002294
944.5181	-0.000239
944.7593	0.001112
945.0005	-0.000218
945.2417	0.000436
945.4829	0.001133
945.7241	0.001429
945.9653	0.001682
946.2066	0.001070
946.4478	0.000436
946.6891	0.001640
946.9303	-0.000028
947.1716	0.002273
947.4128	0.001577
947.6541	-0.000978
947.8954	0.000626
948.1367	-0.000197
948.3780	0.001513
948.6193	0.000964
948.8606	0.001703
949.1019	0.001957
949.3433	0.000479
949.5846	0.001239
949.8259	0.000964
950.0673	0.001640
950.3086	0.000795
950.5500	0.000099
950.7914	0.001196
951.0327	-0.000408
951.2741	0.000605
951.5155	0.001999
951.7569	0.001577
951.9983	0.001935
952.2398	0.000690
952.4812	0.001196
952.7226	0.000626
952.9640	0.003139
953.2055	0.000267
953.4469	-0.000429
953.6884	0.001218
953.9299	-0.000472
954.1713	0.000985
954.4128	0.001112
954.6543	0.000943
954.8958	0.000753
955.1373	0.000267
955.3788	0.001091
955.6203	0.001196
955.8618	0.001028
956.1034	-0.000640
956.3449	0.001344
956.5865	0.000352
956.8280	0.000753
957.0696	0.000120
957.3111	0.000943
957.5527	0.000605
957.7943	0.000014
958.0359	0.000120
958.2775	0.001049
958.5191	0.000732
958.7607	0.000605
959.0023	0.001133
959.2439	0.000753
959.4856	-0.000577
959.7272	0.000901
959.9688	-0.001401
960.2105	0.000289
960.4522	0.001070
960.6938	0.001365
960.9355	-0.000493
961.1772	0.000056
961.4189	-0.000556
961.6606	0.000521
961.9023	0.000436
962.1440	-0.000197
962.3857	-0.000134
962.6274	0.000943
962.8692	0.000120
963.1109	0.000415
963.3527	0.000542
963.5944	-0.000007
963.8362	-0.000091
964.0779	-0.000239
964.3197	0.000014
964.5615	0.001196
964.8033	0.000014
965.0451	-0.001084
965.2869	0.001724
965.5287	0.000331
965.7705	0.000816
966.0123	0.000795
966.2542	-0.000683
966.4960	0.000436
966.7379	0.001260
966.9797	0.000542
967.2216	0.000204
967.4634	0.000479
967.7053	-0.000134
967.9472	-0.000746
968.1891	0.001323
968.4310	0.000521
968.6729	0.000690
968.9148	0.001935
969.1567	0.000479
969.3987	0.000394
969.6406	-0.000788
969.8825	0.000099
970.1245	0.001492
970.3664	0.001365
970.6084	-0.000218
970.8504	0.000711
971.0923	-0.000662
971.3343	0.001281
971.5763	-0.000282
971.8183	0.000774
972.0603	-0.001485
972.3023	0.001091
972.5443	-0.000260
972.7864	0.000099
973.0284	0.001028
973.2704	-0.000155
973.5125	0.000246
973.7545	-0.000408
973.9966	-0.000999
974.2387	0.000964
974.4807	-0.001422
974.7228	0.000373
974.9649	0.001999
975.2070	0.000014
975.4491	0.000985
975.6912	0.001830
975.9333	0.000373
976.1755	-0.000007
976.4176	-0.000007
976.6597	0.000035
976.9019	-0.001527
977.1440	0.001534
977.3862	-0.000176
977.6283	-0.000113
977.8705	-0.000070
978.1127	0.000626
978.3549	0.000436
978.5971	0.001302
978.8393	0.000014
979.0815	0.001386
979.3237	-0.000345
979.5659	0.000795
979.8082	0.000479
980.0504	0.001028
980.2926	0.000373
980.5349	0.000056
980.7771	0.000415
981.0194	0.000204
981.2617	0.000880
981.5040	0.000099
981.7462	0.000077
981.9885	0.000816
982.2308	-0.001379
982.4731	0.002041
982.7155	-0.000303
982.9578	0.000647
983.2001	0.000141
983.4424	0.000690
983.6848	0.000711
983.9271	-0.000873
984.1695	0.000162
984.4118	0.001534
984.6542	0.001091
984.8966	-0.000704
985.1390	0.000457
985.3814	-0.000514
985.6238	0.000521
985.8662	0.000436
986.1086	0.000120
986.3510	0.001049
986.5934	-0.000324
986.8358	0.000436
987.0783	0.001682
987.3207	0.000099
987.5632	0.002463
987.8056	0.000014
988.0481	0.000415
988.2906	0.001534
988.5331	0.000521
988.7756	0.000521
989.0180	0.001260
989.2605	0.000267
989.5031	-0.000387
989.7456	0.000436
989.9881	-0.000113
990.2306	-0.001147
990.4732	-0.000746
990.7157	-0.000028
990.9582	-0.000472
991.2008	0.000711
991.4434	0.000542
991.6859	0.000415
991.9285	0.000373
992.1711	0.000647
992.4137	0.000141
992.6563	0.000880
992.8989	0.001049
993.1415	-0.002224
993.3841	0.000732
993.6267	0.000457
993.8694	-0.000155
994.1120	0.000669
994.3547	0.000521
994.5973	0.000077
994.8400	-0.000788
995.0826	0.001049
995.3253	-0.000049
995.5680	0.000711
995.8107	0.000120
996.0534	0.000436
996.2961	-0.001548
996.5388	-0.000218
996.7815	-0.000049
997.0242	0.000479
997.2670	-0.001147
997.5097	-0.000303
997.7524	0.000183
997.9952	0.000479
998.2379	-0.000091
998.4807	0.001386
998.7235	-0.000260
998.9662	0.000732
999.2090	0.000077
999.4518	-0.000345
999.6946	0.000056
999.9374	0.000310
1000.1802	0.000035
1000.4230	-0.000598
1000.6659	0.000457
1000.9087	0.000035
1001.1515	0.000816
1001.3944	0.001682
1001.6372	-0.001760
1001.8801	-0.001358
1002.1230	0.000035
1002.3658	-0.001591
1002.6087	0.000985
1002.8516	-0.000978
1003.0945	0.001471
1003.3374	-0.000007
1003.5803	-0.000155
1003.8232	0.000099
1004.0661	0.001408
1004.3091	0.000732
1004.5520	0.000880
1004.7949	-0.000809
1005.0379	0.000267
1005.2808	-0.000155
1005.5238	0.000352
1005.7667	-0.000155
1006.0097	0.000246
1006.2527	-0.000007
1006.4957	0.000647
1006.7387	-0.001379
1006.9817	0.000479
1007.2247	-0.000535
1007.4677	-0.000873
1007.7107	0.000099
1007.9538	0.000732
1008.1968	-0.000788
1008.4398	-0.000915
1008.6829	0.000056
1008.9259	-0.000260
1009.1690	-0.000662
1009.4121	-0.000028
1009.6551	-0.000049
1009.8982	-0.000197
1010.1413	0.000120
1010.3844	0.000964
1010.6275	0.000183
1010.8706	0.000922
1011.1137	-0.000155
1011.3568	-0.000091
1011.6000	-0.001295
1011.8431	0.000352
1012.0863	-0.000619
1012.3294	0.001323
1012.5726	-0.000091
1012.8157	-0.000049
1013.0589	0.000732
1013.3021	-0.000830
1013.5452	-0.000387
1013.7884	0.000120
1014.0316	0.000457
1014.2748	0.001028
1014.5180	0.000838
1014.7613	0.000394
1015.0045	0.000056
1015.2477	0.000563
1015.4909	-0.001232
1015.7342	-0.000704
1015.9774	0.000035
1016.2207	0.001281
1016.4640	-0.000556
1016.7072	-0.001168
1016.9505	-0.000852
1017.1938	-0.000493
1017.4371	-0.000007
1017.6804	-0.000176
1017.9237	-0.000662
1018.1670	0.000711
1018.4103	-0.000873
1018.6536	-0.000218
1018.8969	0.001408
1019.1403	-0.000577
1019.3836	-0.000852
1019.6270	0.001450
1019.8703	0.000859
1020.1137	-0.001126
1020.3571	-0.000345
1020.6004	0.000542
1020.8438	-0.001084
1021.0872	-0.000113
1021.3306	-0.000894
1021.5740	-0.000387
1021.8174	-0.000809
1022.0608	0.000225
1022.3042	-0.000598
1022.5477	-0.000366
1022.7911	-0.001021
1023.0345	-0.000113
