# Wavelength (nm)	Intensity (a.u.)
197.7802	0.000980
197.9842	0.000157
198.1882	-0.000455
198.3922	-0.001300
198.5963	0.000980
198.8003	0.001549
199.0044	0.000473
199.2085	-0.000244
199.4126	0.000811
199.6168	0.000325
199.8209	0.001866
200.0251	0.000515
200.2292	0.000178
200.4334	-0.000244
200.6376	0.001148
200.8418	0.001528
201.0461	0.000346
201.2503	0.000600
201.4546	-0.000540
201.6589	0.001169
201.8631	0.000579
202.0674	0.000368
202.2718	0.000769
202.4761	-0.000097
202.6805	0.001697
202.8848	0.001676
203.0892	-0.000455
203.2936	-0.000941
203.4980	0.001486
203.7024	0.001381
203.9069	0.001022
204.1113	-0.000076
204.3158	0.001655
204.5203	-0.000540
204.7248	0.000557
204.9293	-0.000645
205.1338	0.000621
205.3384	0.000684
205.5430	0.000726
205.7475	-0.000033
205.9521	0.001381
206.1567	0.000980
206.3614	0.001549
206.5660	-0.001067
206.7706	0.001212
206.9753	-0.001215
207.1800	0.000304
207.3847	0.001444
207.5894	0.000325
207.7941	0.000684
207.9989	-0.000139
208.2036	-0.000033
208.4084	0.001486
208.6132	-0.000561
208.8180	0.002288
209.0228	0.000937
209.2276	0.000009
209.4325	0.000431
209.6373	-0.000371
209.8422	0.000452
210.0471	0.000747
210.2520	-0.000055
210.4569	0.000135
210.6618	-0.000667
210.8668	0.001275
211.0718	0.001296
211.2767	-0.000413
211.4817	0.000072
211.6867	0.001634
211.8918	0.000114
212.0968	0.000579
212.3018	-0.000730
212.5069	0.000304
212.7120	-0.000202
212.9171	0.001043
213.1222	-0.000835
213.3273	0.001486
213.5325	-0.001004
213.7376	0.000368
213.9428	0.000346
214.1480	0.000980
214.3532	-0.001046
214.5584	0.000769
214.7636	0.000769
214.9689	0.000811
215.1741	0.000030
215.3794	0.001676
215.5847	-0.000266
215.7900	0.000093
215.9953	-0.001511
216.2007	0.000790
216.4060	-0.000139
216.6114	0.000389
216.8168	0.000325
217.0222	0.001739
217.2276	0.000410
217.4330	0.001486
217.6384	0.001465
217.8439	0.000389
218.0494	0.000241
218.2548	0.000051
218.4603	-0.000139
218.6659	0.001739
218.8714	-0.000751
219.0769	0.001781
219.2825	-0.000223
219.4881	0.000325
219.6936	0.000452
219.8992	0.000157
220.1049	-0.000498
220.3105	-0.000519
220.5161	0.001486
220.7218	0.001739
220.9275	0.001486
221.1332	0.000853
221.3389	0.000853
221.5446	0.000874
221.7503	0.001106
221.9561	-0.000097
222.1618	-0.000455
222.3676	0.000811
222.5734	-0.001511
222.7792	0.001423
222.9850	0.000895
223.1909	0.001381
223.3967	-0.000287
223.6026	-0.000308
223.8085	-0.000055
224.0144	0.001634
224.2203	0.001950
224.4262	0.001592
224.6322	0.000283
224.8381	0.000895
225.0441	0.001824
225.2501	0.001570
225.4561	-0.000498
225.6621	0.001127
225.8681	0.000705
226.0742	0.000051
226.2802	-0.000709
226.4863	-0.000287
226.6924	0.000473
226.8985	0.001697
227.1046	-0.000603
227.3107	0.001148
227.5169	0.000009
227.7230	-0.000329
227.9292	-0.000434
228.1354	0.001676
228.3416	0.000515
228.5478	0.000579
228.7541	0.001043
228.9603	0.000895
229.1666	0.001676
229.3729	0.000895
229.5791	-0.000076
229.7855	0.000304
229.9918	0.001317
230.1981	0.001022
230.4045	0.000452
230.6108	0.000536
230.8172	0.000621
231.0236	0.000431
231.2300	0.000009
231.4364	0.000452
231.6429	0.000368
231.8493	0.000895
232.0558	0.001275
232.2623	0.001254
232.4688	-0.000561
232.6753	0.000515
232.8818	0.000494
233.0884	0.001148
233.2949	-0.001236
233.5015	-0.000097
233.7081	-0.000308
233.9147	0.000600
234.1213	-0.000244
234.3279	0.000769
234.5346	-0.000371
234.7413	0.001296
234.9479	0.001022
235.1546	0.000389
235.3613	-0.001279
235.5680	0.000958
235.7748	0.001528
235.9815	0.001381
236.1883	0.000114
236.3951	0.002119
236.6018	0.000600
236.8087	0.001191
237.0155	0.000473
237.2223	0.000600
237.4292	0.001001
237.6360	0.000937
237.8429	0.000178
238.0498	-0.000920
238.2567	0.000621
238.4636	0.000157
238.6706	0.000346
238.8775	-0.000202
239.0845	-0.000455
239.2915	0.000980
239.4985	-0.000244
239.7055	0.001169
239.9125	0.001085
240.1195	-0.000118
240.3266	-0.000266
240.5337	-0.000160
240.7407	0.000536
240.9478	0.000304
241.1549	0.000853
241.3621	-0.000582
241.5692	0.000051
241.7764	0.000895
241.9835	-0.000033
242.1907	-0.000371
242.3979	0.000916
242.6051	0.001085
242.8124	0.000790
243.0196	0.001191
243.2269	-0.000392
243.4341	-0.001279
243.6414	0.000178
243.8487	-0.000856
244.0560	0.001022
244.2634	0.000368
244.4707	0.000958
244.6781	0.001233
244.8854	0.000705
245.0928	-0.000244
245.3002	0.000452
245.5076	0.001528
245.7151	0.000874
245.9225	0.000705
246.1300	0.000832
246.3375	0.002119
246.5449	0.001634
246.7524	-0.000751
246.9600	0.000853
247.1675	0.000220
247.3750	-0.000181
247.5826	0.000663
247.7902	0.000262
247.9978	0.000368
248.2054	-0.000540
248.4130	0.000811
248.6206	0.001381
248.8283	0.000410
249.0359	-0.000477
249.2436	0.000747
249.4513	0.000262
249.6590	0.000325
249.8667	0.001444
250.0745	-0.000392
250.2822	0.000114
250.4900	0.000642
250.6978	-0.000730
250.9056	0.001106
251.1134	0.001212
251.3212	0.001212
251.5290	-0.000455
251.7369	0.000241
251.9447	0.000663
252.1526	0.001275
252.3605	0.001444
252.5684	-0.000076
252.7763	-0.000413
252.9843	-0.000561
253.1922	0.000389
253.4002	0.001127
253.6082	0.000220
253.8162	-0.001363
254.0242	0.000262
254.2322	0.000135
254.4402	-0.000455
254.6483	-0.000308
254.8564	0.000473
255.0644	0.000874
255.2725	-0.000561
255.4806	0.000642
255.6888	0.001127
255.8969	0.000199
256.1051	0.000579
256.3132	0.000368
256.5214	-0.000519
256.7296	0.000811
256.9378	0.000642
257.1460	0.000009
257.3543	-0.000076
257.5625	0.001148
257.7708	0.001486
257.9791	0.000684
258.1874	0.000178
258.3957	0.001148
258.6040	0.001001
258.8124	0.001655
259.0207	0.000389
259.2291	0.000072
259.4375	-0.000287
259.6459	-0.000920
259.8543	0.000684
260.0627	0.000262
260.2711	0.000389
260.4796	0.000452
260.6881	0.000009
260.8965	0.000916
261.1050	0.001950
261.3135	0.000958
261.5221	-0.001152
261.7306	0.000937
261.9392	-0.000498
262.1477	0.001993
262.3563	0.000895
262.5649	-0.000434
262.7735	0.001191
262.9822	0.001127
263.1908	0.000811
263.3995	0.002351
263.6081	-0.000118
263.8168	0.001739
264.0255	-0.000455
264.2342	0.002014
264.4429	-0.000076
264.6517	0.001718
264.8604	0.000072
265.0692	0.000389
265.2780	0.000410
265.4868	0.001423
265.6956	0.001148
265.9044	0.000452
266.1133	0.000389
266.3221	0.001866
266.5310	0.000515
266.7399	0.001296
266.9488	-0.000118
267.1577	0.001233
267.3666	-0.001046
267.5755	0.001402
267.7845	-0.000667
267.9935	0.000009
268.2024	-0.000413
268.4114	-0.000624
268.6205	0.001106
268.8295	0.001317
269.0385	-0.000667
269.2476	0.001022
269.4566	0.000684
269.6657	0.001634
269.8748	0.000199
270.0839	0.000853
270.2931	0.000241
270.5022	0.001127
270.7114	0.000093
270.9205	0.000093
271.1297	0.001676
271.3389	0.001296
271.5481	0.000600
271.7573	0.000853
271.9666	0.001507
272.1758	-0.000244
272.3851	0.000009
272.5944	-0.000223
272.8037	0.000557
273.0130	0.000199
273.2223	0.000051
273.4316	0.000283
273.6410	0.000621
273.8504	-0.001004
274.0597	0.001148
274.2691	0.000325
274.4785	-0.000920
274.6880	0.000346
274.8974	-0.000772
275.1069	0.001676
275.3163	-0.000582
275.5258	0.000621
275.7353	0.000262
275.9448	0.002182
276.1543	-0.001954
276.3639	0.000958
276.5734	-0.000519
276.7830	0.001444
276.9926	-0.000033
277.2022	0.000557
277.4118	0.000790
277.6214	0.001001
277.8310	-0.000709
278.0407	0.001739
278.2503	-0.000350
278.4600	-0.000983
278.6697	0.000452
278.8794	0.001549
279.0891	0.000220
279.2989	0.001993
279.5086	0.000346
279.7184	0.002520
279.9281	-0.000076
280.1379	0.001085
280.3477	0.000072
280.5576	0.001275
280.7674	-0.000223
280.9772	0.001423
281.1871	-0.000540
281.3970	0.000663
281.6069	0.001233
281.8168	0.000515
282.0267	-0.000688
282.2366	0.000621
282.4466	-0.000287
282.6565	0.000853
282.8665	0.001254
283.0765	0.000325
283.2865	0.000009
283.4965	0.002288
283.7065	-0.000118
283.9166	-0.000667
284.1266	-0.001321
284.3367	0.000832
284.5468	0.000600
284.7569	-0.000413
284.9670	-0.000287
285.1771	0.000663
285.3873	0.000769
285.5974	-0.000055
285.8076	0.000431
286.0178	0.000853
286.2280	0.001212
286.4382	0.001022
286.6484	0.000874
286.8587	0.001929
287.0689	0.000051
287.2792	0.000937
287.4895	0.000368
287.6998	-0.000139
287.9101	0.000431
288.1204	-0.000055
288.3308	0.000769
288.5411	0.001718
288.7515	0.000009
288.9619	0.001212
289.1723	-0.000645
289.3827	-0.000329
289.5931	0.000178
289.8035	0.001064
290.0140	0.000916
290.2245	0.000579
290.4349	-0.000223
290.6454	0.000937
290.8559	0.000241
291.0665	0.000368
291.2770	-0.000329
291.4875	0.000494
291.6981	0.000621
291.9087	0.000452
292.1193	0.001402
292.3299	0.000283
292.5405	0.000304
292.7511	0.000937
292.9618	0.000199
293.1724	0.001592
293.3831	0.000220
293.5938	0.000325
293.8045	0.000262
294.0152	0.001781
294.2260	0.000262
294.4367	-0.000455
294.6475	-0.000244
294.8582	0.001191
295.0690	-0.000434
295.2798	0.000494
295.4906	-0.001046
295.7015	0.000874
295.9123	-0.000498
296.1232	0.001212
296.3340	-0.000350
296.5449	0.000663
296.7558	0.000452
296.9667	0.000368
297.1777	0.000600
297.3886	0.000937
297.5995	0.001423
297.8105	-0.000244
298.0215	-0.000160
298.2325	0.001191
298.4435	-0.000139
298.6545	0.000220
298.8656	0.000832
299.0766	0.000431
299.2877	0.000557
299.4988	0.000114
299.7099	0.000199
299.9210	0.000895
300.1321	0.000009
300.3432	0.001169
300.5544	-0.000920
300.7655	0.000874
300.9767	0.000410
301.1879	0.001254
301.3991	-0.000160
301.6103	0.001191
301.8215	0.000452
302.0328	-0.000202
302.2441	0.001655
302.4553	-0.000223
302.6666	0.001233
302.8779	0.000747
303.0892	-0.000160
303.3006	0.001317
303.5119	0.000895
303.7233	0.000600
303.9346	0.001507
304.1460	0.000515
304.3574	0.000937
304.5688	0.000515
304.7803	-0.000519
304.9917	0.001549
305.2031	0.000093
305.4146	0.002689
305.6261	0.001528
305.8376	0.000790
306.0491	-0.000709
306.2606	0.001739
306.4722	-0.000244
306.6837	0.000220
306.8953	0.000853
307.1069	0.000684
307.3184	-0.000308
307.5301	0.001507
307.7417	-0.000076
307.9533	0.000494
308.1650	0.000410
308.3766	-0.000139
308.5883	0.000368
308.8000	0.000937
309.0117	0.001718
309.2234	0.002119
309.4351	-0.001152
309.6469	0.001359
309.8586	0.000621
310.0704	0.001233
310.2822	0.000452
310.4940	0.001317
310.7058	0.000853
310.9176	0.000853
311.1295	0.000515
311.3413	0.000769
311.5532	0.000325
311.7651	0.000262
311.9770	0.000157
312.1889	-0.000139
312.4008	0.000980
312.6127	0.000283
312.8247	0.000769
313.0366	0.000283
313.2486	0.000557
313.4606	0.001001
313.6726	0.000494
313.8846	0.001338
314.0967	-0.001722
314.3087	0.000980
314.5208	0.000811
314.7328	0.000262
314.9449	-0.000076
315.1570	-0.000097
315.3692	0.000705
315.5813	-0.000371
315.7934	0.001085
316.0056	0.001106
316.2177	0.000916
316.4299	0.001465
316.6421	0.000747
316.8543	0.000536
317.0666	0.000832
317.2788	0.000325
317.4911	0.000199
317.7033	0.001022
317.9156	0.001212
318.1279	0.000431
318.3402	-0.000434
318.5525	0.001908
318.7649	0.000874
318.9772	0.001148
319.1896	-0.000624
319.4019	0.002077
319.6143	0.000030
319.8267	0.000009
320.0392	0.001908
320.2516	0.000114
320.4640	0.000178
320.6765	0.000980
320.8890	-0.001405
321.1014	0.001697
321.3139	0.000958
321.5265	0.002372
321.7390	0.001971
321.9515	0.001064
322.1641	0.000178
322.3766	0.000346
322.5892	-0.000561
322.8018	0.001866
323.0144	0.000178
323.2270	0.000452
323.4397	0.000093
323.6523	0.000262
323.8650	0.000747
324.0777	-0.000076
324.2904	-0.000645
324.5031	0.001254
324.7158	0.000726
324.9285	0.000790
325.1412	-0.000012
325.3540	0.000030
325.5668	0.000220
325.7796	-0.000012
325.9924	0.000051
326.2052	0.000621
326.4180	0.000790
326.6308	0.000747
326.8437	0.001697
327.0566	-0.000561
327.2694	-0.000434
327.4823	-0.000160
327.6952	0.001296
327.9082	0.001275
328.1211	0.000579
328.3340	-0.000308
328.5470	0.000220
328.7600	0.000452
328.9730	-0.000582
329.1860	0.001254
329.3990	0.000895
329.6120	0.000705
329.8251	0.001085
330.0381	0.000874
330.2512	0.000157
330.4643	0.001233
330.6774	0.000600
330.8905	0.001592
331.1036	-0.000033
331.3167	-0.000244
331.5299	-0.001067
331.7431	0.000262
331.9562	0.000178
332.1694	0.000557
332.3826	-0.000244
332.5959	0.001697
332.8091	-0.001046
333.0223	0.000642
333.2356	0.000684
333.4489	0.001824
333.6622	0.000093
333.8755	0.001359
334.0888	0.000473
334.3021	0.001613
334.5154	0.000157
334.7288	0.001486
334.9422	0.000473
335.1555	0.002098
335.3689	0.000515
335.5823	0.001655
335.7958	0.000536
336.0092	0.001781
336.2227	0.000093
336.4361	0.000220
336.6496	0.000684
336.8631	0.001528
337.0766	0.000515
337.2901	-0.000308
337.5036	0.000811
337.7172	0.002225
337.9307	0.000473
338.1443	0.000283
338.3579	0.000600
338.5715	0.000410
338.7851	0.001001
338.9987	0.002035
339.2124	0.000642
339.4260	0.000494
339.6397	0.000030
339.8533	0.001655
340.0670	0.000220
340.2807	0.000937
340.4945	0.001043
340.7082	0.000431
340.9219	0.001760
341.1357	0.000811
341.3495	-0.000202
341.5633	0.001127
341.7771	0.001655
341.9909	0.001127
342.2047	0.000600
342.4185	0.000980
342.6324	0.001106
342.8463	0.001465
343.0601	-0.000962
343.2740	0.000579
343.4879	0.000557
343.7019	0.001381
343.9158	0.001127
344.1297	0.000663
344.3437	0.000452
344.5577	0.000157
344.7717	0.000621
344.9857	0.001148
345.1997	0.000220
345.4137	0.000916
345.6277	-0.000308
345.8418	0.001486
346.0559	-0.000899
346.2699	0.001929
346.4840	0.000178
346.6981	0.001043
346.9123	0.000368
347.1264	0.002077
347.3406	0.000515
347.5547	0.001908
347.7689	0.001212
347.9831	-0.000160
348.1973	-0.000645
348.4115	0.000600
348.6257	0.000368
348.8400	0.000958
349.0542	-0.000434
349.2685	0.001212
349.4828	-0.000434
349.6971	0.001486
349.9114	-0.000097
350.1257	-0.000941
350.3400	0.002351
350.5544	0.000642
350.7687	0.000220
350.9831	0.001233
351.1975	-0.001468
351.4119	0.000705
351.6263	0.001317
351.8407	0.000093
352.0552	0.000431
352.2696	0.001043
352.4841	0.000368
352.6986	0.001191
352.9131	0.000790
353.1276	0.000600
353.3421	-0.000645
353.5566	0.000642
353.7712	-0.000181
353.9858	0.000283
354.2003	0.000368
354.4149	-0.000223
354.6295	-0.000160
354.8441	0.001001
355.0588	0.000980
355.2734	0.001296
355.4881	0.000642
355.7027	0.001043
355.9174	0.000262
356.1321	0.000515
356.3468	-0.000413
356.5615	0.001085
356.7763	0.000473
356.9910	-0.000266
357.2058	0.000600
357.4206	-0.000266
357.6353	0.001528
357.8501	0.000937
358.0650	0.000557
358.2798	0.001613
358.4946	0.000304
358.7095	0.000663
358.9243	-0.001342
359.1392	0.001381
359.3541	0.001212
359.5690	0.001338
359.7839	0.000452
359.9989	0.000895
360.2138	0.000958
360.4288	0.002035
360.6438	0.001338
360.8587	0.000199
361.0737	0.000895
361.2888	0.000895
361.5038	0.000431
361.7188	0.000346
361.9339	-0.000561
362.1489	0.000874
362.3640	-0.001279
362.5791	0.001106
362.7942	0.000811
363.0093	0.001127
363.2245	0.000431
363.4396	-0.000202
363.6548	0.000368
363.8699	0.001402
364.0851	-0.000329
364.3003	0.001528
364.5155	0.001444
364.7308	0.001803
364.9460	0.000389
365.1612	0.002246
365.3765	-0.000160
365.5918	0.002309
365.8071	0.000726
366.0224	0.000600
366.2377	0.000494
366.4530	-0.001152
366.6684	0.000684
366.8837	0.001275
367.0991	0.001022
367.3145	0.001212
367.5299	0.000579
367.7453	0.001739
367.9607	0.000262
368.1761	0.000684
368.3916	0.000304
368.6070	0.001676
368.8225	0.000199
369.0380	0.001929
369.2535	0.001085
369.4690	0.000958
369.6845	0.000642
369.9001	0.000557
370.1156	-0.001490
370.3312	0.001233
370.5468	0.000135
370.7624	-0.000899
370.9780	-0.000308
371.1936	0.002140
371.4092	0.000937
371.6249	-0.000582
371.8405	0.001803
372.0562	0.001338
372.2719	0.000726
372.4876	-0.000561
372.7033	-0.000076
372.9190	0.001866
373.1348	-0.000329
373.3505	0.000621
373.5663	-0.000329
373.7820	0.002119
373.9978	0.000494
374.2136	-0.000582
374.4294	0.001022
374.6453	0.001528
374.8611	-0.000455
375.0770	0.000853
375.2928	-0.000730
375.5087	-0.000181
375.7246	0.000747
375.9405	0.000557
376.1564	-0.000709
376.3724	0.000220
376.5883	-0.000878
376.8043	0.000009
377.0203	-0.000498
377.2362	0.000283
377.4522	0.000009
377.6682	0.000600
377.8843	0.001718
378.1003	0.000663
378.3164	-0.000814
378.5324	0.000579
378.7485	0.000494
378.9646	0.001148
379.1807	0.001718
379.3968	-0.001067
379.6129	0.000600
379.8291	0.000072
380.0452	0.001106
380.2614	0.000747
380.4776	-0.000012
380.6938	0.001634
380.9100	0.000494
381.1262	0.000790
381.3424	-0.001764
381.5587	0.000853
381.7749	-0.000498
381.9912	-0.000033
382.2075	0.000178
382.4238	-0.000160
382.6401	0.001148
382.8564	0.001022
383.0728	0.000262
383.2891	0.001043
383.5055	0.002098
383.7219	0.000325
383.9382	-0.000055
384.1546	0.001317
384.3711	0.001486
384.5875	0.000325
384.8039	0.001001
385.0204	0.001359
385.2368	0.000747
385.4533	0.000937
385.6698	0.000220
385.8863	0.001444
386.1028	0.000093
386.3194	0.003238
386.5359	0.001106
386.7525	0.000853
386.9690	0.001296
387.1856	0.001212
387.4022	0.001064
387.6188	0.003069
387.8355	0.002267
388.0521	0.001022
388.2687	0.002035
388.4854	0.002499
388.7021	0.002267
388.9188	0.003406
389.1355	0.002330
389.3522	0.002900
389.5689	0.002415
389.7856	0.003533
390.0024	0.004145
390.2192	0.002393
390.4359	0.003491
390.6527	0.004715
390.8695	0.003850
391.0863	0.003660
391.3032	0.004230
391.5200	0.005031
391.7369	0.005264
391.9537	0.006783
392.1706	0.005348
392.3875	0.006614
392.6044	0.007902
392.8213	0.006804
393.0383	0.005939
393.2552	0.008514
393.4722	0.007479
393.6891	0.009611
393.9061	0.006403
394.1231	0.008134
394.3401	0.009611
394.5572	0.009484
394.7742	0.010561
394.9912	0.010603
395.2083	0.009864
395.4254	0.009231
395.6425	0.011046
395.8596	0.010814
396.0767	0.012038
396.2938	0.011658
396.5109	0.012439
396.7281	0.011932
396.9453	0.013009
397.1624	0.013030
397.3796	0.013051
397.5968	0.015879
397.8140	0.015647
398.0313	0.015499
398.2485	0.016617
398.4658	0.016871
398.6830	0.017187
398.9003	0.018031
399.1176	0.018031
399.3349	0.018474
399.5522	0.019086
399.7696	0.018791
399.9869	0.018031
400.2043	0.017060
400.4216	0.019424
400.6390	0.018770
400.8564	0.019614
401.0738	0.019804
401.2912	0.021112
401.5087	0.021112
401.7261	0.020944
401.9436	0.020564
402.1610	0.021661
402.3785	0.021956
402.5960	0.021893
402.8135	0.022210
403.0310	0.022695
403.2486	0.022125
403.4661	0.020796
403.6837	0.021260
403.9013	0.024088
404.1189	0.024447
404.3365	0.023982
404.5541	0.022168
404.7717	0.024658
404.9893	0.025270
405.2070	0.025882
405.4246	0.025417
405.6423	0.025755
405.8600	0.026684
406.0777	0.025375
406.2954	0.025924
406.5131	0.024489
406.7309	0.026620
406.9486	0.023898
407.1664	0.024827
407.3842	0.025818
407.6020	0.024151
407.8198	0.023708
408.0376	0.024700
408.2554	0.025650
408.4733	0.024995
408.6911	0.026409
408.9090	0.027042
409.1269	0.026620
409.3448	0.026641
409.5627	0.028309
409.7806	0.028330
409.9985	0.026916
410.2165	0.026409
410.4344	0.026051
410.6524	0.027549
410.8704	0.026198
411.0884	0.027085
411.3064	0.026684
411.5244	0.025375
411.7424	0.025228
411.9605	0.027612
412.1785	0.028794
412.3966	0.028942
412.6147	0.029406
412.8328	0.030440
413.0509	0.031685
413.2690	0.029828
413.4871	0.028731
413.7053	0.028140
413.9234	0.028963
414.1416	0.031115
414.3598	0.030947
414.5780	0.029111
414.7962	0.028625
415.0144	0.030630
415.2326	0.029279
415.4509	0.030736
415.6692	0.029554
415.8874	0.028667
416.1057	0.030440
416.3240	0.028815
416.5423	0.029976
416.7606	0.027464
416.9790	0.031052
417.1973	0.028055
417.4157	0.030039
417.6341	0.028646
417.8524	0.028836
418.0708	0.029406
418.2893	0.029807
418.5077	0.030335
418.7261	0.030271
418.9446	0.029891
419.1630	0.030525
419.3815	0.030187
419.6000	0.029406
419.8185	0.029638
420.0370	0.031770
420.2555	0.031622
420.4741	0.031981
420.6926	0.033310
420.9112	0.033542
421.1298	0.033627
421.3483	0.036349
421.5669	0.033774
421.7856	0.035927
422.0042	0.037636
422.2228	0.039071
422.4415	0.038333
422.6601	0.035695
422.8788	0.035547
423.0975	0.035020
423.3162	0.033796
423.5349	0.034640
423.7536	0.032403
423.9724	0.032128
424.1911	0.030989
424.4099	0.034302
424.6287	0.032445
424.8475	0.033500
425.0663	0.033141
425.2851	0.034281
425.5039	0.032719
425.7228	0.032550
425.9416	0.031791
426.1605	0.029744
426.3793	0.030250
426.5982	0.030672
426.8171	0.031664
427.0361	0.031537
427.2550	0.029301
427.4739	0.031664
427.6929	0.031622
427.9118	0.031664
428.1308	0.033711
428.3498	0.030313
428.5688	0.029596
428.7878	0.032086
429.0068	0.031010
429.2259	0.031348
429.4449	0.033247
429.6640	0.036623
429.8831	0.033985
430.1022	0.035674
430.3213	0.037489
430.5404	0.039683
430.7595	0.035695
430.9787	0.035589
431.1978	0.035969
431.4170	0.033500
431.6362	0.032508
431.8553	0.030609
432.0745	0.030102
432.2938	0.031052
432.5130	0.028815
432.7322	0.028984
432.9515	0.027718
433.1707	0.027042
433.3900	0.030187
433.6093	0.032403
433.8286	0.036750
434.0479	0.034555
434.2673	0.030588
434.4866	0.031010
434.7059	0.031749
434.9253	0.029934
435.1447	0.029596
435.3641	0.030651
435.5835	0.030461
435.8029	0.029891
436.0223	0.028963
436.2418	0.031643
436.4612	0.031284
436.6807	0.033141
436.9001	0.032445
437.1196	0.031242
437.3391	0.030503
437.5586	0.033880
437.7782	0.030250
437.9977	0.028013
438.2173	0.032508
438.4368	0.031369
438.6564	0.030567
438.8760	0.029680
439.0956	0.030588
439.3152	0.029786
439.5348	0.030102
439.7545	0.031917
439.9741	0.030862
440.1938	0.029596
440.4135	0.030398
440.6331	0.029111
440.8528	0.030693
441.0725	0.031580
441.2923	0.034703
441.5120	0.035674
441.7318	0.035800
441.9515	0.035167
442.1713	0.035442
442.3911	0.032593
442.6109	0.033796
442.8307	0.033542
443.0505	0.032951
443.2703	0.033078
443.4902	0.031706
443.7101	0.034597
443.9299	0.034070
444.1498	0.032255
444.3697	0.030567
444.5896	0.034218
444.8095	0.033922
445.0295	0.033753
445.2494	0.032719
445.4694	0.029385
445.6894	0.032318
445.9093	0.031896
446.1293	0.030588
446.3493	0.032107
446.5694	0.031453
446.7894	0.031326
447.0094	0.030609
447.2295	0.030799
447.4496	0.029469
447.6696	0.030968
447.8897	0.029723
448.1098	0.030166
448.3300	0.030503
448.5501	0.028499
448.7702	0.028119
448.9904	0.029913
449.2106	0.028794
449.4307	0.027676
449.6509	0.029385
449.8711	0.028900
450.0914	0.027486
450.3116	0.026135
450.5318	0.026388
450.7521	0.026684
450.9724	0.027042
451.1926	0.026663
451.4129	0.025439
451.6332	0.024784
451.8535	0.025312
452.0739	0.025776
452.2942	0.025206
452.5146	0.025101
452.7349	0.022083
452.9553	0.023729
453.1757	0.024616
453.3961	0.022252
453.6165	0.023223
453.8369	0.023075
454.0574	0.023792
454.2778	0.022083
454.4983	0.023877
454.7188	0.019994
454.9393	0.021978
455.1597	0.021239
455.3803	0.022758
455.6008	0.021682
455.8213	0.021492
456.0419	0.022252
456.2624	0.021534
456.4830	0.021661
456.7036	0.019551
456.9242	0.021471
457.1448	0.021260
457.3654	0.021999
457.5860	0.021112
457.8067	0.021197
458.0274	0.020416
458.2480	0.022801
458.4687	0.022547
458.6894	0.020268
458.9101	0.022695
459.1308	0.021155
459.3516	0.022526
459.5723	0.020268
459.7931	0.023033
460.0138	0.021893
460.2346	0.020775
460.4554	0.020289
460.6762	0.020353
460.8970	0.019994
461.1178	0.020500
461.3387	0.019424
461.5595	0.017546
461.7804	0.019635
462.0013	0.018728
462.2222	0.017905
462.4431	0.016090
462.6640	0.018284
462.8849	0.017440
463.1059	0.016638
463.3268	0.014845
463.5478	0.016744
463.7687	0.016807
463.9897	0.017883
464.2107	0.017715
464.4317	0.016470
464.6528	0.017187
464.8738	0.018791
465.0948	0.017483
465.3159	0.017229
465.5370	0.017504
465.7581	0.018137
465.9792	0.018685
466.2003	0.016681
466.4214	0.015794
466.6425	0.015457
466.8637	0.015520
467.0848	0.014612
467.3060	0.014992
467.5272	0.013262
467.7484	0.014444
467.9696	0.013114
468.1908	0.012397
468.4120	0.012692
468.6333	0.013051
468.8545	0.011109
469.0758	0.010392
469.2970	0.013262
469.5183	0.013283
469.7396	0.011785
469.9610	0.010328
470.1823	0.011194
470.4036	0.011046
470.6250	0.011679
470.8463	0.009885
471.0677	0.010645
471.2891	0.011004
471.5105	0.010518
471.7319	0.010012
471.9533	0.009442
472.1748	0.010814
472.3962	0.009189
472.6177	0.009231
472.8391	0.011742
473.0606	0.010371
473.2821	0.010518
473.5036	0.009927
473.7251	0.011510
473.9467	0.010940
474.1682	0.010434
474.3898	0.010392
474.6113	0.008936
474.8329	0.009970
475.0545	0.010096
475.2761	0.010096
475.4977	0.009210
475.7193	0.011004
475.9410	0.008957
476.1626	0.010539
476.3843	0.007690
476.6060	0.008914
476.8277	0.009632
477.0494	0.007437
477.2711	0.008957
477.4928	0.010223
477.7145	0.010054
477.9363	0.008197
478.1580	0.007479
478.3798	0.008007
478.6016	0.007859
478.8234	0.010138
479.0452	0.007902
479.2670	0.007332
479.4888	0.007268
479.7107	0.007437
479.9325	0.007353
480.1544	0.009315
480.3763	0.006108
480.5982	0.008556
480.8201	0.008218
481.0420	0.007669
481.2639	0.007585
481.4859	0.008471
481.7078	0.006277
481.9298	0.008577
482.1517	0.008134
482.3737	0.006910
482.5957	0.007163
482.8177	0.007311
483.0398	0.006678
483.2618	0.006551
483.4838	0.005833
483.7059	0.007437
483.9280	0.006340
484.1501	0.007458
484.3721	0.007353
484.5943	0.006234
484.8164	0.006846
485.0385	0.006910
485.2606	0.007015
485.4828	0.009885
485.7050	0.017187
485.9271	0.019213
486.1493	0.022801
486.3715	0.016976
486.5937	0.013642
486.8160	0.011721
487.0382	0.013895
487.2605	0.012671
487.4827	0.009590
487.7050	0.006804
487.9273	0.005749
488.1496	0.006340
488.3719	0.005939
488.5942	0.004842
488.8165	0.006445
489.0389	0.007627
489.2612	0.004694
489.4836	0.005137
489.7060	0.003934
489.9284	0.005200
490.1508	0.005242
490.3732	0.005369
490.5956	0.004842
490.8180	0.005348
491.0405	0.004736
491.2630	0.006298
491.4854	0.004799
491.7079	0.007226
491.9304	0.005496
492.1529	0.005728
492.3755	0.005179
492.5980	0.004968
492.8205	0.003723
493.0431	0.004335
493.2657	0.005559
493.4882	0.005665
493.7108	0.006002
493.9334	0.003807
494.1561	0.003575
494.3787	0.006023
494.6013	0.005264
494.8240	0.004989
495.0466	0.004652
495.2693	0.004208
495.4920	0.002816
495.7147	0.002689
495.9374	0.005264
496.1601	0.004230
496.3829	0.003280
496.6056	0.005116
496.8284	0.004778
497.0511	0.003934
497.2739	0.003428
497.4967	0.003639
497.7195	0.003596
497.9423	0.003428
498.1652	0.002541
498.3880	0.002668
498.6109	0.003343
498.8337	0.003807
499.0566	0.003406
499.2795	0.003723
499.5024	0.003428
499.7253	0.004504
499.9482	0.004673
500.1712	0.005348
500.3941	0.003449
500.6171	0.004293
500.8400	0.004398
501.0630	0.003786
501.2860	0.004441
501.5090	0.004187
501.7320	0.003343
501.9551	0.002837
502.1781	0.003132
502.4012	0.004187
502.6242	0.003744
502.8473	0.004842
503.0704	0.004356
503.2935	0.004652
503.5166	0.004166
503.7397	0.005854
503.9628	0.002963
504.1860	0.005496
504.4092	0.002942
504.6323	0.003829
504.8555	0.003575
505.0787	0.004018
505.3019	0.003027
505.5251	0.002689
505.7483	0.003406
505.9716	0.003512
506.1948	0.003238
506.4181	0.003533
506.6414	0.003976
506.8647	0.001592
507.0880	0.003027
507.3113	0.003744
507.5346	0.003111
507.7579	0.002436
507.9813	0.002415
508.2046	0.003533
508.4280	0.000726
508.6514	0.004251
508.8748	0.003322
509.0982	0.003027
509.3216	0.002499
509.5450	0.003934
509.7685	0.002773
509.9919	0.002794
510.2154	0.002415
510.4388	0.003449
510.6623	0.002626
510.8858	0.003280
511.1093	0.002056
511.3329	0.004103
511.5564	0.003470
511.7799	0.003850
512.0035	0.001655
512.2270	0.003238
512.4506	0.002393
512.6742	0.002541
512.8978	0.003385
513.1214	0.002689
513.3451	0.004018
513.5687	0.004419
513.7923	0.001739
514.0160	0.004419
514.2397	0.003786
514.4634	0.003153
514.6871	0.002415
514.9108	0.002014
515.1345	0.002858
515.3582	0.004040
515.5819	0.002731
515.8057	0.003449
516.0295	0.005031
516.2532	0.003829
516.4770	0.002267
516.7008	0.004694
516.9246	0.003512
517.1485	0.003343
517.3723	0.002900
517.5961	0.003744
517.8200	0.004483
518.0439	0.003132
518.2677	0.003343
518.4916	0.002647
518.7155	0.003807
518.9395	0.003027
519.1634	0.003723
519.3873	0.004251
519.6113	0.003765
519.8352	0.004272
520.0592	0.003280
520.2832	0.003660
520.5072	0.003048
520.7312	0.003470
520.9552	0.003259
521.1792	0.003217
521.4033	0.003343
521.6273	0.003174
521.8514	0.003554
522.0755	0.002520
522.2996	0.002879
522.5237	0.003934
522.7478	0.003533
522.9719	0.004124
523.1960	0.003364
523.4202	0.003723
523.6443	0.004145
523.8685	0.003807
524.0927	0.003554
524.3169	0.002794
524.5411	0.002984
524.7653	0.005095
524.9895	0.004652
525.2138	0.003385
525.4380	0.004208
525.6623	0.003280
525.8865	0.003850
526.1108	0.004377
526.3351	0.006129
526.5594	0.003533
526.7837	0.004356
527.0081	0.003850
527.2324	0.003934
527.4568	0.003913
527.6811	0.004694
527.9055	0.004314
528.1299	0.006509
528.3543	0.003955
528.5787	0.004926
528.8031	0.005432
529.0276	0.004272
529.2520	0.007121
529.4765	0.005200
529.7009	0.006931
529.9254	0.006108
530.1499	0.003744
530.3744	0.005053
530.5989	0.004082
530.8234	0.005686
531.0480	0.005496
531.2725	0.004525
531.4971	0.004082
531.7217	0.005728
531.9462	0.005643
532.1708	0.006002
532.3954	0.006994
532.6200	0.006340
532.8447	0.007627
533.0693	0.004884
533.2940	0.005939
533.5186	0.005833
533.7433	0.008598
533.9680	0.007290
534.1927	0.007522
534.4174	0.007627
534.6421	0.007332
534.8668	0.008535
535.0916	0.009147
535.3163	0.008703
535.5411	0.008113
535.7659	0.008028
535.9907	0.006889
536.2155	0.007944
536.4403	0.006804
536.6651	0.009126
536.8899	0.008345
537.1148	0.007754
537.3396	0.008746
537.5645	0.007733
537.7894	0.007712
538.0143	0.009062
538.2392	0.008788
538.4641	0.009379
538.6890	0.010075
538.9139	0.009970
539.1389	0.010054
539.3638	0.010434
539.5888	0.011552
539.8138	0.010223
540.0388	0.010138
540.2638	0.009885
540.4888	0.011299
540.7138	0.010835
540.9389	0.010962
541.1639	0.012375
541.3890	0.011763
541.6140	0.011384
541.8391	0.012354
542.0642	0.012312
542.2893	0.012587
542.5144	0.013114
542.7396	0.013093
542.9647	0.011932
543.1899	0.014275
543.4150	0.014064
543.6402	0.014507
543.8654	0.012945
544.0906	0.015984
544.3158	0.013030
544.5410	0.014127
544.7662	0.013051
544.9915	0.014233
545.2167	0.015562
545.4420	0.014634
545.6673	0.014106
545.8926	0.014697
546.1179	0.014697
546.3432	0.014908
546.5685	0.014823
546.7938	0.013874
547.0192	0.016533
547.2445	0.017039
547.4699	0.017609
547.6953	0.017905
547.9206	0.019065
548.1460	0.021767
548.3715	0.021956
548.5969	0.019551
548.8223	0.019044
549.0478	0.020395
549.2732	0.018854
549.4987	0.017208
549.7242	0.018052
549.9496	0.018664
550.1751	0.019804
550.4007	0.019086
550.6262	0.020775
550.8517	0.017926
551.0773	0.020184
551.3028	0.019994
551.5284	0.019002
551.7540	0.019530
551.9796	0.020901
552.2052	0.020944
552.4308	0.023265
552.6564	0.023581
552.8820	0.022336
553.1077	0.022991
553.3333	0.023202
553.5590	0.024404
553.7847	0.024721
554.0104	0.023982
554.2361	0.024616
554.4618	0.025565
554.6875	0.024025
554.9132	0.022568
555.1390	0.023814
555.3648	0.024151
555.5905	0.025840
555.8163	0.026494
556.0421	0.028456
556.2679	0.026346
556.4937	0.027021
556.7195	0.026093
556.9454	0.023370
557.1712	0.025586
557.3971	0.027021
557.6230	0.027443
557.8488	0.026874
558.0747	0.025818
558.3006	0.025861
558.5266	0.027085
558.7525	0.026072
558.9784	0.024215
559.2044	0.025755
559.4303	0.026536
559.6563	0.025249
559.8823	0.028625
560.1083	0.029596
560.3343	0.029744
560.5603	0.032909
560.7863	0.030525
561.0124	0.033732
561.2384	0.037172
561.4645	0.033627
561.6905	0.035969
561.9166	0.034640
562.1427	0.033817
562.3688	0.034682
562.5949	0.034218
562.8211	0.033774
563.0472	0.034408
563.2733	0.035294
563.4995	0.037130
563.7257	0.035484
563.9519	0.040190
564.1781	0.038755
564.4043	0.039683
564.6305	0.040021
564.8567	0.040633
565.0829	0.041920
565.3092	0.042554
565.5355	0.039852
565.7617	0.040528
565.9880	0.042131
566.2143	0.043081
566.4406	0.042849
566.6669	0.044727
566.8932	0.044474
567.1196	0.049940
567.3459	0.053232
567.5723	0.056714
567.7987	0.055363
568.0250	0.054477
568.2514	0.059268
568.4778	0.063446
568.7043	0.068891
568.9307	0.070769
569.1571	0.072246
569.3836	0.075749
569.6100	0.088116
569.8365	0.095861
570.0630	0.104872
570.2895	0.104176
570.5160	0.108460
570.7425	0.108101
570.9690	0.115086
571.1956	0.123950
571.4221	0.123802
571.6487	0.127643
571.8752	0.132771
572.1018	0.144083
572.3284	0.140938
572.5550	0.130450
572.7816	0.124499
573.0082	0.118737
573.2349	0.127305
573.4615	0.143344
573.6882	0.156259
573.9149	0.157631
574.1415	0.162316
574.3682	0.168732
574.5949	0.174408
574.8216	0.174324
575.0484	0.181520
575.2751	0.175822
575.5018	0.177089
575.7286	0.174788
575.9554	0.163836
576.1821	0.162316
576.4089	0.163013
576.6357	0.176223
576.8626	0.185678
577.0894	0.188485
577.3162	0.192262
577.5431	0.198593
577.7699	0.214885
577.9968	0.250613
578.2237	0.241876
578.4505	0.235482
578.6774	0.216700
578.9044	0.205093
579.1313	0.192178
579.3582	0.201315
579.5851	0.203806
579.8121	0.212479
580.0391	0.211846
580.2660	0.214547
580.4930	0.212817
580.7200	0.205473
580.9470	0.208195
581.1741	0.244303
581.4011	0.293285
581.6281	0.327810
581.8552	0.325763
582.0822	0.323864
582.3093	0.311560
582.5364	0.290921
582.7635	0.263993
582.9906	0.245485
583.2177	0.226197
583.4449	0.214273
583.6720	0.199395
583.8991	0.196588
584.1263	0.198466
584.3535	0.201611
584.5807	0.206802
584.8079	0.216447
585.0351	0.227020
585.2623	0.236474
585.4895	0.241665
585.7167	0.240927
585.9440	0.229847
586.1713	0.220161
586.3985	0.208491
586.6258	0.200914
586.8531	0.203109
587.0804	0.214505
587.3077	0.227125
587.5350	0.234870
587.7624	0.230248
587.9897	0.221279
588.2171	0.211551
588.4445	0.205030
588.6718	0.200598
588.8992	0.188822
589.1266	0.182048
589.3540	0.170779
589.5815	0.166727
589.8089	0.168457
590.0363	0.162443
590.2638	0.156808
590.4913	0.149401
590.7187	0.148557
590.9462	0.142099
591.1737	0.135620
591.4012	0.133046
591.6288	0.138849
591.8563	0.135747
592.0838	0.134586
592.3114	0.135683
592.5389	0.157526
592.7665	0.182765
592.9941	0.204228
593.2217	0.207393
593.4493	0.201273
593.6769	0.202750
593.9046	0.194921
594.1322	0.184306
594.3598	0.173501
594.5875	0.174324
594.8152	0.183441
595.0429	0.195681
595.2705	0.200746
595.4983	0.198129
595.7260	0.187556
595.9537	0.173374
596.1814	0.167170
596.4092	0.153220
596.6369	0.146214
596.8647	0.145729
597.0925	0.149570
597.3203	0.149654
597.5481	0.157821
597.7759	0.152904
598.0037	0.145032
598.2315	0.143070
598.4594	0.141951
598.6872	0.160311
598.9151	0.180106
599.1430	0.188400
599.3709	0.186480
599.5988	0.177257
599.8267	0.183082
600.0546	0.185994
600.2825	0.187028
600.5105	0.183926
600.7384	0.185467
600.9664	0.187282
601.1944	0.190721
601.4223	0.182660
601.6503	0.177785
601.8783	0.171222
602.1064	0.172108
602.3344	0.171348
602.5624	0.171939
602.7905	0.176223
603.0185	0.176434
603.2466	0.183040
603.4747	0.193950
603.7028	0.193233
603.9309	0.188463
604.1590	0.175168
604.3871	0.166959
604.6152	0.162696
604.8434	0.157990
605.0715	0.156323
605.2997	0.158707
605.5279	0.166368
605.7561	0.173649
605.9843	0.178038
606.2125	0.174683
606.4407	0.164004
606.6689	0.158454
606.8972	0.157821
607.1254	0.163055
607.3537	0.158412
607.5819	0.164047
607.8102	0.160227
608.0385	0.158813
608.2668	0.153136
608.4951	0.150013
608.7235	0.148789
608.9518	0.146552
609.1801	0.141951
609.4085	0.137773
609.6369	0.132307
609.8653	0.142162
610.0936	0.151110
610.3220	0.156386
610.5505	0.148430
610.7789	0.142036
611.0073	0.141550
611.2357	0.140221
611.4642	0.135958
611.6927	0.139799
611.9211	0.138490
612.1496	0.137920
612.3781	0.130492
612.6066	0.132117
612.8351	0.132898
613.0637	0.133278
613.2922	0.130703
613.5208	0.131906
613.7493	0.129310
613.9779	0.130218
614.2065	0.130682
614.4351	0.133003
614.6637	0.126292
614.8923	0.130386
615.1209	0.127727
615.3495	0.129859
615.5782	0.130091
615.8068	0.132370
616.0355	0.127559
616.2642	0.122409
616.4929	0.116247
616.7216	0.112174
616.9503	0.109916
617.1790	0.112702
617.4077	0.112301
617.6365	0.111035
617.8652	0.110992
618.0940	0.114939
618.3227	0.109663
618.5515	0.103606
618.7803	0.098605
619.0091	0.094468
619.2379	0.091028
619.4667	0.092696
619.6956	0.091894
619.9244	0.098035
620.1533	0.096515
620.3821	0.102150
620.6110	0.098267
620.8399	0.091788
621.0688	0.083558
621.2977	0.075222
621.5266	0.075158
621.7556	0.079485
621.9845	0.084655
622.2135	0.082228
622.4424	0.084866
622.6714	0.081806
622.9004	0.088179
623.1294	0.089235
623.3584	0.089382
623.5874	0.088623
623.8164	0.091113
624.0454	0.086892
624.2745	0.090374
624.5035	0.092041
624.7326	0.093054
624.9617	0.095355
625.1908	0.089741
625.4199	0.086153
625.6490	0.083727
625.8781	0.080266
626.1072	0.078261
626.3364	0.078619
626.5655	0.072668
626.7947	0.072732
627.0238	0.069988
627.2530	0.072120
627.4822	0.070642
627.7114	0.072267
627.9406	0.068279
628.1698	0.065915
628.3991	0.063741
628.6283	0.059964
628.8576	0.058550
629.0868	0.061188
629.3161	0.062074
629.5454	0.062370
629.7747	0.061800
630.0040	0.065008
630.2333	0.061821
630.4626	0.060407
630.6920	0.056841
630.9213	0.055870
631.1507	0.055638
631.3801	0.054076
631.6094	0.053316
631.8388	0.053717
632.0682	0.055258
632.2976	0.055448
632.5271	0.051818
632.7565	0.047196
632.9859	0.046563
633.2154	0.045255
633.4448	0.043503
633.6743	0.047175
633.9038	0.044010
634.1333	0.044917
634.3628	0.042828
634.5923	0.044812
634.8218	0.041878
635.0514	0.039325
635.2809	0.041646
635.5105	0.041604
635.7400	0.041351
635.9696	0.044242
636.1992	0.044242
636.4288	0.045297
636.6584	0.045698
636.8880	0.045761
637.1177	0.044622
637.3473	0.042933
637.5770	0.042448
637.8066	0.041013
638.0363	0.042300
638.2660	0.042554
638.4957	0.043904
638.7254	0.042554
638.9551	0.040591
639.1848	0.043588
639.4145	0.042089
639.6443	0.039161
639.8740	0.037567
640.1038	0.039395
640.3336	0.038389
640.5633	0.036343
640.7931	0.036431
641.0229	0.034994
641.2528	0.035054
641.4826	0.034828
641.7124	0.033762
641.9423	0.032565
642.1721	0.032988
642.4020	0.029718
642.6319	0.031309
642.8617	0.029353
643.0916	0.029432
643.3216	0.030294
643.5515	0.032002
643.7814	0.029532
644.0113	0.030467
644.2413	0.028560
644.4712	0.028373
644.7012	0.027700
644.9312	0.028568
645.1612	0.028308
645.3912	0.027258
645.6212	0.027947
645.8512	0.028023
646.0812	0.027303
646.3113	0.025726
646.5413	0.027604
646.7714	0.025958
647.0015	0.025084
647.2316	0.026105
647.4616	0.026259
647.6918	0.025864
647.9219	0.027789
648.1520	0.028679
648.3821	0.032240
648.6123	0.033917
648.8424	0.033388
649.0726	0.034033
649.3028	0.035827
649.5329	0.036059
649.7631	0.034887
649.9933	0.032465
650.2236	0.030048
650.4538	0.029728
650.6840	0.028628
650.9143	0.029536
651.1445	0.029776
651.3748	0.029730
651.6051	0.030249
651.8354	0.031537
652.0657	0.031756
652.2960	0.030421
652.5263	0.032833
652.7566	0.031634
652.9870	0.030794
653.2173	0.032602
653.4477	0.033044
653.6780	0.035464
653.9084	0.032904
654.1388	0.034614
654.3692	0.035175
654.5996	0.036002
654.8300	0.042566
655.0605	0.067105
655.2909	0.191702
655.5213	0.526678
655.7518	0.957806
655.9823	1.000000
656.2128	1.000000
656.4433	1.000000
656.6738	1.000000
656.9043	1.000000
657.1348	0.882185
657.3653	0.716277
657.5959	0.616787
657.8264	0.533588
658.0570	0.487263
658.2875	0.457528
658.5181	0.414197
658.7487	0.387900
658.9793	0.370899
659.2099	0.337979
659.4406	0.257592
659.6712	0.169166
659.9018	0.099789
660.1325	0.063580
660.3632	0.041018
660.5938	0.032573
660.8245	0.027568
661.0552	0.026362
661.2859	0.024712
661.5166	0.023548
661.7474	0.023826
661.9781	0.021810
662.2088	0.023113
662.4396	0.022227
662.6704	0.023231
662.9011	0.023399
663.1319	0.020802
663.3627	0.022823
663.5935	0.023994
663.8243	0.023892
664.0552	0.022066
664.2860	0.022920
664.5168	0.024133
664.7477	0.022338
664.9786	0.024823
665.2094	0.025150
665.4403	0.026028
665.6712	0.022333
665.9021	0.024169
666.1330	0.027153
666.3640	0.024629
666.5949	0.023093
666.8259	0.020679
667.0568	0.021634
667.2878	0.021322
667.5188	0.022990
667.7497	0.022587
667.9807	0.023873
668.2117	0.020963
668.4428	0.020416
668.6738	0.021767
668.9048	0.022822
669.1359	0.021007
669.3669	0.020796
669.5980	0.022357
669.8291	0.021492
670.0602	0.023075
670.2913	0.023856
670.5224	0.022442
670.7535	0.023771
670.9846	0.021577
671.2157	0.024299
671.4469	0.026051
671.6781	0.030672
671.9092	0.030102
672.1404	0.030419
672.3716	0.032382
672.6028	0.033711
672.8340	0.034787
673.0652	0.035674
673.2964	0.031727
673.5277	0.031305
673.7589	0.029701
673.9902	0.031010
674.2214	0.029448
674.4527	0.029153
674.6840	0.027654
674.9153	0.024995
675.1466	0.027380
675.3779	0.028393
675.6093	0.026283
675.8406	0.028541
676.0719	0.026367
676.3033	0.026937
676.5347	0.025607
676.7661	0.024236
676.9974	0.024320
677.2288	0.023961
677.4602	0.024573
677.6917	0.026536
677.9231	0.028773
678.1545	0.029258
678.3860	0.030271
678.6174	0.030018
678.8489	0.030799
679.0804	0.032783
679.3119	0.033838
679.5434	0.034239
679.7749	0.034914
680.0064	0.034851
680.2379	0.035421
680.4694	0.035505
680.7010	0.035969
680.9325	0.032930
681.1641	0.035167
681.3957	0.037658
681.6273	0.034682
681.8589	0.035125
682.0905	0.034218
682.3221	0.033943
682.5537	0.032297
682.7854	0.030968
683.0170	0.029174
683.2487	0.030292
683.4803	0.033648
683.7120	0.033289
683.9437	0.031812
684.1754	0.032614
684.4071	0.034619
684.6388	0.038037
684.8705	0.038333
685.1023	0.040718
685.3340	0.043081
685.5658	0.045086
685.7975	0.046732
686.0293	0.044664
686.2611	0.042807
686.4929	0.043355
686.7247	0.044221
686.9565	0.043208
687.1883	0.046373
687.4202	0.044368
687.6520	0.042195
687.8838	0.042216
688.1157	0.039620
688.3476	0.041287
688.5795	0.039515
688.8114	0.039282
689.0433	0.037446
689.2752	0.038945
689.5071	0.036834
689.7390	0.034977
689.9710	0.035209
690.2029	0.034028
690.4349	0.034893
690.6669	0.033838
690.8988	0.034386
691.1308	0.039261
691.3628	0.038776
691.5948	0.037763
691.8269	0.040190
692.0589	0.037742
692.2909	0.039071
692.5230	0.039346
692.7550	0.038692
692.9871	0.039979
693.2192	0.040380
693.4513	0.039979
693.6834	0.038565
693.9155	0.038818
694.1476	0.035146
694.3797	0.034830
694.6119	0.033563
694.8440	0.034597
695.0762	0.036138
695.3083	0.035906
695.5405	0.032635
695.7727	0.029512
696.0049	0.030145
696.2371	0.029701
696.4693	0.030124
696.7016	0.035526
696.9338	0.040042
697.1660	0.041034
697.3983	0.040528
697.6306	0.036623
697.8628	0.040612
698.0951	0.039093
698.3274	0.038101
698.5597	0.038354
698.7920	0.039282
699.0243	0.037067
699.2567	0.037003
699.4890	0.036434
699.7214	0.035737
699.9537	0.033732
700.1861	0.031938
700.4185	0.032508
700.6509	0.030039
700.8833	0.032086
701.1157	0.028288
701.3481	0.028794
701.5806	0.030335
701.8130	0.028710
702.0454	0.030482
702.2779	0.030651
702.5104	0.030398
702.7429	0.030904
702.9753	0.032529
703.2078	0.031580
703.4403	0.029807
703.6729	0.028984
703.9054	0.029026
704.1379	0.027211
704.3705	0.027739
704.6030	0.027633
704.8356	0.025818
705.0682	0.025460
705.3008	0.025734
705.5334	0.025228
705.7660	0.024805
705.9986	0.026937
706.2312	0.027823
706.4638	0.030588
706.6965	0.034112
706.9291	0.037869
707.1618	0.037700
707.3945	0.039219
707.6272	0.037869
707.8599	0.038333
708.0926	0.037151
708.3253	0.037890
708.5580	0.038459
708.7907	0.037869
709.0235	0.035906
709.2562	0.031981
709.4890	0.034914
709.7217	0.034386
709.9545	0.034977
710.1873	0.033606
710.4201	0.033310
710.6529	0.034492
710.8857	0.036096
711.1186	0.033859
711.3514	0.033099
711.5842	0.032403
711.8171	0.031664
712.0500	0.026895
712.2828	0.028393
712.5157	0.030124
712.7486	0.029807
712.9815	0.029153
713.2144	0.029807
713.4474	0.032951
713.6803	0.032593
713.9132	0.034112
714.1462	0.034956
714.3791	0.034956
714.6121	0.034408
714.8451	0.035843
715.0781	0.037235
715.3111	0.036096
715.5441	0.034851
715.7771	0.032614
716.0102	0.032213
716.2432	0.030672
716.4762	0.030841
716.7093	0.027697
716.9424	0.028541
717.1754	0.030313
717.4085	0.028288
717.6416	0.028984
717.8747	0.027697
718.1078	0.030736
718.3410	0.030187
718.5741	0.028942
718.8072	0.026768
719.0404	0.031495
719.2736	0.032635
719.5067	0.030968
719.7399	0.030588
719.9731	0.030039
720.2063	0.028330
720.4395	0.028836
720.6727	0.030968
720.9060	0.028963
721.1392	0.030672
721.3725	0.029596
721.6057	0.030588
721.8390	0.031411
722.0723	0.031411
722.3055	0.028435
722.5388	0.029301
722.7721	0.026768
723.0055	0.028541
723.2388	0.028604
723.4721	0.028161
723.7055	0.028372
723.9388	0.030166
724.1722	0.027232
724.4056	0.028140
724.6389	0.028288
724.8723	0.028604
725.1057	0.031221
725.3391	0.031453
725.5726	0.031305
725.8060	0.033985
726.0394	0.034091
726.2729	0.033268
726.5063	0.032149
726.7398	0.034049
726.9733	0.031537
727.2068	0.032044
727.4403	0.031749
727.6738	0.032339
727.9073	0.032867
728.1408	0.032255
728.3743	0.034640
728.6079	0.036328
728.8414	0.034914
729.0750	0.034724
729.3086	0.036455
729.5421	0.035442
729.7757	0.038755
730.0093	0.038016
730.2429	0.038459
730.4766	0.037847
730.7102	0.041498
730.9438	0.042153
731.1775	0.043060
731.4111	0.043693
731.6448	0.043081
731.8785	0.042807
732.1122	0.041456
732.3458	0.039683
732.5795	0.039304
732.8133	0.044368
733.0470	0.043862
733.2807	0.044200
733.5145	0.045360
733.7482	0.045909
733.9820	0.046394
734.2157	0.052050
734.4495	0.048062
734.6833	0.050446
734.9171	0.046838
735.1509	0.046859
735.3847	0.048969
735.6185	0.047829
735.8524	0.046774
736.0862	0.050235
736.3201	0.048885
736.5539	0.048885
736.7878	0.047428
737.0217	0.049370
737.2556	0.050446
737.4895	0.048589
737.7234	0.045529
737.9573	0.043208
738.1912	0.041498
738.4252	0.041393
738.6591	0.042342
738.8931	0.041857
739.1271	0.046394
739.3610	0.047428
739.5950	0.048040
739.8290	0.047323
740.0630	0.044664
740.2970	0.042680
740.5310	0.042047
740.7651	0.040127
740.9991	0.039050
741.2332	0.037235
741.4672	0.036096
741.7013	0.034809
741.9354	0.031938
742.1695	0.035188
742.4036	0.035885
742.6377	0.036497
742.8718	0.036434
743.1059	0.035484
743.3400	0.033627
743.5742	0.034534
743.8083	0.030229
744.0425	0.030482
744.2767	0.029723
744.5108	0.030208
744.7450	0.028435
744.9792	0.031326
745.2134	0.029427
745.4477	0.029891
745.6819	0.026029
745.9161	0.028794
746.1504	0.030102
746.3846	0.029765
746.6189	0.028520
746.8532	0.027464
747.0874	0.029469
747.3217	0.033458
747.5560	0.032951
747.7903	0.033458
748.0247	0.031432
748.2590	0.029807
748.4933	0.029068
748.7277	0.028161
748.9620	0.032255
749.1964	0.031875
749.4308	0.033289
749.6652	0.034619
749.8995	0.036180
750.1339	0.039789
750.3684	0.042068
750.6028	0.041013
750.8372	0.040464
751.0717	0.039810
751.3061	0.039346
751.5406	0.040084
751.7750	0.040929
752.0095	0.041308
752.2440	0.039958
752.4785	0.039029
752.7130	0.038354
752.9475	0.037257
753.1820	0.037847
753.4166	0.037594
753.6511	0.041287
753.8856	0.045044
754.1202	0.043883
754.3548	0.040612
754.5894	0.038459
754.8239	0.041182
755.0585	0.042005
755.2931	0.041794
755.5278	0.042680
755.7624	0.041878
755.9970	0.043292
756.2317	0.045761
756.4663	0.050784
756.7010	0.049813
756.9356	0.053949
757.1703	0.053844
757.4050	0.056165
757.6397	0.058444
757.8744	0.061568
758.1091	0.057263
758.3438	0.057832
758.5786	0.054055
758.8133	0.053886
759.0481	0.054287
759.2828	0.055469
759.5176	0.060428
759.7524	0.061293
759.9872	0.060513
760.2220	0.063214
760.4568	0.065198
760.6916	0.063087
760.9264	0.060914
761.1613	0.062560
761.3961	0.060302
761.6310	0.054013
761.8658	0.053105
762.1007	0.049813
762.3356	0.048948
762.5705	0.049096
762.8054	0.050235
763.0403	0.048652
763.2752	0.052346
763.5101	0.053316
763.7450	0.050235
763.9800	0.050594
764.2149	0.052240
764.4499	0.058149
764.6849	0.059268
764.9198	0.059436
765.1548	0.060576
765.3898	0.057558
765.6248	0.057157
765.8599	0.052768
766.0949	0.050003
766.3299	0.045234
766.5650	0.044896
766.8000	0.040929
767.0351	0.039515
767.2701	0.038670
767.5052	0.037531
767.7403	0.039916
767.9754	0.039219
768.2105	0.043229
768.4456	0.048104
768.6808	0.048906
768.9159	0.051122
769.1510	0.050573
769.3862	0.049708
769.6214	0.046669
769.8565	0.044558
770.0917	0.044368
770.3269	0.045381
770.5621	0.046648
770.7973	0.045867
771.0325	0.046036
771.2677	0.049433
771.5030	0.048399
771.7382	0.046521
771.9735	0.041287
772.2087	0.041013
772.4440	0.040021
772.6793	0.043081
772.9146	0.042933
773.1499	0.041203
773.3852	0.039662
773.6205	0.039726
773.8558	0.038291
774.0911	0.037235
774.3265	0.035505
774.5618	0.033416
774.7972	0.032867
775.0326	0.031073
775.2679	0.031791
775.5033	0.029174
775.7387	0.027085
775.9741	0.027359
776.2095	0.028414
776.4450	0.026937
776.6804	0.026768
776.9158	0.023603
777.1513	0.024489
777.3868	0.025945
777.6222	0.026852
777.8577	0.023835
778.0932	0.024869
778.3287	0.026536
778.5642	0.028477
778.7997	0.028435
779.0352	0.029575
779.2707	0.031580
779.5063	0.031580
779.7418	0.032593
779.9774	0.030736
780.2130	0.029174
780.4485	0.030588
780.6841	0.030060
780.9197	0.031559
781.1553	0.032930
781.3909	0.036623
781.6265	0.038016
781.8622	0.034893
782.0978	0.035821
782.3335	0.035294
782.5691	0.034956
782.8048	0.035505
783.0405	0.035632
783.2761	0.034724
783.5118	0.033859
783.7475	0.035041
783.9832	0.034513
784.2190	0.031200
784.4547	0.029174
784.6904	0.028731
784.9262	0.028203
785.1619	0.029512
785.3977	0.029533
785.6335	0.028921
785.8692	0.028921
786.1050	0.030567
786.3408	0.028646
786.5766	0.028330
786.8124	0.025607
787.0483	0.028815
787.2841	0.029047
787.5199	0.030482
787.7558	0.031326
787.9917	0.030588
788.2275	0.032023
788.4634	0.032023
788.6993	0.032783
788.9352	0.034302
789.1711	0.032339
789.4070	0.029301
789.6429	0.028646
789.8789	0.028182
790.1148	0.026240
790.3507	0.026177
790.5867	0.027359
790.8227	0.026135
791.0586	0.024046
791.2946	0.025016
791.5306	0.023476
791.7666	0.025439
792.0026	0.022737
792.2387	0.023666
792.4747	0.023117
792.7107	0.022927
792.9468	0.022653
793.1828	0.023012
793.4189	0.021028
793.6550	0.023370
793.8910	0.026705
794.1271	0.030693
794.3632	0.031960
794.5993	0.031537
794.8355	0.033859
795.0716	0.032171
795.3077	0.033268
795.5439	0.033859
795.7800	0.029659
796.0162	0.027633
796.2523	0.022336
796.4885	0.022991
796.7247	0.023434
796.9609	0.021218
797.1971	0.021197
797.4333	0.024067
797.6695	0.024658
797.9058	0.024489
798.1420	0.023265
798.3783	0.023666
798.6145	0.023666
798.8508	0.022632
799.0871	0.024468
799.3233	0.024193
799.5596	0.021556
799.7959	0.022737
800.0322	0.020648
800.2686	0.022146
800.5049	0.020944
800.7412	0.020521
800.9776	0.020205
801.2139	0.020543
801.4503	0.019551
801.6867	0.020353
801.9230	0.017694
802.1594	0.018073
802.3958	0.016132
802.6322	0.018390
802.8686	0.017483
803.1051	0.019107
803.3415	0.020036
803.5779	0.019361
803.8144	0.019086
804.0508	0.017757
804.2873	0.016871
804.5238	0.016575
804.7603	0.019530
804.9968	0.018622
805.2333	0.015879
805.4698	0.017757
805.7063	0.018179
805.9428	0.018495
806.1794	0.022737
806.4159	0.020669
806.6525	0.022843
806.8890	0.024510
807.1256	0.025016
807.3622	0.023940
807.5988	0.022653
807.8354	0.024594
808.0720	0.022041
808.3086	0.023771
808.5452	0.022695
808.7818	0.023518
809.0185	0.023497
809.2551	0.022822
809.4918	0.022484
809.7284	0.019150
809.9651	0.018010
810.2018	0.021492
810.4385	0.020606
810.6752	0.018896
810.9119	0.018390
811.1486	0.017883
811.3853	0.020564
811.6221	0.018306
811.8588	0.018263
812.0956	0.017968
812.3323	0.015246
812.5691	0.017672
812.8059	0.015372
813.0427	0.015668
813.2795	0.016259
813.5163	0.018052
813.7531	0.017968
813.9899	0.020226
814.2267	0.018116
814.4636	0.020205
814.7004	0.018200
814.9373	0.018474
815.1742	0.016765
815.4110	0.016533
815.6479	0.016702
815.8848	0.015836
816.1217	0.015604
816.3586	0.014634
816.5955	0.016069
816.8324	0.015119
817.0694	0.015562
817.3063	0.015836
817.5433	0.015267
817.7802	0.015668
818.0172	0.014486
818.2542	0.013811
818.4912	0.014760
818.7282	0.013684
818.9652	0.013557
819.2022	0.013241
819.4392	0.011974
819.6762	0.013262
819.9133	0.012270
820.1503	0.014106
820.3874	0.016765
820.6244	0.015836
820.8615	0.017841
821.0986	0.016153
821.3357	0.014612
821.5727	0.015351
821.8099	0.014845
822.0470	0.013895
822.2841	0.014802
822.5212	0.013979
822.7584	0.013979
822.9955	0.012650
823.2327	0.012629
823.4698	0.012840
823.7070	0.011299
823.9442	0.013072
824.1814	0.012143
824.4186	0.011679
824.6558	0.011616
824.8930	0.012608
825.1302	0.010455
825.3675	0.012692
825.6047	0.014971
825.8419	0.012692
826.0792	0.013642
826.3165	0.012882
826.5537	0.013473
826.7910	0.014781
827.0283	0.014465
827.2656	0.012502
827.5029	0.013874
827.7402	0.013789
827.9776	0.013262
828.2149	0.012629
828.4522	0.013262
828.6896	0.012544
828.9270	0.013515
829.1643	0.013199
829.4017	0.011932
829.6391	0.011151
829.8765	0.011996
830.1139	0.011468
830.3513	0.009780
830.5887	0.010244
830.8261	0.010603
831.0636	0.008914
831.3010	0.007986
831.5385	0.008535
831.7759	0.007986
832.0134	0.008978
832.2509	0.009083
832.4884	0.008809
832.7259	0.009020
832.9634	0.009020
833.2009	0.008260
833.4384	0.009337
833.6759	0.008514
833.9135	0.009949
834.1510	0.009927
834.3886	0.011953
834.6261	0.010898
834.8637	0.010561
835.1013	0.011046
835.3389	0.009273
835.5765	0.011067
835.8141	0.011173
836.0517	0.010455
836.2893	0.009104
836.5269	0.009759
836.7646	0.008324
837.0022	0.007923
837.2399	0.008619
837.4775	0.007226
837.7152	0.006530
837.9529	0.008809
838.1906	0.007121
838.4283	0.007902
838.6660	0.004208
838.9037	0.007501
839.1414	0.007585
839.3791	0.008197
839.6169	0.008113
839.8546	0.006298
840.0924	0.007458
840.3302	0.007501
840.5679	0.008387
840.8057	0.008872
841.0435	0.006994
841.2813	0.006889
841.5191	0.005158
841.7569	0.007078
841.9947	0.007057
842.2326	0.007078
842.4704	0.006804
842.7082	0.005981
842.9461	0.005285
843.1840	0.004715
843.4218	0.005897
843.6597	0.005475
843.8976	0.007311
844.1355	0.006488
844.3734	0.005369
844.6113	0.005475
844.8492	0.003807
845.0872	0.005221
845.3251	0.007057
845.5631	0.006931
845.8010	0.005960
846.0390	0.005200
846.2770	0.006192
846.5149	0.005791
846.7529	0.005327
846.9909	0.005432
847.2289	0.004483
847.4669	0.005496
847.7050	0.004588
847.9430	0.005791
848.1810	0.004335
848.4191	0.006382
848.6571	0.005327
848.8952	0.005791
849.1333	0.004673
849.3713	0.006150
849.6094	0.005158
849.8475	0.004820
850.0856	0.004145
850.3237	0.006361
850.5619	0.002626
850.8000	0.005179
851.0381	0.003892
851.2763	0.004398
851.5144	0.005327
851.7526	0.006466
851.9908	0.005981
852.2289	0.006635
852.4671	0.006171
852.7053	0.010138
852.9435	0.010350
853.1817	0.012354
853.4200	0.013895
853.6582	0.014781
853.8964	0.015921
854.1347	0.014211
854.3729	0.015435
854.6112	0.015330
854.8495	0.015224
855.0877	0.012882
855.3260	0.012755
855.5643	0.011974
855.8026	0.012291
856.0409	0.013494
856.2792	0.013114
856.5176	0.012713
856.7559	0.012544
856.9942	0.013177
857.2326	0.011700
857.4710	0.010181
857.7093	0.010286
857.9477	0.010814
858.1861	0.011278
858.4245	0.010919
858.6629	0.009927
858.9013	0.008830
859.1397	0.009231
859.3781	0.009168
859.6166	0.010350
859.8550	0.009970
860.0935	0.006635
860.3319	0.009949
860.5704	0.007163
860.8089	0.007817
861.0473	0.007690
861.2858	0.008007
861.5243	0.008788
861.7628	0.006277
862.0013	0.007606
862.2399	0.007923
862.4784	0.004525
862.7169	0.005095
862.9555	0.005411
863.1940	0.006994
863.4326	0.007437
863.6712	0.007965
863.9098	0.005496
864.1483	0.008049
864.3869	0.005306
864.6255	0.005496
864.8642	0.005179
865.1028	0.005686
865.3414	0.005665
865.5800	0.005749
865.8187	0.004694
866.0573	0.006255
866.2960	0.004588
866.5347	0.005728
866.7733	0.004863
867.0120	0.005749
867.2507	0.005601
867.4894	0.006466
867.7281	0.004483
867.9669	0.006509
868.2056	0.005010
868.4443	0.006614
868.6831	0.005517
868.9218	0.004736
869.1606	0.004905
869.3993	0.005833
869.6381	0.003997
869.8769	0.005939
870.1157	0.005749
870.3545	0.004504
870.5933	0.006129
870.8321	0.006720
871.0709	0.005369
871.3097	0.006572
871.5486	0.004947
871.7874	0.007311
872.0263	0.005390
872.2651	0.006720
872.5040	0.005116
872.7429	0.006656
872.9818	0.005179
873.2207	0.005580
873.4596	0.006023
873.6985	0.004968
873.9374	0.005306
874.1763	0.004799
874.4153	0.005643
874.6542	0.005475
874.8932	0.006530
875.1321	0.005833
875.3711	0.007100
875.6101	0.006298
875.8491	0.005981
876.0880	0.006340
876.3270	0.004483
876.5661	0.005074
876.8051	0.005749
877.0441	0.004504
877.2831	0.007163
877.5222	0.005010
877.7612	0.007121
878.0003	0.007290
878.2393	0.005074
878.4784	0.006593
878.7175	0.005137
878.9566	0.006762
879.1957	0.007290
879.4348	0.007712
879.6739	0.008450
879.9130	0.008978
880.1521	0.009484
880.3913	0.008471
880.6304	0.006931
880.8696	0.008366
881.1087	0.008070
881.3479	0.007479
881.5871	0.007690
881.8262	0.004863
882.0654	0.007627
882.3046	0.006255
882.5438	0.007100
882.7831	0.004820
883.0223	0.006382
883.2615	0.008492
883.5007	0.006846
883.7400	0.006255
883.9792	0.006108
884.2185	0.008345
884.4578	0.005749
884.6971	0.005559
884.9363	0.005369
885.1756	0.005517
885.4149	0.006129
885.6542	0.007606
885.8936	0.007754
886.1329	0.007902
886.3722	0.006445
886.6116	0.006551
886.8509	0.004736
887.0903	0.005285
887.3296	0.006678
887.5690	0.006002
887.8084	0.006382
888.0478	0.006087
888.2872	0.004630
888.5266	0.004715
888.7660	0.005686
889.0054	0.005454
889.2448	0.004905
889.4843	0.004251
889.7237	0.005854
889.9632	0.005327
890.2026	0.005221
890.4421	0.004546
890.6816	0.004926
890.9211	0.004588
891.1606	0.005116
891.4001	0.004293
891.6396	0.006910
891.8791	0.006445
892.1186	0.005327
892.3581	0.005728
892.5977	0.003913
892.8372	0.002562
893.0768	0.005833
893.3163	0.005369
893.5559	0.005918
893.7955	0.006593
894.0351	0.006002
894.2747	0.002309
894.5143	0.004863
894.7539	0.005010
894.9935	0.006277
895.2331	0.004757
895.4727	0.003892
895.7124	0.004905
895.9520	0.005010
896.1917	0.005939
896.4314	0.004842
896.6710	0.004842
896.9107	0.005496
897.1504	0.004694
897.3901	0.005559
897.6298	0.005179
897.8695	0.005411
898.1092	0.003871
898.3489	0.004757
898.5887	0.005074
898.8284	0.005643
899.0682	0.005876
899.3079	0.005876
899.5477	0.003850
899.7875	0.003470
900.0272	0.003871
900.2670	0.005580
900.5068	0.004736
900.7466	0.005010
900.9864	0.004462
901.2263	0.005728
901.4661	0.003934
901.7059	0.005538
901.9458	0.002626
902.1856	0.006002
902.4255	0.004799
902.6654	0.006382
902.9052	0.003343
903.1451	0.005010
903.3850	0.003132
903.6249	0.005707
903.8648	0.003765
904.1047	0.003617
904.3446	0.003892
904.5846	0.006656
904.8245	0.004736
905.0644	0.004609
905.3044	0.005749
905.5444	0.006867
905.7843	0.004884
906.0243	0.005749
906.2643	0.005981
906.5043	0.004989
906.7443	0.005538
906.9843	0.004820
907.2243	0.004483
907.4643	0.005200
907.7043	0.003090
907.9444	0.005095
908.1844	0.004905
908.4245	0.005707
908.6645	0.005285
908.9046	0.006319
909.1447	0.004778
909.3847	0.003934
909.6248	0.004124
909.8649	0.004272
910.1050	0.003470
910.3452	0.005960
910.5853	0.003850
910.8254	0.004124
911.0655	0.003997
911.3057	0.004314
911.5458	0.005348
911.7860	0.004694
912.0262	0.003575
912.2663	0.004230
912.5065	0.003934
912.7467	0.003744
912.9869	0.004778
913.2271	0.004820
913.4673	0.002900
913.7075	0.004504
913.9478	0.003048
914.1880	0.002647
914.4283	0.003723
914.6685	0.003955
914.9088	0.003934
915.1490	0.003913
915.3893	0.004166
915.6296	0.001254
915.8699	0.002267
916.1102	0.003976
916.3505	0.003660
916.5908	0.003259
916.8311	0.003976
917.0714	0.003301
917.3118	0.004905
917.5521	0.002520
917.7925	0.005770
918.0328	0.004820
918.2732	0.003892
918.5136	0.003617
918.7539	0.003723
918.9943	0.004588
919.2347	0.003005
919.4751	0.004483
919.7155	0.004103
919.9560	0.003364
920.1964	0.004335
920.4368	0.003617
920.6773	0.003449
920.9177	0.002246
921.1582	0.004820
921.3986	0.003554
921.6391	0.003681
921.8796	0.002626
922.1201	0.002689
922.3606	0.003343
922.6011	0.005306
922.8416	0.003005
923.0821	0.004441
923.3226	0.003702
923.5631	0.004525
923.8037	0.004504
924.0442	0.002288
924.2848	0.003765
924.5254	0.003406
924.7659	0.004230
925.0065	0.003238
925.2471	0.003195
925.4877	0.002752
925.7283	0.001929
925.9689	0.002267
926.2095	0.003385
926.4501	0.003406
926.6908	0.003428
926.9314	0.002773
927.1720	0.003174
927.4127	0.001929
927.6533	0.002436
927.8940	0.002077
928.1347	0.003702
928.3754	0.004293
928.6161	0.003702
928.8568	0.004377
929.0975	0.004314
929.3382	0.003217
929.5789	0.001993
929.8196	0.002520
930.0604	0.001486
930.3011	0.001950
930.5419	0.002794
930.7826	0.002626
931.0234	0.003343
931.2642	0.003280
931.5049	0.002647
931.7457	0.002098
931.9865	0.002689
932.2273	0.002816
932.4681	0.001359
932.7089	0.002900
932.9498	0.003470
933.1906	0.003343
933.4314	0.001950
933.6723	0.002225
933.9131	0.003132
934.1540	0.002858
934.3949	0.001528
934.6358	0.001001
934.8766	0.002077
935.1175	0.001254
935.3584	0.002056
935.5993	0.002267
935.8403	0.001486
936.0812	0.001359
936.3221	0.003850
936.5630	0.002816
936.8040	0.003554
937.0449	0.001169
937.2859	0.003048
937.5269	0.001085
937.7678	0.001866
938.0088	0.001993
938.2498	0.001106
938.4908	0.002731
938.7318	0.002288
938.9728	0.002626
939.2138	0.001824
939.4549	0.002710
939.6959	0.001127
939.9369	0.003090
940.1780	0.001148
940.4190	0.003090
940.6601	0.001191
940.9012	0.001507
941.1422	0.001338
941.3833	0.001381
941.6244	0.000515
941.8655	0.002499
942.1066	0.002393
942.3477	0.001381
942.5889	-0.001025
942.8300	0.001212
943.0711	0.000747
943.3123	0.000726
943.5534	0.001655
943.7946	0.001444
944.0357	0.002140
944.2769	0.002288
944.5181	0.001444
944.7593	0.001718
945.0005	0.001191
945.2417	0.000811
945.4829	0.001908
945.7241	0.002393
945.9653	0.003174
946.2066	0.000853
946.4478	0.001486
946.6891	0.001507
946.9303	0.000874
947.1716	0.001570
947.4128	0.000684
947.6541	0.001001
947.8954	0.002014
948.1367	0.001043
948.3780	0.001824
948.6193	0.000980
948.8606	0.000895
949.1019	0.003174
949.3433	0.001866
949.5846	0.001191
949.8259	0.001507
950.0673	0.001570
950.3086	0.000958
950.5500	0.002225
950.7914	0.002647
951.0327	0.002647
951.2741	0.001317
951.5155	0.002583
951.7569	0.001064
951.9983	0.001824
952.2398	0.001169
952.4812	0.001191
952.7226	0.002225
952.9640	0.003048
953.2055	0.001191
953.4469	0.002436
953.6884	0.001613
953.9299	0.001127
954.1713	0.000600
954.4128	0.001212
954.6543	0.001465
954.8958	0.001887
955.1373	0.001824
955.3788	0.001866
955.6203	0.001634
955.8618	0.000980
956.1034	0.000325
956.3449	0.001866
956.5865	0.000642
956.8280	0.000283
957.0696	0.000663
957.3111	0.000747
957.5527	0.000600
957.7943	0.001549
958.0359	-0.000160
958.2775	0.001528
958.5191	0.001781
958.7607	0.001634
959.0023	0.000557
959.2439	0.000853
959.4856	0.000114
959.7272	0.002415
959.9688	0.000705
960.2105	0.000747
960.4522	0.002520
960.6938	0.001085
960.9355	0.000663
961.1772	0.001296
961.4189	0.001486
961.6606	0.000980
961.9023	-0.000709
962.1440	0.001064
962.3857	0.000030
962.6274	0.001275
962.8692	-0.000223
963.1109	0.001127
963.3527	0.000304
963.5944	0.000874
963.8362	-0.000392
964.0779	0.000684
964.3197	0.000368
964.5615	0.002415
964.8033	0.000663
965.0451	0.000726
965.2869	0.000663
965.5287	-0.000118
965.7705	0.001064
966.0123	0.000621
966.2542	0.000642
966.4960	0.002541
966.7379	0.000874
966.9797	0.001613
967.2216	0.001359
967.4634	0.000515
967.7053	-0.000350
967.9472	0.002288
968.1891	0.000283
968.4310	0.000368
968.6729	-0.001046
968.9148	0.000937
969.1567	-0.000603
969.3987	0.001233
969.6406	-0.000118
969.8825	0.000832
970.1245	0.000705
970.3664	0.000283
970.6084	0.000262
970.8504	0.000684
971.0923	0.000515
971.3343	0.001148
971.5763	0.000135
971.8183	0.001212
972.0603	0.000621
972.3023	0.000220
972.5443	0.001191
972.7864	0.001191
973.0284	0.000368
973.2704	0.000705
973.5125	-0.000688
973.7545	0.002056
973.9966	-0.000751
974.2387	-0.000139
974.4807	0.001634
974.7228	0.000262
974.9649	-0.000097
975.2070	0.000642
975.4491	0.000980
975.6912	0.002119
975.9333	0.000769
976.1755	0.000853
976.4176	0.001191
976.6597	0.001317
976.9019	0.000832
977.1440	0.002520
977.3862	-0.000097
977.6283	0.001718
977.8705	0.001127
978.1127	0.001148
978.3549	0.001507
978.5971	0.000515
978.8393	0.000557
979.0815	0.000009
979.3237	0.001549
979.5659	0.000515
979.8082	0.001085
980.0504	0.000642
980.2926	0.000916
980.5349	0.000135
980.7771	0.001549
981.0194	-0.000519
981.2617	-0.000181
981.5040	0.001887
981.7462	-0.000118
981.9885	0.001064
982.2308	0.000072
982.4731	0.000262
982.7155	-0.000076
982.9578	0.000262
983.2001	0.001486
983.4424	0.002140
983.6848	0.000937
983.9271	0.000790
984.1695	0.001022
984.4118	0.002921
984.6542	0.000262
984.8966	0.001359
985.1390	0.000410
985.3814	0.000030
985.6238	0.001549
985.8662	0.000642
986.1086	0.002309
986.3510	0.001507
986.5934	0.000663
986.8358	0.001212
987.0783	-0.000413
987.3207	-0.000561
987.5632	0.000790
987.8056	0.000958
988.0481	-0.000329
988.2906	-0.000582
988.5331	0.000832
988.7756	0.001507
989.0180	-0.000540
989.2605	0.001106
989.5031	0.000283
989.7456	0.001402
989.9881	0.000621
990.2306	0.000579
990.4732	-0.000012
990.7157	-0.001194
990.9582	-0.000244
991.2008	0.000853
991.4434	0.000178
991.6859	0.001338
991.9285	0.001233
992.1711	0.000705
992.4137	-0.000371
992.6563	0.001549
992.8989	-0.000392
993.1415	0.001127
993.3841	0.000853
993.6267	0.001191
993.8694	0.000916
994.1120	0.000853
994.3547	-0.000244
994.5973	0.000009
994.8400	-0.000012
995.0826	-0.000814
995.3253	0.000853
995.5680	0.001254
995.8107	0.000515
996.0534	0.000389
996.2961	-0.000899
996.5388	0.000283
996.7815	0.000790
997.0242	0.001106
997.2670	0.001212
997.5097	0.001064
997.7524	-0.000033
997.9952	0.000811
998.2379	0.000030
998.4807	0.001064
998.7235	0.000579
998.9662	0.000473
999.2090	0.000853
999.4518	0.000241
999.6946	-0.000413
999.9374	0.000958
1000.1802	0.000980
1000.4230	-0.000308
1000.6659	0.000199
1000.9087	0.000199
1001.1515	0.001169
1001.3944	0.000346
1001.6372	0.001697
1001.8801	-0.000244
1002.1230	-0.000329
1002.3658	0.000642
1002.6087	0.001127
1002.8516	0.000220
1003.0945	0.001212
1003.3374	0.000135
1003.5803	0.000600
1003.8232	0.000811
1004.0661	0.002035
1004.3091	0.000600
1004.5520	-0.000202
1004.7949	-0.000329
1005.0379	0.001402
1005.2808	-0.000561
1005.5238	-0.000202
1005.7667	0.000093
1006.0097	0.000009
1006.2527	0.000473
1006.4957	0.002351
1006.7387	-0.000055
1006.9817	0.000916
1007.2247	0.001064
1007.4677	0.001022
1007.7107	0.000515
1007.9538	0.000368
1008.1968	-0.000076
1008.4398	0.000705
1008.6829	0.000536
1008.9259	-0.000012
1009.1690	0.002098
1009.4121	0.000473
1009.6551	0.000621
1009.8982	-0.000076
1010.1413	0.000895
1010.3844	0.001423
1010.6275	0.000431
1010.8706	0.000494
1011.1137	0.001191
1011.3568	0.000325
1011.6000	0.000410
1011.8431	0.000009
1012.0863	0.002668
1012.3294	0.000431
1012.5726	0.001022
1012.8157	0.001022
1013.0589	0.000937
1013.3021	0.001613
1013.5452	0.000705
1013.7884	0.002077
1014.0316	0.001465
1014.2748	0.001064
1014.5180	0.001739
1014.7613	0.000579
1015.0045	0.000389
1015.2477	0.001697
1015.4909	-0.000244
1015.7342	0.001275
1015.9774	-0.000076
1016.2207	0.000600
1016.4640	0.001338
1016.7072	0.001887
1016.9505	0.000304
1017.1938	-0.000097
1017.4371	0.001064
1017.6804	0.001085
1017.9237	0.000515
1018.1670	0.000621
1018.4103	0.000262
1018.6536	0.000937
1018.8969	0.000325
1019.1403	0.000346
1019.3836	-0.001089
1019.6270	-0.000055
1019.8703	-0.000076
1020.1137	0.000642
1020.3571	0.000705
1020.6004	0.000705
1020.8438	0.000600
1021.0872	0.001212
1021.3306	0.000389
1021.5740	-0.000308
1021.8174	-0.001658
1022.0608	0.000114
1022.3042	0.000262
1022.5477	-0.000899
1022.7911	-0.001046
1023.0345	0.000536
