# Wavelength (nm)	Intensity (a.u.)
197.7802	0.002744
197.9842	0.001435
198.1882	0.000464
198.3922	0.001119
198.5963	-0.001245
198.8003	0.000485
199.0044	0.001372
199.2085	0.000000
199.4126	0.001520
199.6168	0.000760
199.8209	-0.000654
200.0251	0.001119
200.2292	-0.000844
200.4334	-0.000443
200.6376	0.000295
200.8418	0.000696
201.0461	0.000908
201.2503	0.000338
201.4546	0.002174
201.6589	-0.000042
201.8631	0.000802
202.0674	-0.000739
202.2718	0.001055
202.4761	-0.001245
202.6805	0.000549
202.8848	-0.000274
203.0892	0.001140
203.2936	-0.000950
203.4980	-0.000169
203.7024	-0.000127
203.9069	0.001498
204.1113	0.000507
204.3158	0.000591
204.5203	-0.000401
204.7248	0.000802
204.9293	0.000696
205.1338	0.000992
205.3384	0.001309
205.5430	0.000823
205.7475	0.001224
205.9521	0.000422
206.1567	0.000760
206.3614	-0.000359
206.5660	-0.000169
206.7706	0.001794
206.9753	0.000886
207.1800	0.000675
207.3847	0.000507
207.5894	0.000612
207.7941	-0.000528
207.9989	0.000823
208.2036	-0.000422
208.4084	0.000971
208.6132	0.001435
208.8180	-0.000063
209.0228	0.000485
209.2276	0.000317
209.4325	-0.000021
209.6373	0.000654
209.8422	0.000507
210.0471	0.000253
210.2520	0.000274
210.4569	-0.000106
210.6618	-0.000021
210.8668	0.000127
211.0718	0.001330
211.2767	0.002659
211.4817	0.000802
211.6867	0.000232
211.8918	-0.001414
212.0968	0.002976
212.3018	0.000063
212.5069	0.000422
212.7120	0.000232
212.9171	0.000549
213.1222	0.001034
213.3273	0.000781
213.5325	0.000359
213.7376	0.001097
213.9428	0.000739
214.1480	0.001498
214.3532	0.000380
214.5584	0.000696
214.7636	0.000042
214.9689	0.001646
215.1741	0.001309
215.3794	0.001456
215.5847	0.000127
215.7900	0.000084
215.9953	0.000612
216.2007	0.000950
216.4060	0.000865
216.6114	0.001667
216.8168	0.000380
217.0222	0.000443
217.2276	-0.000485
217.4330	0.001372
217.6384	0.001393
217.8439	0.000274
218.0494	-0.000739
218.2548	0.000359
218.4603	-0.000106
218.6659	0.000633
218.8714	-0.001119
219.0769	0.000528
219.2825	0.000654
219.4881	0.000549
219.6936	0.000084
219.8992	0.000295
220.1049	0.000507
220.3105	0.000633
220.5161	-0.000190
220.7218	0.000422
220.9275	-0.000190
221.1332	0.001076
221.3389	-0.000507
221.5446	-0.000021
221.7503	-0.001161
221.9561	0.001498
222.1618	0.000021
222.3676	-0.000084
222.5734	-0.000485
222.7792	0.002089
222.9850	0.000253
223.1909	0.000507
223.3967	0.000359
223.6026	0.001309
223.8085	-0.000232
224.0144	0.001372
224.2203	0.000549
224.4262	0.001119
224.6322	0.002195
224.8381	0.000760
225.0441	0.000739
225.2501	0.000042
225.4561	0.000528
225.6621	0.001013
225.8681	0.000612
226.0742	0.001710
226.2802	-0.000443
226.4863	0.000633
226.6924	0.001034
226.8985	0.001562
227.1046	-0.000507
227.3107	0.000021
227.5169	0.000908
227.7230	0.001752
227.9292	-0.000422
228.1354	0.000422
228.3416	0.001182
228.5478	0.000169
228.7541	0.000232
228.9603	0.000929
229.1666	0.001351
229.3729	0.000042
229.5791	-0.000148
229.7855	0.000971
229.9918	-0.001414
230.1981	0.000781
230.4045	-0.000802
230.6108	0.002089
230.8172	0.001435
231.0236	0.001562
231.2300	0.001372
231.4364	0.001414
231.6429	0.000063
231.8493	0.000675
232.0558	-0.001309
232.2623	0.001477
232.4688	-0.000317
232.6753	0.001161
232.8818	0.000169
233.0884	0.000886
233.2949	-0.000148
233.5015	0.001794
233.7081	0.000570
233.9147	0.001393
234.1213	-0.000570
234.3279	0.001667
234.5346	0.000528
234.7413	0.000169
234.9479	0.000021
235.1546	0.000865
235.3613	0.000380
235.5680	-0.000021
235.7748	0.000781
235.9815	0.001520
236.1883	0.000127
236.3951	0.001097
236.6018	-0.000696
236.8087	0.000359
237.0155	0.000042
237.2223	-0.000359
237.4292	-0.000844
237.6360	-0.000253
237.8429	-0.000929
238.0498	0.000528
238.2567	0.000507
238.4636	0.000760
238.6706	0.001456
238.8775	0.000886
239.0845	-0.000464
239.2915	0.001140
239.4985	0.000295
239.7055	0.001287
239.9125	0.001414
240.1195	0.001498
240.3266	0.000063
240.5337	-0.000443
240.7407	0.000528
240.9478	0.001414
241.1549	0.000485
241.3621	0.001646
241.5692	0.000844
241.7764	-0.000591
241.9835	-0.000190
242.1907	0.001963
242.3979	0.001372
242.6051	0.000169
242.8124	0.000042
243.0196	0.002089
243.2269	0.000908
243.4341	-0.000886
243.6414	0.000908
243.8487	0.001224
244.0560	0.000063
244.2634	0.002512
244.4707	0.001287
244.6781	0.001878
244.8854	0.000169
245.0928	0.001076
245.3002	-0.000612
245.5076	0.000950
245.7151	-0.000084
245.9225	-0.000675
246.1300	-0.000359
246.3375	0.001013
246.5449	0.000232
246.7524	0.000612
246.9600	0.000148
247.1675	0.000507
247.3750	0.000485
247.5826	0.000802
247.7902	0.001287
247.9978	0.000148
248.2054	-0.000106
248.4130	0.000718
248.6206	-0.000253
248.8283	0.000084
249.0359	-0.000971
249.2436	0.000865
249.4513	0.001372
249.6590	0.001287
249.8667	0.000591
250.0745	0.001245
250.2822	0.001414
250.4900	-0.000295
250.6978	-0.000359
250.9056	-0.000232
251.1134	0.000169
251.3212	0.001477
251.5290	0.000232
251.7369	0.001034
251.9447	0.000232
252.1526	0.001456
252.3605	0.000422
252.5684	-0.000190
252.7763	0.001203
252.9843	-0.000401
253.1922	-0.000106
253.4002	0.001520
253.6082	0.000570
253.8162	-0.000380
254.0242	0.001330
254.2322	0.000528
254.4402	0.000148
254.6483	0.000823
254.8564	0.000549
255.0644	-0.000211
255.2725	0.001520
255.4806	0.000232
255.6888	0.001013
255.8969	-0.000232
256.1051	0.000507
256.3132	-0.000654
256.5214	0.000992
256.7296	0.001541
256.9378	-0.000190
257.1460	0.001330
257.3543	0.000971
257.5625	-0.000127
257.7708	0.000190
257.9791	0.000359
258.1874	0.002195
258.3957	0.001815
258.6040	0.001646
258.8124	0.000507
259.0207	0.001287
259.2291	0.001203
259.4375	-0.000549
259.6459	0.000232
259.8543	0.001055
260.0627	-0.000549
260.2711	0.000253
260.4796	0.001245
260.6881	0.000422
260.8965	0.000865
261.1050	-0.000106
261.3135	0.000612
261.5221	0.000359
261.7306	0.002005
261.9392	0.000021
262.1477	0.001752
262.3563	0.000760
262.5649	0.000464
262.7735	0.000148
262.9822	0.001878
263.1908	-0.000359
263.3995	0.001224
263.6081	0.000359
263.8168	0.001097
264.0255	0.000127
264.2342	0.002174
264.4429	-0.000570
264.6517	0.000338
264.8604	0.001161
265.0692	0.000739
265.2780	-0.000232
265.4868	0.001351
265.6956	-0.000190
265.9044	0.001013
266.1133	0.000485
266.3221	0.000950
266.5310	-0.000422
266.7399	0.000612
266.9488	0.000253
267.1577	0.000718
267.3666	-0.000295
267.5755	-0.000211
267.7845	-0.000042
267.9935	0.000401
268.2024	0.001245
268.4114	0.000844
268.6205	0.001140
268.8295	0.000464
269.0385	-0.000148
269.2476	-0.000338
269.4566	0.001562
269.6657	0.002174
269.8748	0.001309
270.0839	0.001688
270.2931	0.000612
270.5022	0.000211
270.7114	0.000591
270.9205	0.000591
271.1297	0.000106
271.3389	0.001076
271.5481	-0.000338
271.7573	0.001182
271.9666	-0.000844
272.1758	0.001055
272.3851	0.000232
272.5944	0.000084
272.8037	0.000253
273.0130	0.000485
273.2223	0.000528
273.4316	0.000443
273.6410	-0.001161
273.8504	0.001182
274.0597	-0.000696
274.2691	-0.000612
274.4785	0.000739
274.6880	0.000886
274.8974	-0.000021
275.1069	-0.000106
275.3163	0.000443
275.5258	0.000971
275.7353	0.000865
275.9448	0.000295
276.1543	-0.000232
276.3639	0.000021
276.5734	0.000000
276.7830	0.000591
276.9926	0.000359
277.2022	0.000485
277.4118	0.001435
277.6214	0.000317
277.8310	0.001266
278.0407	0.000781
278.2503	-0.000232
278.4600	0.001435
278.6697	0.000823
278.8794	0.001266
279.0891	0.001562
279.2989	0.001140
279.5086	0.000127
279.7184	0.001013
279.9281	0.000718
280.1379	0.000359
280.3477	0.000084
280.5576	-0.000654
280.7674	0.000295
280.9772	0.001287
281.1871	-0.001203
281.3970	0.000359
281.6069	-0.000253
281.8168	0.001076
282.0267	0.000274
282.2366	0.000570
282.4466	0.000823
282.6565	0.000084
282.8665	0.000844
283.0765	0.000929
283.2865	0.001013
283.4965	0.000823
283.7065	-0.000612
283.9166	0.000781
284.1266	-0.000063
284.3367	0.000106
284.5468	0.000232
284.7569	0.000971
284.9670	0.000865
285.1771	0.000591
285.3873	0.000844
285.5974	-0.000042
285.8076	0.000063
286.0178	0.003313
286.2280	0.001541
286.4382	-0.000485
286.6484	0.000401
286.8587	0.000549
287.0689	-0.000253
287.2792	0.000295
287.4895	0.000253
287.6998	0.000718
287.9101	-0.000696
288.1204	0.000591
288.3308	0.001752
288.5411	0.002111
288.7515	-0.000063
288.9619	0.001161
289.1723	0.000549
289.3827	0.001477
289.5931	0.000654
289.8035	0.002111
290.0140	0.000338
290.2245	-0.000359
290.4349	-0.000148
290.6454	0.000190
290.8559	0.000696
291.0665	0.000908
291.2770	0.000232
291.4875	0.000359
291.6981	0.000359
291.9087	0.000253
292.1193	-0.000781
292.3299	0.000971
292.5405	-0.001055
292.7511	0.001435
292.9618	0.000317
293.1724	0.000528
293.3831	0.000612
293.5938	0.000232
293.8045	0.000802
294.0152	0.001710
294.2260	0.001055
294.4367	0.001815
294.6475	-0.001857
294.8582	0.000612
295.0690	0.000106
295.2798	0.000211
295.4906	0.001161
295.7015	0.001520
295.9123	0.000549
296.1232	0.000570
296.3340	0.000485
296.5449	0.001224
296.7558	0.000823
296.9667	0.001667
297.1777	-0.000507
297.3886	0.000591
297.5995	0.000675
297.8105	0.001330
298.0215	-0.000042
298.2325	0.000950
298.4435	0.000148
298.6545	0.001076
298.8656	0.000929
299.0766	0.000718
299.2877	0.000042
299.4988	0.000971
299.7099	0.001266
299.9210	0.000739
300.1321	-0.000106
300.3432	0.001625
300.5544	-0.000127
300.7655	-0.000169
300.9767	0.000021
301.1879	-0.000675
301.3991	0.000317
301.6103	0.001287
301.8215	0.000781
302.0328	0.001921
302.2441	0.002089
302.4553	0.001161
302.6666	0.000464
302.8779	0.000929
303.0892	0.000549
303.3006	0.001836
303.5119	0.001203
303.7233	0.000718
303.9346	0.000443
304.1460	0.001287
304.3574	-0.000232
304.5688	0.000612
304.7803	0.001287
304.9917	0.000528
305.2031	0.001456
305.4146	0.000844
305.6261	0.000823
305.8376	-0.000317
306.0491	0.000021
306.2606	0.001372
306.4722	0.000844
306.6837	0.001097
306.8953	0.000528
307.1069	0.000295
307.3184	-0.000042
307.5301	0.000908
307.7417	-0.000063
307.9533	0.000675
308.1650	-0.000063
308.3766	0.000338
308.5883	-0.001224
308.8000	0.000359
309.0117	0.000781
309.2234	0.000823
309.4351	-0.000021
309.6469	0.000443
309.8586	0.000148
310.0704	0.000760
310.2822	0.000570
310.4940	-0.000021
310.7058	0.001351
310.9176	0.000612
311.1295	0.000422
311.3413	0.000865
311.5532	0.001287
311.7651	-0.000612
311.9770	0.000380
312.1889	0.000760
312.4008	0.000802
312.6127	0.001836
312.8247	-0.000908
313.0366	0.002258
313.2486	0.002279
313.4606	0.001330
313.6726	-0.000295
313.8846	0.000169
314.0967	0.000739
314.3087	0.003187
314.5208	-0.000507
314.7328	0.000612
314.9449	-0.000865
315.1570	-0.000148
315.3692	0.000844
315.5813	0.000528
315.7934	-0.000063
316.0056	0.000654
316.2177	0.000084
316.4299	0.000401
316.6421	0.000760
316.8543	0.000232
317.0666	0.000127
317.2788	0.001182
317.4911	-0.000507
317.7033	0.001477
317.9156	0.000274
318.1279	0.000190
318.3402	-0.000190
318.5525	0.000211
318.7649	0.000211
318.9772	-0.000232
319.1896	0.001541
319.4019	0.002554
319.6143	0.000485
319.8267	-0.000675
320.0392	0.000295
320.2516	0.001119
320.4640	0.000802
320.6765	0.000148
320.8890	-0.001752
321.1014	0.000485
321.3139	0.000380
321.5265	0.000042
321.7390	0.000802
321.9515	-0.000443
322.1641	-0.000063
322.3766	-0.000211
322.5892	-0.000929
322.8018	0.000528
323.0144	0.000929
323.2270	0.000549
323.4397	0.000950
323.6523	-0.001119
323.8650	0.000422
324.0777	0.000950
324.2904	-0.001309
324.5031	-0.000739
324.7158	0.000908
324.9285	-0.000422
325.1412	-0.000338
325.3540	0.001625
325.5668	0.000317
325.7796	0.001456
325.9924	-0.000823
326.2052	0.000422
326.4180	0.000359
326.6308	0.000760
326.8437	-0.000781
327.0566	0.000929
327.2694	-0.001921
327.4823	0.000760
327.6952	0.001646
327.9082	0.000422
328.1211	0.000485
328.3340	0.000971
328.5470	-0.000106
328.7600	0.001140
328.9730	-0.000422
329.1860	0.000485
329.3990	0.000886
329.6120	0.001266
329.8251	-0.000633
330.0381	0.000148
330.2512	0.000464
330.4643	0.002132
330.6774	-0.000443
330.8905	0.000781
331.1036	-0.000106
331.3167	0.000021
331.5299	0.001372
331.7431	0.000401
331.9562	0.000190
332.1694	0.000317
332.3826	0.001119
332.5959	0.001351
332.8091	0.000591
333.0223	0.001625
333.2356	-0.000063
333.4489	0.002047
333.6622	0.000127
333.8755	0.000633
334.0888	0.000992
334.3021	0.000232
334.5154	0.000464
334.7288	0.000422
334.9422	-0.000084
335.1555	0.001625
335.3689	0.000886
335.5823	0.000760
335.7958	-0.001752
336.0092	0.000317
336.2227	-0.000127
336.4361	0.000338
336.6496	0.000528
336.8631	0.000633
337.0766	0.000675
337.2901	0.002132
337.5036	0.000380
337.7172	0.000971
337.9307	-0.000359
338.1443	-0.001393
338.3579	-0.000570
338.5715	0.000633
338.7851	-0.001097
338.9987	0.001921
339.2124	-0.001013
339.4260	0.001055
339.6397	-0.000401
339.8533	0.001857
340.0670	0.000274
340.2807	0.000528
340.4945	0.000401
340.7082	0.000274
340.9219	0.000042
341.1357	0.000760
341.3495	-0.000106
341.5633	-0.000148
341.7771	-0.000190
341.9909	0.000633
342.2047	-0.000211
342.4185	0.001562
342.6324	0.000000
342.8463	-0.001224
343.0601	-0.000106
343.2740	0.000464
343.4879	0.000549
343.7019	0.001182
343.9158	-0.000401
344.1297	0.000528
344.3437	0.002385
344.5577	0.000295
344.7717	0.001393
344.9857	-0.000042
345.1997	0.001393
345.4137	0.001287
345.6277	0.000295
345.8418	0.001182
346.0559	0.000654
346.2699	0.000338
346.4840	-0.000443
346.6981	0.000739
346.9123	0.001097
347.1264	0.000549
347.3406	0.001752
347.5547	0.000063
347.7689	-0.001393
347.9831	0.001921
348.1973	0.000464
348.4115	-0.000485
348.6257	0.000169
348.8400	0.000971
349.0542	0.000528
349.2685	-0.000507
349.4828	0.000654
349.6971	0.001541
349.9114	0.001477
350.1257	0.000317
350.3400	-0.000169
350.5544	0.000781
350.7687	0.000696
350.9831	0.001899
351.1975	0.000380
351.4119	0.000359
351.6263	-0.001119
351.8407	0.001414
352.0552	-0.000401
352.2696	0.000781
352.4841	0.001076
352.6986	-0.000781
352.9131	-0.000570
353.1276	0.002153
353.3421	0.000718
353.5566	0.001414
353.7712	-0.000612
353.9858	0.000823
354.2003	0.000696
354.4149	-0.000169
354.6295	0.000718
354.8441	0.000760
355.0588	-0.000443
355.2734	0.000359
355.4881	-0.001414
355.7027	-0.000127
355.9174	-0.000295
356.1321	0.000295
356.3468	0.001541
356.5615	0.001477
356.7763	0.002807
356.9910	0.001034
357.2058	-0.000760
357.4206	-0.000274
357.6353	0.001034
357.8501	-0.000295
358.0650	0.000253
358.2798	0.001562
358.4946	-0.000464
358.7095	0.000528
358.9243	-0.000127
359.1392	-0.000612
359.3541	-0.000148
359.5690	-0.000295
359.7839	0.000359
359.9989	0.000232
360.2138	-0.000148
360.4288	0.000528
360.6438	0.000190
360.8587	0.000802
361.0737	0.000718
361.2888	0.001984
361.5038	0.001119
361.7188	0.001562
361.9339	0.000654
362.1489	0.000485
362.3640	0.000464
362.5791	0.001520
362.7942	0.000464
363.0093	0.001435
363.2245	-0.000148
363.4396	0.000401
363.6548	-0.000802
363.8699	0.000148
364.0851	0.000739
364.3003	-0.000127
364.5155	0.000232
364.7308	0.000528
364.9460	0.000886
365.1612	0.001076
365.3765	0.001309
365.5918	-0.000295
365.8071	0.000021
366.0224	0.001836
366.2377	-0.000274
366.4530	0.001752
366.6684	0.000211
366.8837	0.000950
367.0991	0.000992
367.3145	0.000148
367.5299	-0.000148
367.7453	0.000865
367.9607	-0.000106
368.1761	0.001984
368.3916	0.000211
368.6070	0.001477
368.8225	-0.000507
369.0380	0.000295
369.2535	0.000443
369.4690	0.001477
369.6845	0.000802
369.9001	0.000802
370.1156	-0.000021
370.3312	0.001372
370.5468	0.000549
370.7624	0.001625
370.9780	-0.000211
371.1936	0.002343
371.4092	-0.000359
371.6249	0.001498
371.8405	-0.000380
372.0562	0.001541
372.2719	-0.001140
372.4876	0.001013
372.7033	0.001456
372.9190	-0.000464
373.1348	-0.000148
373.3505	0.001562
373.5663	-0.000063
373.7820	-0.001076
373.9978	0.000295
374.2136	0.001182
374.4294	0.000338
374.6453	0.001963
374.8611	0.000380
375.0770	0.001203
375.2928	0.000021
375.5087	-0.000084
375.7246	0.000401
375.9405	0.000380
376.1564	0.000317
376.3724	0.000612
376.5883	0.000106
376.8043	0.000760
377.0203	0.000127
377.2362	0.001477
377.4522	0.000908
377.6682	0.001435
377.8843	-0.000063
378.1003	0.000528
378.3164	0.000971
378.5324	0.001330
378.7485	-0.000422
378.9646	0.001984
379.1807	0.000338
379.3968	0.000802
379.6129	0.002322
379.8291	0.001034
380.0452	0.000422
380.2614	0.001646
380.4776	-0.001161
380.6938	0.001351
380.9100	0.001203
381.1262	0.001583
381.3424	0.000654
381.5587	0.000908
381.7749	-0.000232
381.9912	0.000169
382.2075	-0.000063
382.4238	0.001688
382.6401	0.001161
382.8564	0.000823
383.0728	0.000802
383.2891	0.001921
383.5055	0.000591
383.7219	0.000401
383.9382	0.001182
384.1546	0.000570
384.3711	0.000148
384.5875	0.001287
384.8039	0.000211
385.0204	0.001773
385.2368	0.000612
385.4533	0.000528
385.6698	-0.000612
385.8863	0.002723
386.1028	0.001414
386.3194	0.001309
386.5359	0.002026
386.7525	0.001076
386.9690	0.002068
387.1856	0.002364
387.4022	0.000528
387.6188	0.002300
387.8355	0.001182
388.0521	0.001309
388.2687	0.002174
388.4854	0.001921
388.7021	0.002322
388.9188	0.003313
389.1355	0.002153
389.3522	0.003841
389.5689	0.003968
389.7856	0.003271
390.0024	0.003736
390.2192	0.004643
390.4359	0.003461
390.6527	0.003018
390.8695	0.002828
391.0863	0.004749
391.3032	0.003461
391.5200	0.005002
391.7369	0.005867
391.9537	0.006268
392.1706	0.005487
392.3875	0.006859
392.6044	0.006226
392.8213	0.007070
393.0383	0.008737
393.2552	0.007450
393.4722	0.008083
393.6891	0.007788
393.9061	0.007471
394.1231	0.007936
394.3401	0.008463
394.5572	0.009539
394.7742	0.009328
394.9912	0.007978
395.2083	0.007366
395.4254	0.009919
395.6425	0.010468
395.8596	0.011017
396.0767	0.011439
396.2938	0.010574
396.5109	0.011312
396.7281	0.013085
396.9453	0.014351
397.1624	0.013275
397.3796	0.013444
397.5968	0.014689
397.8140	0.013845
398.0313	0.015744
398.2485	0.014119
398.4658	0.017327
398.6830	0.016378
398.9003	0.018024
399.1176	0.015343
399.3349	0.017686
399.5522	0.018973
399.7696	0.018383
399.9869	0.018277
400.2043	0.019290
400.4216	0.019037
400.6390	0.016990
400.8564	0.018699
401.0738	0.020092
401.2912	0.019628
401.5087	0.020261
401.7261	0.020725
401.9436	0.020535
402.1610	0.018657
402.3785	0.020978
402.5960	0.018678
402.8135	0.020810
403.0310	0.021401
403.2486	0.021802
403.4661	0.020366
403.6837	0.021633
403.9013	0.021823
404.1189	0.021759
404.3365	0.021569
404.5541	0.023701
404.7717	0.024208
404.9893	0.025221
405.2070	0.022625
405.4246	0.024777
405.6423	0.023659
405.8600	0.025558
406.0777	0.026170
406.2954	0.026234
406.5131	0.023785
406.7309	0.023363
406.9486	0.024165
407.1664	0.025263
407.3842	0.024820
407.6020	0.023406
407.8198	0.025115
408.0376	0.025389
408.2554	0.026424
408.4733	0.025347
408.6911	0.027648
408.9090	0.025643
409.1269	0.025938
409.3448	0.025305
409.5627	0.028682
409.7806	0.025622
409.9985	0.026825
410.2165	0.027141
410.4344	0.024946
410.6524	0.026107
410.8704	0.026044
411.0884	0.027479
411.3064	0.026402
411.5244	0.026149
411.7424	0.025769
411.9605	0.027078
412.1785	0.025938
412.3966	0.027542
412.6147	0.029188
412.8328	0.028640
413.0509	0.029716
413.2690	0.028787
413.4871	0.028661
413.7053	0.030117
413.9234	0.030856
414.1416	0.030518
414.3598	0.028851
414.5780	0.027838
414.7962	0.027036
415.0144	0.027521
415.2326	0.028661
415.4509	0.029188
415.6692	0.029737
415.8874	0.029927
416.1057	0.030075
416.3240	0.029589
416.5423	0.030159
416.7606	0.027711
416.9790	0.028787
417.1973	0.028893
417.4157	0.029632
417.6341	0.030011
417.8524	0.027605
418.0708	0.031278
418.2893	0.029041
418.5077	0.030349
418.7261	0.027563
418.9446	0.028133
419.1630	0.030687
419.3815	0.030180
419.6000	0.030539
419.8185	0.031890
420.0370	0.030117
420.2555	0.030940
420.4741	0.031088
420.6926	0.032227
420.9112	0.033051
421.1298	0.032755
421.3483	0.034739
421.5669	0.038369
421.7856	0.037820
422.0042	0.035478
422.2228	0.038369
422.4415	0.034570
422.6601	0.036258
422.8788	0.034718
423.0975	0.035393
423.3162	0.034211
423.5349	0.034655
423.7536	0.034739
423.9724	0.032987
424.1911	0.032354
424.4099	0.033578
424.6287	0.032143
424.8475	0.032797
425.0663	0.032924
425.2851	0.031151
425.5039	0.033219
425.7228	0.031995
425.9416	0.031721
426.1605	0.029568
426.3793	0.029610
426.5982	0.030201
426.8171	0.029547
427.0361	0.029484
427.2550	0.030961
427.4739	0.032628
427.6929	0.031531
427.9118	0.030476
428.1308	0.031320
428.3498	0.032692
428.5688	0.029779
428.7878	0.031362
429.0068	0.029821
429.2259	0.032333
429.4449	0.033768
429.6640	0.035541
429.8831	0.032396
430.1022	0.036237
430.3213	0.036491
430.5404	0.036005
430.7595	0.035499
430.9787	0.037314
431.1978	0.032882
431.4170	0.033367
431.6362	0.030602
431.8553	0.029315
432.0745	0.030961
432.2938	0.029231
432.5130	0.027584
432.7322	0.029589
432.9515	0.028070
433.1707	0.027627
433.3900	0.028956
433.6093	0.032291
433.8286	0.034760
434.0479	0.036849
434.2673	0.031130
434.4866	0.031763
434.7059	0.029357
434.9253	0.029906
435.1447	0.030391
435.3641	0.029990
435.5835	0.030433
435.8029	0.030328
436.0223	0.029442
436.2418	0.031003
436.4612	0.029610
436.6807	0.032312
436.9001	0.032312
437.1196	0.030011
437.3391	0.029737
437.5586	0.029885
437.7782	0.028618
437.9977	0.030750
438.2173	0.029336
438.4368	0.030412
438.6564	0.030412
438.8760	0.030244
439.0956	0.031826
439.3152	0.030666
439.5348	0.029568
439.7545	0.030117
439.9741	0.028956
440.1938	0.029927
440.4135	0.028872
440.6331	0.030011
440.8528	0.031573
441.0725	0.031869
441.2923	0.033937
441.5120	0.037504
441.7318	0.035182
441.9515	0.034401
442.1713	0.032565
442.3911	0.034000
442.6109	0.034549
442.8307	0.031911
443.0505	0.030180
443.2703	0.035056
443.4902	0.032122
443.7101	0.033895
443.9299	0.032650
444.1498	0.033494
444.3697	0.033029
444.5896	0.034211
444.8095	0.030539
445.0295	0.031552
445.2494	0.031679
445.4694	0.032713
445.6894	0.030623
445.9093	0.028513
446.1293	0.030265
446.3493	0.031341
446.5694	0.029885
446.7894	0.032227
447.0094	0.030159
447.2295	0.030244
447.4496	0.028450
447.6696	0.030117
447.8897	0.030581
448.1098	0.029948
448.3300	0.027964
448.5501	0.029188
448.7702	0.026360
448.9904	0.027859
449.2106	0.030265
449.4307	0.029273
449.6509	0.027816
449.8711	0.028851
450.0914	0.027985
450.3116	0.027289
450.5318	0.027289
450.7521	0.026107
450.9724	0.026909
451.1926	0.025263
451.4129	0.024292
451.6332	0.024018
451.8535	0.025600
452.0739	0.023194
452.2942	0.025706
452.5146	0.025980
452.7349	0.023680
452.9553	0.024587
453.1757	0.022392
453.3961	0.022456
453.6165	0.024461
453.8369	0.024672
454.0574	0.022498
454.2778	0.023427
454.4983	0.021970
454.7188	0.020198
454.9393	0.020155
455.1597	0.023321
455.3803	0.021590
455.6008	0.022730
455.8213	0.023617
456.0419	0.021253
456.2624	0.020915
456.4830	0.019396
456.7036	0.021337
456.9242	0.021042
457.1448	0.019881
457.3654	0.020662
457.5860	0.021590
457.8067	0.020240
458.0274	0.021717
458.2480	0.021675
458.4687	0.022836
458.6894	0.020788
458.9101	0.022392
459.1308	0.020704
459.3516	0.021738
459.5723	0.022160
459.7931	0.021063
460.0138	0.019986
460.2346	0.020978
460.4554	0.020978
460.6762	0.019142
460.8970	0.019206
461.1178	0.020957
461.3387	0.018572
461.5595	0.019079
461.7804	0.019269
462.0013	0.017876
462.2222	0.016293
462.4431	0.017391
462.6640	0.017581
462.8849	0.016230
463.1059	0.015871
463.3268	0.016166
463.5478	0.016145
463.7687	0.017770
463.9897	0.018024
464.2107	0.016968
464.4317	0.017074
464.6528	0.018298
464.8738	0.016779
465.0948	0.016145
465.3159	0.018361
465.5370	0.018551
465.7581	0.016990
465.9792	0.017834
466.2003	0.016293
466.4214	0.013592
466.6425	0.016462
466.8637	0.015449
467.0848	0.013296
467.3060	0.015829
467.5272	0.013423
467.7484	0.012558
467.9696	0.014900
468.1908	0.013782
468.4120	0.014056
468.6333	0.012558
468.8545	0.012769
469.0758	0.012157
469.2970	0.014351
469.5183	0.012642
469.7396	0.010911
469.9610	0.012769
470.1823	0.010405
470.4036	0.012220
470.6250	0.012410
470.8463	0.010320
471.0677	0.010109
471.2891	0.010489
471.5105	0.009687
471.7319	0.009962
471.9533	0.009582
472.1748	0.010721
472.3962	0.009561
472.6177	0.010996
472.8391	0.008041
473.0606	0.012030
473.2821	0.011249
473.5036	0.010236
473.7251	0.010468
473.9467	0.011566
474.1682	0.009350
474.3898	0.009181
474.6113	0.010848
474.8329	0.010447
475.0545	0.011608
475.2761	0.009350
475.4977	0.009856
475.7193	0.009666
475.9410	0.009962
476.1626	0.009223
476.3843	0.008548
476.6060	0.008843
476.8277	0.007830
477.0494	0.009265
477.2711	0.007387
477.4928	0.007513
477.7145	0.008927
477.9363	0.009160
478.1580	0.009772
478.3798	0.008294
478.6016	0.006543
478.8234	0.008210
479.0452	0.008463
479.2670	0.007513
479.4888	0.008104
479.7107	0.009202
479.9325	0.006374
480.1544	0.008125
480.3763	0.008062
480.5982	0.008695
480.8201	0.009160
481.0420	0.007218
481.2639	0.007387
481.4859	0.007619
481.7078	0.006289
481.9298	0.007556
482.1517	0.007872
482.3737	0.007830
482.5957	0.007535
482.8177	0.006648
483.0398	0.008927
483.2618	0.007535
483.4838	0.006754
483.7059	0.006669
483.9280	0.007155
484.1501	0.006585
484.3721	0.006944
484.5943	0.007176
484.8164	0.009054
485.0385	0.008189
485.2606	0.005656
485.4828	0.011270
485.7050	0.015850
485.9271	0.019839
486.1493	0.021886
486.3715	0.019100
486.5937	0.015702
486.8160	0.011692
487.0382	0.012431
487.2605	0.013022
487.4827	0.011038
487.7050	0.008505
487.9273	0.006922
488.1496	0.007239
488.3719	0.004939
488.5942	0.006838
488.8165	0.004770
489.0389	0.005593
489.2612	0.005508
489.4836	0.005846
489.7060	0.004432
489.9284	0.005909
490.1508	0.004242
490.3732	0.005530
490.5956	0.005656
490.8180	0.006585
491.0405	0.004939
491.2630	0.004749
491.4854	0.003778
491.7079	0.004854
491.9304	0.004981
492.1529	0.005107
492.3755	0.005213
492.5980	0.005909
492.8205	0.005804
493.0431	0.004137
493.2657	0.005361
493.4882	0.004917
493.7108	0.004474
493.9334	0.004305
494.1561	0.005508
494.3787	0.004812
494.6013	0.004137
494.8240	0.003693
495.0466	0.005255
495.2693	0.004495
495.4920	0.003018
495.7147	0.003356
495.9374	0.004242
496.1601	0.004664
496.3829	0.003525
496.6056	0.004390
496.8284	0.005487
497.0511	0.005424
497.2739	0.003693
497.4967	0.004981
497.7195	0.002849
497.9423	0.003778
498.1652	0.004706
498.3880	0.004115
498.6109	0.003588
498.8337	0.004200
499.0566	0.004200
499.2795	0.004137
499.5024	0.002912
499.7253	0.003503
499.9482	0.003693
500.1712	0.003947
500.3941	0.002891
500.6171	0.004031
500.8400	0.003187
501.0630	0.004812
501.2860	0.003841
501.5090	0.004917
501.7320	0.003039
501.9551	0.001076
502.1781	0.003567
502.4012	0.003482
502.6242	0.004327
502.8473	0.002765
503.0704	0.004601
503.2935	0.004284
503.5166	0.005234
503.7397	0.003039
503.9628	0.002596
504.1860	0.004031
504.4092	0.003440
504.6323	0.003757
504.8555	0.002849
505.0787	0.003968
505.3019	0.002680
505.5251	0.003482
505.7483	0.002364
505.9716	0.002216
506.1948	0.002512
506.4181	0.005931
506.6414	0.004010
506.8647	0.004284
507.0880	0.002195
507.3113	0.001899
507.5346	0.001710
507.7579	0.004411
507.9813	0.003166
508.2046	0.003313
508.4280	0.002427
508.6514	0.003018
508.8748	0.003081
509.0982	0.003546
509.3216	0.003187
509.5450	0.002406
509.7685	0.002786
509.9919	0.004327
510.2154	0.004094
510.4388	0.002955
510.6623	0.001710
510.8858	0.003609
511.1093	0.002955
511.3329	0.004664
511.5564	0.003461
511.7799	0.002575
512.0035	0.003820
512.2270	0.004327
512.4506	0.003292
512.6742	0.003588
512.8978	0.001055
513.1214	0.002701
513.3451	0.004706
513.5687	0.003145
513.7923	0.002026
514.0160	0.004833
514.2397	0.003503
514.4634	0.002490
514.6871	0.004158
514.9108	0.002891
515.1345	0.003736
515.3582	0.003736
515.5819	0.002891
515.8057	0.004263
516.0295	0.002891
516.2532	0.005255
516.4770	0.003799
516.7008	0.002934
516.9246	0.001921
517.1485	0.002701
517.3723	0.004369
517.5961	0.005065
517.8200	0.002533
518.0439	0.003904
518.2677	0.004896
518.4916	0.002237
518.7155	0.003482
518.9395	0.004685
519.1634	0.004263
519.3873	0.003567
519.6113	0.002174
519.8352	0.003503
520.0592	0.003292
520.2832	0.002343
520.5072	0.004939
520.7312	0.004939
520.9552	0.001857
521.1792	0.002744
521.4033	0.003313
521.6273	0.003166
521.8514	0.003313
522.0755	0.002385
522.2996	0.003567
522.5237	0.004158
522.7478	0.003145
522.9719	0.003588
523.1960	0.003968
523.4202	0.003145
523.6443	0.003482
523.8685	0.003250
524.0927	0.004179
524.3169	0.003292
524.5411	0.003588
524.7653	0.003651
524.9895	0.004643
525.2138	0.002997
525.4380	0.005129
525.6623	0.004327
525.8865	0.004263
526.1108	0.004580
526.3351	0.003968
526.5594	0.003714
526.7837	0.005466
527.0081	0.005002
527.2324	0.005508
527.4568	0.004791
527.6811	0.005698
527.9055	0.004664
528.1299	0.004221
528.3543	0.005255
528.5787	0.003947
528.8031	0.005614
529.0276	0.006922
529.2520	0.006458
529.4765	0.005150
529.7009	0.004369
529.9254	0.007112
530.1499	0.005318
530.3744	0.004770
530.5989	0.004960
530.8234	0.004411
531.0480	0.004411
531.2725	0.005888
531.4971	0.005762
531.7217	0.004327
531.9462	0.005804
532.1708	0.005361
532.3954	0.005192
532.6200	0.005614
532.8447	0.006627
533.0693	0.006627
533.2940	0.007640
533.5186	0.006585
533.7433	0.006648
533.9680	0.009033
534.1927	0.008632
534.4174	0.006711
534.6421	0.005508
534.8668	0.007302
535.0916	0.008864
535.3163	0.008780
535.5411	0.008083
535.7659	0.007661
535.9907	0.009075
536.2155	0.007893
536.4403	0.006986
536.6651	0.007281
536.8899	0.008062
537.1148	0.008083
537.3396	0.007788
537.5645	0.009603
537.7894	0.008526
538.0143	0.010510
538.2392	0.009075
538.4641	0.008210
538.6890	0.008949
538.9139	0.009202
539.1389	0.009518
539.3638	0.008906
539.5888	0.009708
539.8138	0.011397
540.0388	0.009814
540.2638	0.010004
540.4888	0.010700
540.7138	0.012030
540.9389	0.009940
541.1639	0.010721
541.3890	0.011671
541.6140	0.012431
541.8391	0.012093
542.0642	0.013043
542.2893	0.011650
542.5144	0.013191
542.7396	0.013064
542.9647	0.014520
543.1899	0.013760
543.4150	0.011734
543.6402	0.012093
543.8654	0.014077
544.0906	0.014774
544.3158	0.014710
544.5410	0.015829
544.7662	0.013676
544.9915	0.013782
545.2167	0.015554
545.4420	0.017116
545.6673	0.016166
545.8926	0.015702
546.1179	0.013233
546.3432	0.014710
546.5685	0.015407
546.7938	0.013718
547.0192	0.015934
547.2445	0.014795
547.4699	0.017327
547.6953	0.016019
547.9206	0.018678
548.1460	0.019206
548.3715	0.020514
548.5969	0.018889
548.8223	0.017538
549.0478	0.017939
549.2732	0.018171
549.4987	0.016272
549.7242	0.018636
549.9496	0.019754
550.1751	0.018762
550.4007	0.019353
550.6262	0.017813
550.8517	0.017960
551.0773	0.017180
551.3028	0.018108
551.5284	0.018298
551.7540	0.018003
551.9796	0.019733
552.2052	0.021316
552.4308	0.023279
552.6564	0.023870
552.8820	0.023152
553.1077	0.023194
553.3333	0.022815
553.5590	0.022582
553.7847	0.024988
554.0104	0.024165
554.2361	0.023532
554.4618	0.023912
554.6875	0.024271
554.9132	0.021443
555.1390	0.020831
555.3648	0.024904
555.5905	0.025368
555.8163	0.023764
556.0421	0.026234
556.2679	0.026023
556.4937	0.028217
556.7195	0.026993
556.9454	0.024376
557.1712	0.027373
557.3971	0.026360
557.6230	0.026044
557.8488	0.025811
558.0747	0.029104
558.3006	0.026149
558.5266	0.025199
558.7525	0.025052
558.9784	0.025579
559.2044	0.026445
559.4303	0.025558
559.6563	0.025959
559.8823	0.027057
560.1083	0.026846
560.3343	0.029906
560.5603	0.030370
560.7863	0.029273
561.0124	0.034465
561.2384	0.035372
561.4645	0.035098
561.6905	0.035414
561.9166	0.034380
562.1427	0.036047
562.3688	0.034802
562.5949	0.031594
562.8211	0.033641
563.0472	0.036807
563.2733	0.036343
563.4995	0.034866
563.7257	0.038601
563.9519	0.038369
564.1781	0.038074
564.4043	0.039804
564.6305	0.039087
564.8567	0.039741
565.0829	0.039424
565.3092	0.040416
565.5355	0.041788
565.7617	0.041155
565.9880	0.041281
566.2143	0.043075
566.4406	0.043265
566.6669	0.042970
566.8932	0.043202
567.1196	0.046072
567.3459	0.051602
567.5723	0.055464
567.7987	0.054641
568.0250	0.056456
568.2514	0.057743
568.4778	0.063632
568.7043	0.067156
568.9307	0.068380
569.1571	0.074100
569.3836	0.080241
569.6100	0.087354
569.8365	0.095522
570.0630	0.104322
570.2895	0.106792
570.5160	0.103436
570.7425	0.105821
570.9690	0.112722
571.1956	0.121227
571.4221	0.124646
571.6487	0.129733
571.8752	0.132012
572.1018	0.142016
572.3284	0.136803
572.5550	0.130493
572.7816	0.119602
573.0082	0.117619
573.2349	0.129691
573.4615	0.141341
573.6882	0.153286
573.9149	0.155186
574.1415	0.161264
574.3682	0.168355
574.5949	0.175003
574.8216	0.172323
575.0484	0.177578
575.2751	0.179309
575.5018	0.177071
575.7286	0.168376
575.9554	0.161686
576.1821	0.155882
576.4089	0.163585
576.6357	0.174096
576.8626	0.181208
577.0894	0.185999
577.3162	0.190726
577.5431	0.196826
577.7699	0.218184
577.9968	0.248934
578.2237	0.243552
578.4505	0.229095
578.6774	0.217002
578.9044	0.206787
579.1313	0.192921
579.3582	0.199464
579.5851	0.207421
579.8121	0.209784
580.0391	0.213520
580.2660	0.210270
580.4930	0.211726
580.7200	0.201954
580.9470	0.206619
581.1741	0.245304
581.4011	0.291334
581.6281	0.322654
581.8552	0.330442
582.0822	0.317230
582.3093	0.312756
582.5364	0.289055
582.7635	0.259402
582.9906	0.243742
583.2177	0.228631
583.4449	0.212000
583.6720	0.205416
583.8991	0.195412
584.1263	0.196573
584.3535	0.201680
584.5807	0.202208
584.8079	0.212043
585.0351	0.228293
585.2623	0.237938
585.4895	0.241674
585.7167	0.243130
585.9440	0.230995
586.1713	0.218712
586.3985	0.206808
586.6258	0.199781
586.8531	0.204424
587.0804	0.215652
587.3077	0.231122
587.5350	0.235638
587.7624	0.232219
587.9897	0.217108
588.2171	0.209658
588.4445	0.203833
588.6718	0.199358
588.8992	0.188616
589.1266	0.179477
589.3540	0.172281
589.5815	0.166308
589.8089	0.166624
590.0363	0.164218
590.2638	0.157739
590.4913	0.150817
590.7187	0.145688
590.9462	0.142354
591.1737	0.132139
591.4012	0.130471
591.6288	0.133067
591.8563	0.133342
592.0838	0.129606
592.3114	0.134481
592.5389	0.156642
592.7665	0.185112
592.9941	0.199717
593.2217	0.206513
593.4493	0.205901
593.6769	0.203812
593.9046	0.195285
594.1322	0.184500
594.3598	0.175594
594.5875	0.173737
594.8152	0.183762
595.0429	0.198366
595.2705	0.200013
595.4983	0.195749
595.7260	0.188532
595.9537	0.177873
596.1814	0.162826
596.4092	0.151555
596.6369	0.142058
596.8647	0.140138
597.0925	0.150817
597.3203	0.155038
597.5481	0.151724
597.7759	0.150585
598.0037	0.146933
598.2315	0.140285
598.4594	0.140433
598.6872	0.159385
598.9151	0.176185
599.1430	0.186611
599.3709	0.184796
599.5988	0.183192
599.8267	0.180301
600.0546	0.184564
600.2825	0.186527
600.5105	0.182411
600.7384	0.181799
600.9664	0.185577
601.1944	0.193618
601.4223	0.191170
601.6503	0.180554
601.8783	0.175425
602.1064	0.169052
602.3344	0.168566
602.5624	0.169368
602.7905	0.171352
603.0185	0.174264
603.2466	0.180153
603.4747	0.189270
603.7028	0.194715
603.9309	0.183551
604.1590	0.177641
604.3871	0.167827
604.6152	0.163839
604.8434	0.157275
605.0715	0.156494
605.2997	0.159449
605.5279	0.162826
605.7561	0.171795
605.9843	0.176903
606.2125	0.177135
606.4407	0.167384
606.6689	0.159575
606.8972	0.158858
607.1254	0.155861
607.3537	0.161433
607.5819	0.161644
607.8102	0.163248
608.0385	0.154932
608.2668	0.154320
608.4951	0.145899
608.7235	0.146997
608.9518	0.146701
609.1801	0.139927
609.4085	0.133827
609.6369	0.137288
609.8653	0.144633
610.0936	0.149656
610.3220	0.156009
610.5505	0.146912
610.7789	0.146047
611.0073	0.143219
611.2357	0.135853
611.4642	0.139399
611.6927	0.138745
611.9211	0.138112
612.1496	0.135790
612.3781	0.129057
612.6066	0.131210
612.8351	0.128741
613.0637	0.131379
613.2922	0.133595
613.5208	0.129965
613.7493	0.126841
613.9779	0.129627
614.2065	0.131864
614.4351	0.129121
614.6637	0.130028
614.8923	0.131252
615.1209	0.127833
615.3495	0.131780
615.5782	0.134629
615.8068	0.131928
616.0355	0.128340
616.2642	0.120721
616.4929	0.115909
616.7216	0.113334
616.9503	0.112005
617.1790	0.109810
617.4077	0.111815
617.6365	0.110865
617.8652	0.112152
618.0940	0.112828
618.3227	0.109789
618.5515	0.101832
618.7803	0.098139
619.0091	0.099088
619.2379	0.091406
619.4667	0.090330
619.6956	0.090351
619.9244	0.095479
620.1533	0.101452
620.3821	0.100903
620.6110	0.096978
620.8399	0.089929
621.0688	0.081191
621.2977	0.075303
621.5266	0.073636
621.7556	0.075978
621.9845	0.081276
622.2135	0.080431
622.4424	0.085138
622.6714	0.084061
622.9004	0.088240
623.1294	0.087396
623.3584	0.090372
623.5874	0.092778
623.8164	0.088261
624.0454	0.085898
624.2745	0.087903
624.5035	0.089697
624.7326	0.092208
624.9617	0.088156
625.1908	0.084990
625.4199	0.084146
625.6490	0.082542
625.8781	0.080326
626.1072	0.079629
626.3364	0.075303
626.5655	0.071905
626.7947	0.072158
627.0238	0.069668
627.2530	0.070934
627.4822	0.071230
627.7114	0.072791
627.9406	0.071187
628.1698	0.066713
628.3991	0.063273
628.6283	0.059221
628.8576	0.057765
629.0868	0.059833
629.3161	0.062387
629.5454	0.065595
629.7747	0.063083
630.0040	0.061690
630.2333	0.061247
630.4626	0.059347
630.6920	0.057511
630.9213	0.054747
631.1507	0.056604
631.3801	0.055612
631.6094	0.052277
631.8388	0.053206
632.0682	0.054810
632.2976	0.054557
632.5271	0.052130
632.7565	0.047339
632.9859	0.046663
633.2154	0.044954
633.4448	0.045714
633.6743	0.045355
633.9038	0.046030
634.1333	0.045186
634.3628	0.043856
634.5923	0.044236
634.8218	0.043012
635.0514	0.041028
635.2809	0.042463
635.5105	0.040079
635.7400	0.042907
635.9696	0.044616
636.1992	0.042991
636.4288	0.045946
636.6584	0.046199
636.8880	0.045545
637.1177	0.042463
637.3473	0.042611
637.5770	0.040923
637.8066	0.042759
638.0363	0.041092
638.2660	0.043054
638.4957	0.042970
638.7254	0.041957
638.9551	0.043181
639.1848	0.041704
639.4145	0.040290
639.6443	0.038438
639.8740	0.039177
640.1038	0.035814
640.3336	0.038748
640.5633	0.035763
640.7931	0.036020
641.0229	0.035743
641.2528	0.034540
641.4826	0.035458
641.7124	0.031993
641.9423	0.031052
642.1721	0.031726
642.4020	0.030263
642.6319	0.030460
642.8617	0.029557
643.0916	0.031153
643.3216	0.029510
643.5515	0.029485
643.7814	0.031353
644.0113	0.032414
644.2413	0.029122
644.4712	0.029257
644.7012	0.026756
644.9312	0.028092
645.1612	0.028839
645.3912	0.027788
645.6212	0.025938
645.8512	0.027881
646.0812	0.027898
646.3113	0.027011
646.5413	0.024939
646.7714	0.025551
647.0015	0.026610
647.2316	0.026651
647.4616	0.025941
647.6918	0.027101
647.9219	0.027185
648.1520	0.030252
648.3821	0.029562
648.6123	0.033669
648.8424	0.031007
649.0726	0.034242
649.3028	0.033916
649.5329	0.036716
649.7631	0.033644
649.9933	0.031120
650.2236	0.031451
650.4538	0.029448
650.6840	0.028811
650.9143	0.030464
651.1445	0.028917
651.3748	0.029425
651.6051	0.030412
651.8354	0.031424
652.0657	0.030539
652.2960	0.030161
652.5263	0.032805
652.7566	0.032950
652.9870	0.032833
653.2173	0.032721
653.4477	0.031251
653.6780	0.033250
653.9084	0.031837
654.1388	0.033307
654.3692	0.034936
654.5996	0.036871
654.8300	0.042304
655.0605	0.065843
655.2909	0.196054
655.5213	0.529911
655.7518	0.965394
655.9823	1.000000
656.2128	1.000000
656.4433	1.000000
656.6738	1.000000
656.9043	1.000000
657.1348	0.874157
657.3653	0.722313
657.5959	0.617332
657.8264	0.543829
658.0570	0.492215
658.2875	0.454761
658.5181	0.414555
658.7487	0.379188
658.9793	0.370515
659.2099	0.332811
659.4406	0.256071
659.6712	0.166963
659.9018	0.099597
660.1325	0.061623
660.3632	0.039299
660.5938	0.031470
660.8245	0.027836
661.0552	0.023992
661.2859	0.024705
661.5166	0.025457
661.7474	0.023904
661.9781	0.023432
662.2088	0.022090
662.4396	0.023138
662.6704	0.023033
662.9011	0.022735
663.1319	0.020963
663.3627	0.020201
663.5935	0.023192
663.8243	0.023550
664.0552	0.021509
664.2860	0.022332
664.5168	0.023303
664.7477	0.023779
664.9786	0.022326
665.2094	0.024912
665.4403	0.023727
665.6712	0.024692
665.9021	0.021621
666.1330	0.025509
666.3640	0.022244
666.5949	0.021714
666.8259	0.024482
667.0568	0.022241
667.2878	0.020665
667.5188	0.022498
667.7497	0.020809
667.9807	0.020960
668.2117	0.021207
668.4428	0.021401
668.6738	0.020113
668.9048	0.023321
669.1359	0.019480
669.3669	0.023194
669.5980	0.020155
669.8291	0.021886
670.0602	0.022329
670.2913	0.021907
670.5224	0.023237
670.7535	0.023595
670.9846	0.023300
671.2157	0.023933
671.4469	0.025664
671.6781	0.027394
671.9092	0.029062
672.1404	0.031003
672.3716	0.034021
672.6028	0.032839
672.8340	0.034275
673.0652	0.033705
673.2964	0.032460
673.5277	0.030961
673.7589	0.029737
673.9902	0.029209
674.2214	0.028640
674.4527	0.030244
674.6840	0.026445
674.9153	0.026339
675.1466	0.026044
675.3779	0.028323
675.6093	0.026508
675.8406	0.025221
676.0719	0.025664
676.3033	0.026065
676.5347	0.027057
676.7661	0.026318
676.9974	0.023532
677.2288	0.023532
677.4602	0.025284
677.6917	0.028724
677.9231	0.028513
678.1545	0.027943
678.3860	0.029146
678.6174	0.029800
678.8489	0.030539
679.0804	0.031151
679.3119	0.031235
679.5434	0.035267
679.7749	0.033705
680.0064	0.036301
680.2379	0.033473
680.4694	0.034802
680.7010	0.032882
680.9325	0.033388
681.1641	0.035689
681.3957	0.036237
681.6273	0.034655
681.8589	0.034042
682.0905	0.035224
682.3221	0.033051
682.5537	0.032861
682.7854	0.030117
683.0170	0.032227
683.2487	0.030286
683.4803	0.030307
683.7120	0.031341
683.9437	0.031257
684.1754	0.034042
684.4071	0.033768
684.6388	0.038707
684.8705	0.039213
685.1023	0.042527
685.3340	0.043666
685.5658	0.044933
685.7975	0.044257
686.0293	0.048331
686.2611	0.046051
686.4929	0.042316
686.7247	0.044785
686.9565	0.043244
687.1883	0.044257
687.4202	0.044342
687.6520	0.043181
687.8838	0.043244
688.1157	0.041155
688.3476	0.041408
688.5795	0.038770
688.8114	0.038791
689.0433	0.033747
689.2752	0.038221
689.5071	0.036427
689.7390	0.036364
689.9710	0.036512
690.2029	0.035414
690.4349	0.033663
690.6669	0.033768
690.8988	0.035668
691.1308	0.036807
691.3628	0.040290
691.5948	0.037926
691.8269	0.036406
692.0589	0.038812
692.2909	0.039741
692.5230	0.037588
692.7550	0.038580
692.9871	0.037082
693.2192	0.038095
693.4513	0.038453
693.6834	0.037504
693.9155	0.037862
694.1476	0.037018
694.3797	0.033135
694.6119	0.032882
694.8440	0.034380
695.0762	0.034380
695.3083	0.036871
695.5405	0.033304
695.7727	0.030265
696.0049	0.031700
696.2371	0.030940
696.4693	0.032354
696.7016	0.036406
696.9338	0.041345
697.1660	0.040691
697.3983	0.038010
697.6306	0.038664
697.8628	0.040163
698.0951	0.039656
698.3274	0.038812
698.5597	0.037461
698.7920	0.036491
699.0243	0.035752
699.2567	0.036406
699.4890	0.036786
699.7214	0.035625
699.9537	0.033093
700.1861	0.032396
700.4185	0.032101
700.6509	0.033831
700.8833	0.032354
701.1157	0.030898
701.3481	0.027690
701.5806	0.027120
701.8130	0.029990
702.0454	0.029357
702.2779	0.030433
702.5104	0.029948
702.7429	0.029167
702.9753	0.031848
703.2078	0.029610
703.4403	0.028872
703.6729	0.028745
703.9054	0.029969
704.1379	0.027711
704.3705	0.029568
704.6030	0.028998
704.8356	0.026466
705.0682	0.027310
705.3008	0.024292
705.5334	0.026023
705.7660	0.021316
705.9986	0.025875
706.2312	0.027563
706.4638	0.031067
706.6965	0.034465
706.9291	0.034570
707.1618	0.035478
707.3945	0.037398
707.6272	0.037609
707.8599	0.037440
708.0926	0.038728
708.3253	0.037419
708.5580	0.036575
708.7907	0.035583
709.0235	0.034000
709.2562	0.033937
709.4890	0.034655
709.7217	0.035414
709.9545	0.035625
710.1873	0.034232
710.4201	0.034802
710.6529	0.034106
710.8857	0.032650
711.1186	0.032734
711.3514	0.032523
711.5842	0.029800
711.8171	0.030391
712.0500	0.029610
712.2828	0.026803
712.5157	0.028429
712.7486	0.030391
712.9815	0.030645
713.2144	0.027880
713.4474	0.030497
713.6803	0.032333
713.9132	0.034148
714.1462	0.035203
714.3791	0.033029
714.6121	0.034232
714.8451	0.035984
715.0781	0.035710
715.3111	0.035499
715.5441	0.034507
715.7771	0.035182
716.0102	0.032692
716.2432	0.029674
716.4762	0.030033
716.7093	0.028429
716.9424	0.030244
717.1754	0.027711
717.4085	0.029526
717.6416	0.027584
717.8747	0.028534
718.1078	0.029800
718.3410	0.031172
718.5741	0.027838
718.8072	0.029146
719.0404	0.028808
719.2736	0.031046
719.5067	0.028808
719.7399	0.031742
719.9731	0.026888
720.2063	0.028386
720.4395	0.028006
720.6727	0.030623
720.9060	0.028471
721.1392	0.028808
721.3725	0.029463
721.6057	0.027880
721.8390	0.030349
722.0723	0.029357
722.3055	0.028260
722.5388	0.027774
722.7721	0.027458
723.0055	0.025643
723.2388	0.026445
723.4721	0.027226
723.7055	0.029231
723.9388	0.028724
724.1722	0.029062
724.4056	0.027014
724.6389	0.027078
724.8723	0.028196
725.1057	0.029843
725.3391	0.031805
725.5726	0.030919
725.8060	0.035562
726.0394	0.031869
726.2729	0.034211
726.5063	0.035056
726.7398	0.033156
726.9733	0.031489
727.2068	0.032861
727.4403	0.032037
727.6738	0.032523
727.9073	0.033916
728.1408	0.034042
728.3743	0.032776
728.6079	0.033219
728.8414	0.035731
729.0750	0.034275
729.3086	0.035182
729.5421	0.038010
729.7757	0.037272
730.0093	0.036849
730.2429	0.033874
730.4766	0.037841
730.7102	0.040100
730.9438	0.042611
731.1775	0.044532
731.4111	0.042991
731.6448	0.041471
731.8785	0.043413
732.1122	0.042674
732.3458	0.038580
732.5795	0.040480
732.8133	0.042696
733.0470	0.043097
733.2807	0.042907
733.5145	0.043455
733.7482	0.045123
733.9820	0.048204
734.2157	0.049470
734.4495	0.050336
734.6833	0.050420
734.9171	0.048331
735.1509	0.046790
735.3847	0.047212
735.6185	0.047507
735.8524	0.047930
736.0862	0.048647
736.3201	0.045692
736.5539	0.048689
736.7878	0.047465
737.0217	0.048141
737.2556	0.050336
737.4895	0.049935
737.7234	0.043498
737.9573	0.044278
738.1912	0.042759
738.4252	0.042653
738.6591	0.041134
738.8931	0.041830
739.1271	0.042738
739.3610	0.046347
739.5950	0.046051
739.8290	0.046199
740.0630	0.045946
740.2970	0.041915
740.5310	0.040057
740.7651	0.037736
740.9991	0.038285
741.2332	0.035604
741.4672	0.033789
741.7013	0.033831
741.9354	0.035056
742.1695	0.034000
742.4036	0.034211
742.6377	0.036406
742.8718	0.033367
743.1059	0.033937
743.3400	0.031658
743.5742	0.030265
743.8083	0.030792
744.0425	0.030391
744.2767	0.029653
744.5108	0.029083
744.7450	0.028851
744.9792	0.030581
745.2134	0.030834
745.4477	0.028977
745.6819	0.029315
745.9161	0.028302
746.1504	0.029399
746.3846	0.027437
746.6189	0.028576
746.8532	0.029252
747.0874	0.030201
747.3217	0.032692
747.5560	0.032797
747.7903	0.031932
748.0247	0.030666
748.2590	0.030075
748.4933	0.027542
748.7277	0.031024
748.9620	0.030286
749.1964	0.029885
749.4308	0.033135
749.6652	0.034275
749.8995	0.035414
750.1339	0.038643
750.3684	0.040627
750.6028	0.040881
750.8372	0.040480
751.0717	0.041134
751.3061	0.039509
751.5406	0.039656
751.7750	0.039867
752.0095	0.040627
752.2440	0.039108
752.4785	0.038686
752.7130	0.037968
752.9475	0.036955
753.1820	0.037103
753.4166	0.039340
753.6511	0.041176
753.8856	0.041725
754.1202	0.041387
754.3548	0.041134
754.5894	0.039488
754.8239	0.040311
755.0585	0.040184
755.2931	0.040374
755.5278	0.041493
755.7624	0.044173
755.9970	0.044278
756.2317	0.045925
756.4663	0.049576
756.7010	0.050420
756.9356	0.052910
757.1703	0.053881
757.4050	0.056414
757.6397	0.061247
757.8744	0.060234
758.1091	0.058968
758.3438	0.056920
758.5786	0.052362
758.8133	0.054240
759.0481	0.054388
759.2828	0.054071
759.5176	0.060909
759.7524	0.059685
759.9872	0.059622
760.2220	0.062999
760.4568	0.062429
760.6916	0.063948
760.9264	0.061521
761.1613	0.061479
761.3961	0.057933
761.6310	0.054198
761.8658	0.052868
762.1007	0.050357
762.3356	0.051095
762.5705	0.049301
762.8054	0.048288
763.0403	0.049449
763.2752	0.050589
763.5101	0.049238
763.7450	0.048922
763.9800	0.050504
764.2149	0.051665
764.4499	0.055675
764.6849	0.056604
764.9198	0.058060
765.1548	0.059115
765.3898	0.056414
765.6248	0.055380
765.8599	0.053797
766.0949	0.049365
766.3299	0.047085
766.5650	0.043920
766.8000	0.043709
767.0351	0.042421
767.2701	0.040648
767.5052	0.037567
767.7403	0.037757
767.9754	0.041197
768.2105	0.044764
768.4456	0.045524
768.6808	0.046938
768.9159	0.049006
769.1510	0.046431
769.3862	0.047022
769.6214	0.045840
769.8565	0.046051
770.0917	0.044342
770.3269	0.044447
770.5621	0.045587
770.7973	0.046220
771.0325	0.046853
771.2677	0.047803
771.5030	0.047064
771.7382	0.043835
771.9735	0.041260
772.2087	0.041661
772.4440	0.041535
772.6793	0.040585
772.9146	0.039171
773.1499	0.039720
773.3852	0.037926
773.6205	0.037546
773.8558	0.039044
774.0911	0.036554
774.3265	0.034950
774.5618	0.034317
774.7972	0.030054
775.0326	0.030222
775.2679	0.031489
775.5033	0.028851
775.7387	0.028492
775.9741	0.026761
776.2095	0.028808
776.4450	0.024841
776.6804	0.025073
776.9158	0.026571
777.1513	0.026508
777.3868	0.025115
777.6222	0.023490
777.8577	0.025157
778.0932	0.024904
778.3287	0.026677
778.5642	0.027078
778.7997	0.029420
779.0352	0.029442
779.2707	0.028935
779.5063	0.030645
779.7418	0.030033
779.9774	0.029357
780.2130	0.028956
780.4485	0.029146
780.6841	0.027437
780.9197	0.030919
781.1553	0.031805
781.3909	0.035161
781.6265	0.036132
781.8622	0.034697
782.0978	0.035140
782.3335	0.032460
782.5691	0.035625
782.8048	0.034000
783.0405	0.033916
783.2761	0.032966
783.5118	0.033831
783.7475	0.034633
783.9832	0.035119
784.2190	0.031257
784.4547	0.030961
784.6904	0.030349
784.9262	0.028513
785.1619	0.029505
785.3977	0.029674
785.6335	0.028302
785.8692	0.030054
786.1050	0.028597
786.3408	0.028956
786.5766	0.030096
786.8124	0.027289
787.0483	0.027985
787.2841	0.029231
787.5199	0.028787
787.7558	0.031299
787.9917	0.030011
788.2275	0.030792
788.4634	0.030054
788.6993	0.031658
788.9352	0.032861
789.1711	0.032945
789.4070	0.031700
789.6429	0.031088
789.8789	0.030286
790.1148	0.027521
790.3507	0.025833
790.5867	0.025938
790.8227	0.024123
791.0586	0.023701
791.2946	0.025410
791.5306	0.025221
791.7666	0.024482
792.0026	0.022224
792.2387	0.023279
792.4747	0.022160
792.7107	0.023005
792.9468	0.021802
793.1828	0.021780
793.4189	0.023553
793.6550	0.023638
793.8910	0.025474
794.1271	0.031721
794.3632	0.030307
794.5993	0.033367
794.8355	0.031024
795.0716	0.032565
795.3077	0.034296
795.5439	0.030581
795.7800	0.028302
796.0162	0.026698
796.2523	0.025115
796.4885	0.024018
796.7247	0.021084
796.9609	0.021675
797.1971	0.021379
797.4333	0.022540
797.6695	0.023384
797.9058	0.025031
798.1420	0.023089
798.3783	0.024461
798.6145	0.023912
798.8508	0.024714
799.0871	0.022561
799.3233	0.024144
799.5596	0.021316
799.7959	0.023047
800.0322	0.019501
800.2686	0.019332
800.5049	0.017517
800.7412	0.020092
800.9776	0.018805
801.2139	0.018784
801.4503	0.017391
801.6867	0.019607
801.9230	0.017074
802.1594	0.018551
802.3958	0.018024
802.6322	0.016504
802.8686	0.015850
803.1051	0.017285
803.3415	0.016145
803.5779	0.018277
803.8144	0.017222
804.0508	0.017158
804.2873	0.017032
804.5238	0.016399
804.7603	0.016567
804.9968	0.017749
805.2333	0.017348
805.4698	0.019311
805.7063	0.017855
805.9428	0.021000
806.1794	0.019923
806.4159	0.022498
806.6525	0.026170
806.8890	0.024672
807.1256	0.023511
807.3622	0.022667
807.5988	0.023870
807.8354	0.022371
808.0720	0.022561
808.3086	0.022118
808.5452	0.023785
808.7818	0.024144
809.0185	0.023173
809.2551	0.020725
809.4918	0.021084
809.7284	0.021949
809.9651	0.019206
810.2018	0.019227
810.4385	0.019649
810.6752	0.019037
810.9119	0.018551
811.1486	0.019733
811.3853	0.019775
811.6221	0.019585
811.8588	0.016399
812.0956	0.017348
812.3323	0.014668
812.5691	0.014774
812.8059	0.014541
813.0427	0.014330
813.2795	0.015132
813.5163	0.016293
813.7531	0.018551
813.9899	0.019163
814.2267	0.020345
814.4636	0.019100
814.7004	0.017602
814.9373	0.019290
815.1742	0.017306
815.4110	0.015660
815.6479	0.015702
815.8848	0.013191
816.1217	0.015428
816.3586	0.013929
816.5955	0.015069
816.8324	0.015027
817.0694	0.013782
817.3063	0.014710
817.5433	0.014942
817.7802	0.014246
818.0172	0.013444
818.2542	0.014816
818.4912	0.013338
818.7282	0.011945
818.9652	0.013001
819.2022	0.012431
819.4392	0.013423
819.6762	0.012135
819.9133	0.011840
820.1503	0.012199
820.3874	0.014161
820.6244	0.014584
820.8615	0.016124
821.0986	0.015238
821.3357	0.017918
821.5727	0.015576
821.8099	0.014204
822.0470	0.015702
822.2841	0.013549
822.5212	0.013317
822.7584	0.013782
822.9955	0.012325
823.2327	0.011017
823.4698	0.012157
823.7070	0.012790
823.9442	0.011608
824.1814	0.013317
824.4186	0.011312
824.6558	0.011713
824.8930	0.011756
825.1302	0.012325
825.3675	0.013170
825.6047	0.012473
825.8419	0.012769
826.0792	0.012684
826.3165	0.014246
826.5537	0.010152
826.7910	0.013148
827.0283	0.014140
827.2656	0.012705
827.5029	0.013634
827.7402	0.014161
827.9776	0.014373
828.2149	0.011650
828.4522	0.010869
828.6896	0.013528
828.9270	0.012790
829.1643	0.012262
829.4017	0.013275
829.6391	0.012093
829.8765	0.012346
830.1139	0.011924
830.3513	0.011312
830.5887	0.010341
830.8261	0.008970
831.0636	0.007999
831.3010	0.009054
831.5385	0.007999
831.7759	0.008991
832.0134	0.008358
832.2509	0.008716
832.4884	0.008294
832.7259	0.009645
832.9634	0.008674
833.2009	0.010531
833.4384	0.009117
833.6759	0.008759
833.9135	0.011165
834.1510	0.009708
834.3886	0.008801
834.6261	0.011017
834.8637	0.010320
835.1013	0.010616
835.3389	0.010447
835.5765	0.010553
835.8141	0.010447
836.0517	0.009603
836.2893	0.009708
836.5269	0.008822
836.7646	0.007978
837.0022	0.008294
837.2399	0.006986
837.4775	0.008780
837.7152	0.007155
837.9529	0.007746
838.1906	0.006606
838.4283	0.007577
838.6660	0.006901
838.9037	0.007556
839.1414	0.007682
839.3791	0.006901
839.6169	0.007851
839.8546	0.009645
840.0924	0.007513
840.3302	0.007851
840.5679	0.004981
840.8057	0.008210
841.0435	0.006268
841.2813	0.006606
841.5191	0.006437
841.7569	0.005551
841.9947	0.006754
842.2326	0.005698
842.4704	0.005572
842.7082	0.005614
842.9461	0.004622
843.1840	0.004960
843.4218	0.006036
843.6597	0.005424
843.8976	0.004390
844.1355	0.007028
844.3734	0.004939
844.6113	0.005677
844.8492	0.005593
845.0872	0.005129
845.3251	0.003989
845.5631	0.006184
845.8010	0.004791
846.0390	0.005867
846.2770	0.003968
846.5149	0.004917
846.7529	0.005403
846.9909	0.004896
847.2289	0.004791
847.4669	0.006627
847.7050	0.006163
847.9430	0.006374
848.1810	0.006416
848.4191	0.005635
848.6571	0.004263
848.8952	0.005677
849.1333	0.004812
849.3713	0.005382
849.6094	0.004031
849.8475	0.005593
850.0856	0.003799
850.3237	0.006310
850.5619	0.004939
850.8000	0.005762
851.0381	0.004495
851.2763	0.003904
851.5144	0.004833
851.7526	0.007091
851.9908	0.005656
852.2289	0.006648
852.4671	0.006353
852.7053	0.008020
852.9435	0.010025
853.1817	0.011333
853.4200	0.015132
853.6582	0.013634
853.8964	0.012684
854.1347	0.013338
854.3729	0.013254
854.6112	0.015576
854.8495	0.014731
855.0877	0.013233
855.3260	0.014246
855.5643	0.012937
855.8026	0.014183
856.0409	0.009371
856.2792	0.011017
856.5176	0.012558
856.7559	0.009518
856.9942	0.012600
857.2326	0.011270
857.4710	0.010299
857.7093	0.010278
857.9477	0.011165
858.1861	0.010553
858.4245	0.008906
858.6629	0.010785
858.9013	0.010700
859.1397	0.008864
859.3781	0.008801
859.6166	0.009687
859.8550	0.007851
860.0935	0.009413
860.3319	0.008906
860.5704	0.006289
860.8089	0.008020
861.0473	0.005973
861.2858	0.006922
861.5243	0.007450
861.7628	0.006332
862.0013	0.006437
862.2399	0.007366
862.4784	0.004728
862.7169	0.006521
862.9555	0.005931
863.1940	0.005614
863.4326	0.006859
863.6712	0.007746
863.9098	0.006690
864.1483	0.007429
864.3869	0.006944
864.6255	0.007323
864.8642	0.005719
865.1028	0.006690
865.3414	0.005255
865.5800	0.007513
865.8187	0.004981
866.0573	0.004833
866.2960	0.005297
866.5347	0.004875
866.7733	0.005361
867.0120	0.006015
867.2507	0.005192
867.4894	0.006922
867.7281	0.006057
867.9669	0.006606
868.2056	0.006479
868.4443	0.006057
868.6831	0.005508
868.9218	0.006564
869.1606	0.004685
869.3993	0.005656
869.6381	0.004369
869.8769	0.005213
870.1157	0.004263
870.3545	0.004137
870.5933	0.007028
870.8321	0.006374
871.0709	0.004580
871.3097	0.007007
871.5486	0.004094
871.7874	0.004770
872.0263	0.004749
872.2651	0.006036
872.5040	0.003292
872.7429	0.005508
872.9818	0.005656
873.2207	0.004875
873.4596	0.004411
873.6985	0.004706
873.9374	0.003377
874.1763	0.004685
874.4153	0.004875
874.6542	0.004791
874.8932	0.003588
875.1321	0.005888
875.3711	0.005931
875.6101	0.006015
875.8491	0.005551
876.0880	0.005614
876.3270	0.005867
876.5661	0.005804
876.8051	0.006669
877.0441	0.005023
877.2831	0.006543
877.5222	0.006057
877.7612	0.006374
878.0003	0.007387
878.2393	0.007619
878.4784	0.005656
878.7175	0.007577
878.9566	0.006711
879.1957	0.008062
879.4348	0.008548
879.6739	0.008083
879.9130	0.007788
880.1521	0.009286
880.3913	0.007999
880.6304	0.007112
880.8696	0.007155
881.1087	0.007640
881.3479	0.007218
881.5871	0.008463
881.8262	0.006965
882.0654	0.006078
882.3046	0.006648
882.5438	0.007091
882.7831	0.004643
883.0223	0.006521
883.2615	0.005297
883.5007	0.007577
883.7400	0.005487
883.9792	0.004770
884.2185	0.006036
884.4578	0.006099
884.6971	0.005656
884.9363	0.006289
885.1756	0.005065
885.4149	0.007661
885.6542	0.005867
885.8936	0.005888
886.1329	0.006669
886.3722	0.007049
886.6116	0.006099
886.8509	0.006226
887.0903	0.005340
887.3296	0.005719
887.5690	0.004706
887.8084	0.005255
888.0478	0.005719
888.2872	0.005424
888.5266	0.005846
888.7660	0.005297
889.0054	0.003440
889.2448	0.006437
889.4843	0.004516
889.7237	0.004390
889.9632	0.004812
890.2026	0.006226
890.4421	0.004685
890.6816	0.005192
890.9211	0.003546
891.1606	0.006817
891.4001	0.005171
891.6396	0.005867
891.8791	0.005171
892.1186	0.006416
892.3581	0.004432
892.5977	0.005318
892.8372	0.005508
893.0768	0.004939
893.3163	0.003714
893.5559	0.005677
893.7955	0.003693
894.0351	0.005234
894.2747	0.005044
894.5143	0.005023
894.7539	0.004200
894.9935	0.005698
895.2331	0.005044
895.4727	0.003356
895.7124	0.003609
895.9520	0.004158
896.1917	0.005677
896.4314	0.004875
896.6710	0.005065
896.9107	0.005044
897.1504	0.004221
897.3901	0.004031
897.6298	0.004474
897.8695	0.007513
898.1092	0.004896
898.3489	0.004390
898.5887	0.004348
898.8284	0.004242
899.0682	0.005107
899.3079	0.004538
899.5477	0.003799
899.7875	0.003714
900.0272	0.003883
900.2670	0.004706
900.5068	0.004706
900.7466	0.002786
900.9864	0.005340
901.2263	0.005888
901.4661	0.003672
901.7059	0.004453
901.9458	0.003778
902.1856	0.006775
902.4255	0.004664
902.6654	0.004917
902.9052	0.004706
903.1451	0.005719
903.3850	0.005234
903.6249	0.004706
903.8648	0.004158
904.1047	0.005783
904.3446	0.004411
904.5846	0.004643
904.8245	0.005255
905.0644	0.005846
905.3044	0.005129
905.5444	0.005994
905.7843	0.005213
906.0243	0.005656
906.2643	0.005508
906.5043	0.005129
906.7443	0.005382
906.9843	0.004981
907.2243	0.003039
907.4643	0.004495
907.7043	0.004601
907.9444	0.005129
908.1844	0.003419
908.4245	0.005551
908.6645	0.004327
908.9046	0.004917
909.1447	0.003525
909.3847	0.004073
909.6248	0.004812
909.8649	0.003503
910.1050	0.003398
910.3452	0.003229
910.5853	0.003060
910.8254	0.003926
911.0655	0.005297
911.3057	0.003736
911.5458	0.005551
911.7860	0.004284
912.0262	0.003229
912.2663	0.005002
912.5065	0.003989
912.7467	0.004812
912.9869	0.005150
913.2271	0.005044
913.4673	0.003313
913.7075	0.003356
913.9478	0.002744
914.1880	0.004073
914.4283	0.003482
914.6685	0.003820
914.9088	0.004052
915.1490	0.002237
915.3893	0.002575
915.6296	0.003018
915.8699	0.004179
916.1102	0.004791
916.3505	0.003229
916.5908	0.004348
916.8311	0.003313
917.0714	0.004115
917.3118	0.004474
917.5521	0.005255
917.7925	0.005171
918.0328	0.004179
918.2732	0.004939
918.5136	0.003947
918.7539	0.004622
918.9943	0.005530
919.2347	0.002976
919.4751	0.004495
919.7155	0.004327
919.9560	0.004664
920.1964	0.004327
920.4368	0.003820
920.6773	0.003356
920.9177	0.003292
921.1582	0.005171
921.3986	0.003187
921.6391	0.003208
921.8796	0.003630
922.1201	0.003926
922.3606	0.003166
922.6011	0.002490
922.8416	0.003102
923.0821	0.002047
923.3226	0.003229
923.5631	0.001604
923.8037	0.003672
924.0442	0.003039
924.2848	0.003778
924.5254	0.003124
924.7659	0.002111
925.0065	0.002237
925.2471	0.003377
925.4877	0.002997
925.7283	0.002870
925.9689	0.001520
926.2095	0.003060
926.4501	0.002132
926.6908	0.003609
926.9314	0.003187
927.1720	0.003503
927.4127	0.002997
927.6533	0.003820
927.8940	0.002300
928.1347	0.002385
928.3754	0.002490
928.6161	0.002807
928.8568	0.002469
929.0975	0.003672
929.3382	0.003060
929.5789	0.002828
929.8196	0.002533
930.0604	0.003757
930.3011	0.002385
930.5419	0.002997
930.7826	0.002047
931.0234	0.004010
931.2642	0.001857
931.5049	0.003208
931.7457	0.002237
931.9865	0.002934
932.2273	0.000929
932.4681	0.001857
932.7089	0.002322
932.9498	0.001477
933.1906	0.002828
933.4314	0.003356
933.6723	0.002047
933.9131	0.001878
934.1540	0.003271
934.3949	0.003525
934.6358	0.002912
934.8766	0.003292
935.1175	0.003081
935.3584	0.002132
935.5993	0.002279
935.8403	0.003060
936.0812	0.001688
936.3221	0.002701
936.5630	0.001224
936.8040	0.001878
937.0449	0.001583
937.2859	0.002533
937.5269	0.002385
937.7678	0.002448
938.0088	0.002237
938.2498	0.001520
938.4908	0.001878
938.7318	0.000127
938.9728	0.001836
939.2138	0.001583
939.4549	0.002195
939.6959	0.002701
939.9369	0.003714
940.1780	0.001076
940.4190	0.002132
940.6601	-0.000063
940.9012	0.002406
941.1422	0.000718
941.3833	0.002723
941.6244	0.000865
941.8655	0.002807
942.1066	0.002258
942.3477	0.000802
942.5889	0.001541
942.8300	0.000401
943.0711	0.001245
943.3123	-0.000591
943.5534	0.000950
943.7946	0.001477
944.0357	0.001752
944.2769	0.001224
944.5181	0.000760
944.7593	0.002005
945.0005	0.001055
945.2417	0.000232
945.4829	0.002005
945.7241	0.000232
945.9653	0.000950
946.2066	0.002490
946.4478	0.001140
946.6891	0.001456
946.9303	0.001119
947.1716	0.002343
947.4128	0.000190
947.6541	-0.000274
947.8954	0.001203
948.1367	0.001287
948.3780	0.001372
948.6193	0.001498
948.8606	0.000317
949.1019	0.001287
949.3433	0.000359
949.5846	0.000844
949.8259	0.001899
950.0673	0.002385
950.3086	0.001794
950.5500	0.001604
950.7914	0.000886
951.0327	0.000823
951.2741	-0.000549
951.5155	0.002723
951.7569	0.001435
951.9983	0.002490
952.2398	0.000063
952.4812	0.001477
952.7226	0.000127
952.9640	0.002997
953.2055	0.001752
953.4469	0.001477
953.6884	0.001646
953.9299	0.001456
954.1713	0.002132
954.4128	0.002343
954.6543	0.001287
954.8958	0.001667
955.1373	0.002490
955.3788	0.002617
955.6203	0.001414
955.8618	0.000802
956.1034	0.001097
956.3449	0.002174
956.5865	0.000633
956.8280	0.002300
957.0696	0.002132
957.3111	0.001646
957.5527	0.001752
957.7943	-0.000232
958.0359	0.001477
958.2775	0.001604
958.5191	-0.000084
958.7607	0.002891
959.0023	0.001625
959.2439	0.001857
959.4856	0.001330
959.7272	0.001013
959.9688	0.001076
960.2105	0.002153
960.4522	0.000633
960.6938	0.000570
960.9355	0.000760
961.1772	0.001182
961.4189	0.000886
961.6606	0.002638
961.9023	0.000338
962.1440	0.001203
962.3857	0.000802
962.6274	0.000992
962.8692	0.001625
963.1109	0.000338
963.3527	0.001710
963.5944	0.000253
963.8362	0.000084
964.0779	0.000084
964.3197	0.000464
964.5615	0.001625
964.8033	0.000612
965.0451	0.001625
965.2869	0.002575
965.5287	0.000718
965.7705	0.000654
966.0123	0.001330
966.2542	0.001203
966.4960	0.000295
966.7379	-0.000591
966.9797	0.000929
967.2216	0.000950
967.4634	-0.000338
967.7053	0.001562
967.9472	0.000781
968.1891	0.001224
968.4310	0.002554
968.6729	0.000338
968.9148	0.001224
969.1567	0.000253
969.3987	0.002005
969.6406	-0.000063
969.8825	0.000823
970.1245	-0.000359
970.3664	0.001456
970.6084	-0.000190
970.8504	0.001013
971.0923	0.000886
971.3343	0.000253
971.5763	0.002364
971.8183	0.001287
972.0603	-0.000211
972.3023	0.001477
972.5443	0.001520
972.7864	-0.000781
973.0284	-0.000063
973.2704	0.001372
973.5125	0.001456
973.7545	0.001393
973.9966	0.000696
974.2387	0.002216
974.4807	0.001984
974.7228	0.002870
974.9649	-0.000338
975.2070	0.000338
975.4491	0.001646
975.6912	0.002174
975.9333	0.000106
976.1755	0.001794
976.4176	0.000000
976.6597	0.001287
976.9019	0.001372
977.1440	0.001562
977.3862	-0.000232
977.6283	0.000359
977.8705	0.001224
978.1127	0.000971
978.3549	0.002659
978.5971	0.001984
978.8393	0.000253
979.0815	0.000633
979.3237	-0.000274
979.5659	0.000760
979.8082	-0.000253
980.0504	0.001161
980.2926	0.000612
980.5349	0.001583
980.7771	0.000127
981.0194	0.001013
981.2617	0.000844
981.5040	0.001372
981.7462	0.000908
981.9885	0.000591
982.2308	0.001921
982.4731	-0.001182
982.7155	0.001498
982.9578	-0.000865
983.2001	0.000211
983.4424	0.001076
983.6848	0.000317
983.9271	0.000612
984.1695	0.000844
984.4118	-0.000401
984.6542	0.001182
984.8966	0.000211
985.1390	-0.000169
985.3814	0.001583
985.6238	0.000232
985.8662	0.002216
986.1086	-0.000443
986.3510	0.000865
986.5934	0.001541
986.8358	0.000823
987.0783	-0.000992
987.3207	-0.000232
987.5632	0.001013
987.8056	-0.000549
988.0481	0.000380
988.2906	0.000781
988.5331	0.001372
988.7756	0.000359
989.0180	0.000359
989.2605	-0.000443
989.5031	0.000232
989.7456	-0.000063
989.9881	-0.000042
990.2306	0.000042
990.4732	0.001140
990.7157	0.000063
990.9582	0.000253
991.2008	0.001498
991.4434	-0.000443
991.6859	0.000823
991.9285	0.001203
992.1711	0.000865
992.4137	0.000950
992.6563	0.000063
992.8989	-0.000148
993.1415	-0.000570
993.3841	0.001393
993.6267	0.001477
993.8694	0.000148
994.1120	0.000760
994.3547	0.000084
994.5973	0.000338
994.8400	0.000654
995.0826	0.000021
995.3253	0.000908
995.5680	-0.000190
995.8107	-0.000021
996.0534	0.000063
996.2961	-0.000190
996.5388	0.001921
996.7815	0.001710
997.0242	0.000886
997.2670	0.000274
997.5097	0.000865
997.7524	0.000211
997.9952	0.001541
998.2379	0.000211
998.4807	0.001498
998.7235	0.000359
998.9662	0.000844
999.2090	0.001140
999.4518	0.000253
999.6946	0.000992
999.9374	0.001224
1000.1802	0.001878
1000.4230	-0.000528
1000.6659	-0.000612
1000.9087	0.001034
1001.1515	0.000781
1001.3944	-0.000148
1001.6372	0.000971
1001.8801	0.000908
1002.1230	0.001097
1002.3658	-0.000422
1002.6087	0.000718
1002.8516	0.000127
1003.0945	0.000485
1003.3374	0.001013
1003.5803	0.000823
1003.8232	0.000528
1004.0661	0.001794
1004.3091	0.001224
1004.5520	0.000802
1004.7949	0.000570
1005.0379	0.000823
1005.2808	0.000338
1005.5238	0.001794
1005.7667	0.000443
1006.0097	0.001414
1006.2527	0.000443
1006.4957	0.000696
1006.7387	0.000380
1006.9817	0.000696
1007.2247	0.000401
1007.4677	0.000929
1007.7107	-0.000211
1007.9538	-0.000084
1008.1968	0.000718
1008.4398	0.001055
1008.6829	0.000274
1008.9259	0.000507
1009.1690	-0.000253
1009.4121	-0.000696
1009.6551	0.001119
1009.8982	0.001182
1010.1413	0.001119
1010.3844	0.002089
1010.6275	-0.000106
1010.8706	0.001477
1011.1137	-0.000063
1011.3568	0.002111
1011.6000	0.000570
1011.8431	0.002026
1012.0863	-0.000464
1012.3294	0.000274
1012.5726	-0.000021
1012.8157	0.001203
1013.0589	0.000338
1013.3021	0.001583
1013.5452	0.001604
1013.7884	0.001562
1014.0316	0.000865
1014.2748	0.000507
1014.5180	0.000823
1014.7613	-0.000232
1015.0045	-0.000253
1015.2477	-0.000696
1015.4909	0.000443
1015.7342	-0.000021
1015.9774	0.000127
1016.2207	0.000971
1016.4640	0.000760
1016.7072	0.000760
1016.9505	0.000317
1017.1938	-0.001203
1017.4371	0.001224
1017.6804	0.000169
1017.9237	-0.000464
1018.1670	0.000021
1018.4103	-0.000633
1018.6536	-0.000317
1018.8969	-0.000148
1019.1403	0.000211
1019.3836	-0.000591
1019.6270	-0.000127
1019.8703	0.001710
1020.1137	0.001266
1020.3571	-0.000633
1020.6004	0.001013
1020.8438	0.000865
1021.0872	0.000232
1021.3306	0.000169
1021.5740	-0.000148
1021.8174	-0.001203
1022.0608	0.000802
1022.3042	-0.000570
1022.5477	0.001182
1022.7911	0.000696
1023.0345	0.000528
