# Wavelength (nm)	Intensity (a.u.)
197.7802	-0.000317
197.9842	-0.001097
198.1882	0.001477
198.3922	0.000443
198.5963	0.001625
198.8003	-0.000781
199.0044	0.000696
199.2085	0.000148
199.4126	0.000950
199.6168	-0.000739
199.8209	0.001203
200.0251	0.001519
200.2292	0.001329
200.4334	0.000401
200.6376	-0.000021
200.8418	0.000232
201.0461	0.000739
201.2503	0.000485
201.4546	-0.001182
201.6589	0.000190
201.8631	0.000570
202.0674	-0.000106
202.2718	-0.000274
202.4761	-0.000042
202.6805	0.000696
202.8848	0.001941
203.0892	0.002110
203.2936	0.000612
203.4980	0.000485
203.7024	0.000380
203.9069	0.000253
204.1113	-0.000971
204.3158	0.001625
204.5203	0.000274
204.7248	0.001372
204.9293	0.000528
205.1338	0.000549
205.3384	-0.000063
205.5430	0.001414
205.7475	0.001245
205.9521	-0.000295
206.1567	0.000464
206.3614	0.000802
206.5660	0.000612
206.7706	0.001878
206.9753	-0.000169
207.1800	0.001836
207.3847	0.000422
207.5894	0.001266
207.7941	-0.000696
207.9989	0.000485
208.2036	0.000042
208.4084	0.000106
208.6132	-0.000295
208.8180	0.000042
209.0228	0.001097
209.2276	-0.000084
209.4325	0.000380
209.6373	-0.000781
209.8422	0.000317
210.0471	0.001498
210.2520	0.000063
210.4569	0.000443
210.6618	0.000675
210.8668	0.001540
211.0718	0.000823
211.2767	0.000549
211.4817	-0.000253
211.6867	0.000865
211.8918	-0.000506
212.0968	0.002089
212.3018	-0.000865
212.5069	0.001414
212.7120	0.000675
212.9171	0.000675
213.1222	-0.000928
213.3273	0.001456
213.5325	0.000042
213.7376	0.000549
213.9428	0.001477
214.1480	0.000528
214.3532	-0.000253
214.5584	0.001245
214.7636	0.000338
214.9689	0.001372
215.1741	0.000443
215.3794	0.001055
215.5847	0.001055
215.7900	0.000253
215.9953	0.000422
216.2007	0.001477
216.4060	0.000232
216.6114	0.000865
216.8168	-0.000886
217.0222	0.001308
217.2276	0.000591
217.4330	0.000464
217.6384	0.001625
217.8439	0.000528
218.0494	0.001034
218.2548	0.000570
218.4603	0.000633
218.6659	0.001498
218.8714	0.000992
219.0769	0.001815
219.2825	0.001561
219.4881	0.002363
219.6936	-0.000401
219.8992	0.000823
220.1049	-0.000084
220.3105	0.001203
220.5161	-0.000021
220.7218	0.000633
220.9275	0.000654
221.1332	0.000570
221.3389	-0.000654
221.5446	0.000317
221.7503	-0.000633
221.9561	0.000359
222.1618	-0.000317
222.3676	0.002005
222.5734	0.001350
222.7792	0.000633
222.9850	-0.000253
223.1909	0.002089
223.3967	0.001730
223.6026	0.000211
223.8085	0.000506
224.0144	0.000633
224.2203	-0.000506
224.4262	0.001772
224.6322	-0.000506
224.8381	0.001899
225.0441	0.000422
225.2501	-0.000422
225.4561	0.001203
225.6621	0.000380
225.8681	-0.000169
226.0742	0.000127
226.2802	-0.000464
226.4863	-0.000211
226.6924	-0.000232
226.8985	0.000865
227.1046	-0.000654
227.3107	0.001456
227.5169	0.000464
227.7230	-0.000211
227.9292	0.001604
228.1354	0.000654
228.3416	0.000612
228.5478	0.001667
228.7541	-0.000612
228.9603	0.000549
229.1666	0.000739
229.3729	0.000633
229.5791	0.000084
229.7855	-0.000317
229.9918	-0.000127
230.1981	0.000612
230.4045	0.000169
230.6108	0.000401
230.8172	0.000274
231.0236	0.000485
231.2300	0.000549
231.4364	0.000844
231.6429	0.000274
231.8493	-0.000950
232.0558	-0.000127
232.2623	0.000865
232.4688	0.001329
232.6753	0.000612
232.8818	0.000696
233.0884	0.001435
233.2949	0.000760
233.5015	-0.000528
233.7081	0.000401
233.9147	0.001393
234.1213	0.000865
234.3279	0.001688
234.5346	-0.000042
234.7413	0.001161
234.9479	0.001118
235.1546	-0.000127
235.3613	0.000570
235.5680	0.000928
235.7748	0.000823
235.9815	-0.000021
236.1883	-0.000211
236.3951	0.002026
236.6018	0.001751
236.8087	0.000084
237.0155	-0.000865
237.2223	0.000084
237.4292	0.001561
237.6360	-0.001097
237.8429	0.000950
238.0498	0.000506
238.2567	-0.000464
238.4636	0.000612
238.6706	-0.001287
238.8775	0.001245
239.0845	0.000907
239.2915	0.001435
239.4985	-0.000021
239.7055	-0.000612
239.9125	0.001245
240.1195	0.000907
240.3266	-0.000127
240.5337	0.001076
240.7407	0.000992
240.9478	0.000654
241.1549	0.001097
241.3621	0.001097
241.5692	0.000084
241.7764	0.000359
241.9835	0.000021
242.1907	-0.000401
242.3979	0.002026
242.6051	-0.000211
242.8124	0.001139
243.0196	0.000591
243.2269	0.000633
243.4341	0.000169
243.6414	0.000464
243.8487	0.000443
244.0560	-0.000148
244.2634	0.001055
244.4707	0.000190
244.6781	0.001287
244.8854	0.001139
245.0928	0.000464
245.3002	0.000528
245.5076	0.000380
245.7151	-0.000781
245.9225	-0.000148
246.1300	0.000380
246.3375	0.000506
246.5449	0.001456
246.7524	0.000401
246.9600	-0.001540
247.1675	0.001266
247.3750	0.000865
247.5826	0.000485
247.7902	-0.000591
247.9978	0.002279
248.2054	0.001540
248.4130	0.000675
248.6206	0.000844
248.8283	0.000823
249.0359	0.001772
249.2436	0.000380
249.4513	-0.000760
249.6590	-0.000886
249.8667	0.000464
250.0745	0.000211
250.2822	-0.000021
250.4900	0.000633
250.6978	0.001034
250.9056	0.001266
251.1134	0.000928
251.3212	0.000317
251.5290	0.001203
251.7369	0.001435
251.9447	0.000063
252.1526	0.001308
252.3605	-0.000190
252.5684	-0.000844
252.7763	0.000464
252.9843	0.001224
253.1922	-0.000274
253.4002	0.000802
253.6082	0.000844
253.8162	0.001435
254.0242	-0.000317
254.2322	0.000274
254.4402	-0.001245
254.6483	0.000675
254.8564	0.000443
255.0644	0.000338
255.2725	0.001013
255.4806	0.001266
255.6888	-0.000169
255.8969	0.000232
256.1051	0.000401
256.3132	0.000253
256.5214	0.000675
256.7296	-0.000633
256.9378	0.000570
257.1460	0.000612
257.3543	0.000760
257.5625	0.000823
257.7708	-0.000675
257.9791	0.001456
258.1874	0.002195
258.3957	-0.000760
258.6040	-0.000380
258.8124	0.000317
259.0207	-0.000169
259.2291	-0.000148
259.4375	0.000485
259.6459	-0.000232
259.8543	0.000127
260.0627	-0.000042
260.2711	0.000528
260.4796	0.000274
260.6881	0.000190
260.8965	0.000591
261.1050	-0.000127
261.3135	0.001519
261.5221	0.000654
261.7306	0.000338
261.9392	-0.000190
262.1477	0.001076
262.3563	0.000633
262.5649	0.000464
262.7735	-0.000211
262.9822	-0.000506
263.1908	-0.000084
263.3995	0.001182
263.6081	0.000401
263.8168	0.000317
264.0255	-0.000401
264.2342	0.001878
264.4429	0.001182
264.6517	0.000443
264.8604	0.000506
265.0692	0.000338
265.2780	0.000401
265.4868	0.001751
265.6956	0.000823
265.9044	-0.000190
266.1133	0.000823
266.3221	0.000591
266.5310	-0.000317
266.7399	0.000190
266.9488	0.000844
267.1577	-0.000359
267.3666	-0.000865
267.5755	0.000338
267.7845	-0.000021
267.9935	-0.000612
268.2024	0.000802
268.4114	0.001287
268.6205	-0.000865
268.8295	-0.001139
269.0385	-0.000084
269.2476	0.001161
269.4566	-0.000485
269.6657	0.000211
269.8748	0.000211
270.0839	0.000907
270.2931	-0.000717
270.5022	0.000422
270.7114	-0.000612
270.9205	0.001498
271.1297	0.000295
271.3389	-0.000084
271.5481	0.000380
271.7573	0.002047
271.9666	-0.000760
272.1758	0.000886
272.3851	0.000000
272.5944	-0.000253
272.8037	0.001751
273.0130	0.000781
273.2223	0.000823
273.4316	0.000295
273.6410	0.000802
273.8504	0.000760
274.0597	0.000823
274.2691	0.000211
274.4785	0.001266
274.6880	0.001983
274.8974	0.000000
275.1069	-0.000295
275.3163	0.000992
275.5258	0.000717
275.7353	0.000295
275.9448	-0.000211
276.1543	-0.000654
276.3639	-0.000317
276.5734	0.001498
276.7830	0.000338
276.9926	0.000274
277.2022	0.002195
277.4118	0.000253
277.6214	0.001983
277.8310	-0.000591
278.0407	0.000802
278.2503	-0.000570
278.4600	0.001224
278.6697	-0.000950
278.8794	0.000992
279.0891	0.000760
279.2989	0.000528
279.5086	0.001139
279.7184	0.001646
279.9281	-0.000464
280.1379	0.000485
280.3477	0.000253
280.5576	0.000148
280.7674	0.001013
280.9772	0.000717
281.1871	-0.000021
281.3970	0.001055
281.6069	0.000717
281.8168	-0.000570
282.0267	-0.000253
282.2366	0.000633
282.4466	0.000464
282.6565	0.001646
282.8665	-0.000401
283.0765	0.000422
283.2865	0.001308
283.4965	-0.000823
283.7065	0.001034
283.9166	0.002258
284.1266	0.000591
284.3367	0.000359
284.5468	0.000654
284.7569	0.001878
284.9670	0.000359
285.1771	0.001435
285.3873	0.001688
285.5974	0.000317
285.8076	0.000739
286.0178	0.000950
286.2280	-0.001076
286.4382	0.000190
286.6484	0.000063
286.8587	0.001625
287.0689	0.000211
287.2792	-0.000950
287.4895	0.000359
287.6998	0.001139
287.9101	0.000781
288.1204	0.002152
288.3308	0.000422
288.5411	0.000760
288.7515	0.000127
288.9619	0.001435
289.1723	0.001435
289.3827	0.000781
289.5931	-0.000295
289.8035	0.001477
290.0140	0.000084
290.2245	-0.000274
290.4349	0.000253
290.6454	0.002384
290.8559	0.000063
291.0665	0.001055
291.2770	0.000886
291.4875	0.001583
291.6981	0.000675
291.9087	0.001308
292.1193	-0.000696
292.3299	0.002195
292.5405	0.000760
292.7511	-0.000886
292.9618	0.000464
293.1724	0.000696
293.3831	-0.000211
293.5938	0.001604
293.8045	0.000549
294.0152	0.000886
294.2260	0.000084
294.4367	0.000190
294.6475	0.000633
294.8582	0.000169
295.0690	0.002216
295.2798	0.001836
295.4906	0.001456
295.7015	-0.000528
295.9123	0.000380
296.1232	-0.000253
296.3340	0.000760
296.5449	0.001751
296.7558	-0.000422
296.9667	0.000485
297.1777	0.001815
297.3886	0.001139
297.5995	0.000148
297.8105	-0.000295
298.0215	0.001329
298.2325	0.001646
298.4435	-0.000844
298.6545	0.001414
298.8656	0.001435
299.0766	0.002026
299.2877	0.000591
299.4988	0.000992
299.7099	0.001329
299.9210	0.001224
300.1321	-0.000528
300.3432	0.001224
300.5544	0.001034
300.7655	0.000549
300.9767	0.001308
301.1879	0.000422
301.3991	0.001034
301.6103	0.000042
301.8215	0.001372
302.0328	0.000886
302.2441	0.000063
302.4553	0.000950
302.6666	-0.001034
302.8779	0.001920
303.0892	0.000802
303.3006	0.000802
303.5119	0.000992
303.7233	-0.000084
303.9346	0.000190
304.1460	0.000928
304.3574	-0.000380
304.5688	-0.000211
304.7803	-0.000485
304.9917	0.000211
305.2031	-0.000021
305.4146	0.000781
305.6261	0.000739
305.8376	0.001583
306.0491	-0.000380
306.2606	0.002511
306.4722	-0.000084
306.6837	0.001034
306.8953	-0.000485
307.1069	0.001308
307.3184	0.000549
307.5301	0.002005
307.7417	-0.000148
307.9533	0.000760
308.1650	0.000042
308.3766	0.000823
308.5883	0.000633
308.8000	0.000612
309.0117	0.000907
309.2234	0.000886
309.4351	0.000591
309.6469	0.001139
309.8586	0.000675
310.0704	0.000696
310.2822	0.000823
310.4940	-0.000127
310.7058	0.000169
310.9176	0.001477
311.1295	0.000232
311.3413	0.000717
311.5532	0.000570
311.7651	0.001561
311.9770	-0.000506
312.1889	0.001772
312.4008	0.000380
312.6127	-0.000485
312.8247	0.000549
313.0366	0.000148
313.2486	-0.000675
313.4606	0.000401
313.6726	0.000063
313.8846	-0.000359
314.0967	0.000591
314.3087	0.001287
314.5208	-0.000739
314.7328	0.000021
314.9449	0.001097
315.1570	0.000042
315.3692	0.000760
315.5813	0.000844
315.7934	-0.000760
316.0056	0.000169
316.2177	0.001456
316.4299	0.001329
316.6421	0.001013
316.8543	0.000570
317.0666	0.000760
317.2788	0.001794
317.4911	0.000443
317.7033	0.001034
317.9156	0.000992
318.1279	0.000211
318.3402	0.000084
318.5525	0.000127
318.7649	0.001097
318.9772	0.001139
319.1896	-0.000127
319.4019	0.000211
319.6143	0.001772
319.8267	0.002279
320.0392	0.000021
320.2516	0.000549
320.4640	0.000781
320.6765	0.001182
320.8890	0.000654
321.1014	-0.000148
321.3139	-0.000084
321.5265	0.000422
321.7390	0.001730
321.9515	0.001097
322.1641	0.000190
322.3766	0.000148
322.5892	0.000739
322.8018	0.001372
323.0144	0.000950
323.2270	0.001435
323.4397	-0.000190
323.6523	0.000232
323.8650	0.000612
324.0777	0.001203
324.2904	0.000928
324.5031	0.001540
324.7158	-0.000485
324.9285	0.001224
325.1412	0.000633
325.3540	0.000612
325.5668	0.001941
325.7796	0.001857
325.9924	0.001076
326.2052	-0.000148
326.4180	-0.000190
326.6308	0.000633
326.8437	0.001477
327.0566	0.000823
327.2694	0.000528
327.4823	-0.000106
327.6952	0.000528
327.9082	0.001139
328.1211	0.000148
328.3340	0.001182
328.5470	-0.000042
328.7600	0.000971
328.9730	-0.000464
329.1860	0.001667
329.3990	0.000654
329.6120	-0.001097
329.8251	0.000127
330.0381	0.001899
330.2512	0.000169
330.4643	-0.000570
330.6774	0.000464
330.8905	0.000317
331.1036	0.001435
331.3167	0.000169
331.5299	0.000021
331.7431	0.000591
331.9562	-0.000021
332.1694	-0.000127
332.3826	0.000971
332.5959	0.001709
332.8091	0.001013
333.0223	0.000042
333.2356	0.000696
333.4489	0.000865
333.6622	0.000127
333.8755	0.001815
334.0888	-0.001161
334.3021	0.001477
334.5154	-0.000232
334.7288	-0.000084
334.9422	0.000232
335.1555	0.000971
335.3689	0.000401
335.5823	0.000865
335.7958	0.001498
336.0092	0.000506
336.2227	0.001266
336.4361	0.001540
336.6496	-0.000549
336.8631	0.000464
337.0766	-0.000295
337.2901	0.000000
337.5036	0.000295
337.7172	0.000506
337.9307	0.001076
338.1443	0.000928
338.3579	-0.000506
338.5715	0.001435
338.7851	-0.000211
338.9987	0.000823
339.2124	0.000971
339.4260	0.001097
339.6397	-0.000359
339.8533	0.000760
340.0670	0.000844
340.2807	0.000907
340.4945	0.000148
340.7082	0.001097
340.9219	0.001182
341.1357	0.000907
341.3495	-0.000549
341.5633	0.000380
341.7771	0.000274
341.9909	-0.000422
342.2047	-0.000654
342.4185	0.000422
342.6324	0.000950
342.8463	0.001772
343.0601	0.001477
343.2740	0.000570
343.4879	0.000042
343.7019	0.001730
343.9158	0.001561
344.1297	0.000232
344.3437	0.000338
344.5577	0.000717
344.7717	0.000443
344.9857	-0.000021
345.1997	0.001667
345.4137	0.001350
345.6277	-0.000654
345.8418	0.001224
346.0559	0.000928
346.2699	0.000042
346.4840	0.001245
346.6981	0.001815
346.9123	0.000422
347.1264	0.000253
347.3406	0.000717
347.5547	0.000211
347.7689	0.000506
347.9831	0.000359
348.1973	0.000886
348.4115	0.000485
348.6257	0.001161
348.8400	-0.001709
349.0542	0.001561
349.2685	0.001118
349.4828	0.002005
349.6971	0.000127
349.9114	0.002047
350.1257	0.000886
350.3400	0.001329
350.5544	-0.001224
350.7687	0.000739
350.9831	0.001034
351.1975	0.001245
351.4119	0.000992
351.6263	-0.000570
351.8407	0.002110
352.0552	0.000506
352.2696	0.001414
352.4841	0.001498
352.6986	0.001941
352.9131	0.000443
353.1276	0.000802
353.3421	0.000295
353.5566	0.001287
353.7712	0.001076
353.9858	0.001815
354.2003	-0.000570
354.4149	0.000506
354.6295	0.000380
354.8441	0.002891
355.0588	0.000717
355.2734	0.002722
355.4881	0.000654
355.7027	0.001329
355.9174	-0.000865
356.1321	0.001308
356.3468	0.000781
356.5615	-0.000295
356.7763	0.000380
356.9910	0.001308
357.2058	0.000443
357.4206	0.001034
357.6353	0.000950
357.8501	0.000338
358.0650	0.000148
358.2798	0.000549
358.4946	0.000570
358.7095	0.001435
358.9243	0.001139
359.1392	0.001097
359.3541	0.000865
359.5690	-0.000084
359.7839	0.000823
359.9989	-0.000401
360.2138	0.000274
360.4288	0.000886
360.6438	-0.000021
360.8587	0.000232
361.0737	0.000190
361.2888	0.000865
361.5038	0.001498
361.7188	0.001899
361.9339	0.000485
362.1489	0.001287
362.3640	-0.000106
362.5791	-0.000084
362.7942	0.000464
363.0093	0.000950
363.2245	0.000317
363.4396	0.000295
363.6548	-0.000317
363.8699	0.000781
364.0851	0.001878
364.3003	0.001414
364.5155	-0.000232
364.7308	0.001055
364.9460	-0.000591
365.1612	0.000295
365.3765	0.000654
365.5918	-0.000190
365.8071	-0.000127
366.0224	0.000506
366.2377	-0.000528
366.4530	-0.000021
366.6684	-0.000190
366.8837	0.000169
367.0991	0.001350
367.3145	0.000992
367.5299	0.000886
367.7453	-0.000232
367.9607	-0.000443
368.1761	0.000739
368.3916	0.000717
368.6070	0.000591
368.8225	0.000295
369.0380	0.002806
369.2535	0.000865
369.4690	0.000633
369.6845	-0.000760
369.9001	0.001266
370.1156	0.000907
370.3312	0.001477
370.5468	0.000295
370.7624	0.001224
370.9780	-0.000380
371.1936	0.000485
371.4092	-0.000401
371.6249	0.001561
371.8405	-0.000696
372.0562	0.000760
372.2719	-0.000148
372.4876	0.000654
372.7033	0.002110
372.9190	0.000717
373.1348	0.000823
373.3505	0.000971
373.5663	0.000464
373.7820	-0.000633
373.9978	0.000802
374.2136	0.000274
374.4294	0.000106
374.6453	-0.000253
374.8611	0.000190
375.0770	0.001730
375.2928	-0.000591
375.5087	0.000506
375.7246	0.000612
375.9405	0.001076
376.1564	0.000802
376.3724	0.000781
376.5883	0.000802
376.8043	0.001477
377.0203	0.001372
377.2362	0.000696
377.4522	-0.000591
377.6682	0.000359
377.8843	-0.000084
378.1003	0.001139
378.3164	-0.000591
378.5324	0.001435
378.7485	0.001435
378.9646	-0.000971
379.1807	0.000169
379.3968	0.000907
379.6129	-0.000992
379.8291	0.000971
380.0452	0.001224
380.2614	0.001266
380.4776	0.001540
380.6938	0.001983
380.9100	0.001983
381.1262	0.000675
381.3424	-0.000950
381.5587	-0.000443
381.7749	0.001393
381.9912	-0.000675
382.2075	0.000633
382.4238	0.001498
382.6401	0.000359
382.8564	0.001751
383.0728	0.000380
383.2891	0.000506
383.5055	0.000464
383.7219	0.001287
383.9382	0.001372
384.1546	0.001709
384.3711	0.001224
384.5875	0.002173
384.8039	0.000549
385.0204	0.001329
385.2368	0.001287
385.4533	0.001182
385.6698	0.001393
385.8863	0.000211
386.1028	-0.000127
386.3194	0.002195
386.5359	0.000127
386.7525	0.002448
386.9690	0.001498
387.1856	0.002026
387.4022	0.002047
387.6188	0.002152
387.8355	0.003271
388.0521	0.002638
388.2687	0.003039
388.4854	0.003081
388.7021	0.001203
388.9188	0.003545
389.1355	0.002110
389.3522	0.003017
389.5689	0.002806
389.7856	0.003840
390.0024	0.003777
390.2192	0.003271
390.4359	0.004579
390.6527	0.005296
390.8695	0.004790
391.0863	0.005887
391.3032	0.004938
391.5200	0.006225
391.7369	0.005423
391.9537	0.007702
392.1706	0.006373
392.3875	0.005676
392.6044	0.008293
392.8213	0.007048
393.0383	0.008040
393.2552	0.009643
393.4722	0.008673
393.6891	0.008947
393.9061	0.007027
394.1231	0.008715
394.3401	0.009116
394.5572	0.007449
394.7742	0.010171
394.9912	0.009749
395.2083	0.011057
395.4254	0.009242
395.6425	0.010973
395.8596	0.010656
396.0767	0.011627
396.2938	0.011838
396.5109	0.012429
396.7281	0.013399
396.9453	0.013716
397.1624	0.013019
397.3796	0.013420
397.5968	0.015298
397.8140	0.016775
398.0313	0.015973
398.2485	0.017303
398.4658	0.018885
398.6830	0.018949
398.9003	0.017788
399.1176	0.017155
399.3349	0.019582
399.5522	0.019476
399.7696	0.018590
399.9869	0.018611
400.2043	0.017662
400.4216	0.018843
400.6390	0.020405
400.8564	0.018674
401.0738	0.018463
401.2912	0.020890
401.5087	0.020257
401.7261	0.020426
401.9436	0.019856
402.1610	0.021270
402.3785	0.021101
402.5960	0.020996
402.8135	0.022304
403.0310	0.022810
403.2486	0.020278
403.4661	0.021185
403.6837	0.024055
403.9013	0.022515
404.1189	0.024034
404.3365	0.022958
404.5541	0.027073
404.7717	0.023781
404.9893	0.025638
405.2070	0.026545
405.4246	0.026461
405.6423	0.026250
405.8600	0.026841
406.0777	0.025110
406.2954	0.026229
406.5131	0.026186
406.7309	0.024773
406.9486	0.024794
407.1664	0.023528
407.3842	0.025469
407.6020	0.025617
407.8198	0.025617
408.0376	0.024625
408.2554	0.025849
408.4733	0.027874
408.6911	0.027305
408.9090	0.027157
409.1269	0.026925
409.3448	0.026271
409.5627	0.028107
409.7806	0.028001
409.9985	0.028360
410.2165	0.027790
410.4344	0.027347
410.6524	0.027980
410.8704	0.027241
411.0884	0.028064
411.3064	0.027706
411.5244	0.026735
411.7424	0.028381
411.9605	0.028676
412.1785	0.027368
412.3966	0.027347
412.6147	0.030386
412.8328	0.029162
413.0509	0.029204
413.2690	0.031377
413.4871	0.032411
413.7053	0.031799
413.9234	0.029837
414.1416	0.030702
414.3598	0.029774
414.5780	0.029837
414.7962	0.028655
415.0144	0.028275
415.2326	0.029267
415.4509	0.028740
415.6692	0.030069
415.8874	0.028571
416.1057	0.029119
416.3240	0.030997
416.5423	0.029752
416.7606	0.029394
416.9790	0.030259
417.1973	0.029373
417.4157	0.029014
417.6341	0.031314
417.8524	0.029605
418.0708	0.030006
418.2893	0.031525
418.5077	0.030153
418.7261	0.029879
418.9446	0.031820
419.1630	0.031504
419.3815	0.032601
419.6000	0.030153
419.8185	0.032348
420.0370	0.030006
420.2555	0.030955
420.4741	0.031124
420.6926	0.035091
420.9112	0.032770
421.1298	0.033677
421.3483	0.031926
421.5669	0.036484
421.7856	0.038151
422.0042	0.036526
422.2228	0.036547
422.4415	0.034184
422.6601	0.033614
422.8788	0.034458
423.0975	0.035302
423.3162	0.036062
423.5349	0.036800
423.7536	0.034120
423.9724	0.035197
424.1911	0.033656
424.4099	0.032559
424.6287	0.033213
424.8475	0.034036
425.0663	0.033804
425.2851	0.032622
425.5039	0.030533
425.7228	0.030597
425.9416	0.029858
426.1605	0.029752
426.3793	0.030048
426.5982	0.031040
426.8171	0.030744
427.0361	0.030280
427.2550	0.031799
427.4739	0.034521
427.6929	0.031504
427.9118	0.031863
428.1308	0.031525
428.3498	0.030153
428.5688	0.031673
428.7878	0.032200
429.0068	0.032137
429.2259	0.032475
429.4449	0.033572
429.6640	0.035745
429.8831	0.036589
430.1022	0.037454
430.3213	0.039079
430.5404	0.036526
430.7595	0.035830
430.9787	0.035218
431.1978	0.033783
431.4170	0.035745
431.6362	0.032707
431.8553	0.031588
432.0745	0.027474
432.2938	0.029499
432.5130	0.029309
432.7322	0.029035
432.9515	0.029942
433.1707	0.030575
433.3900	0.029267
433.6093	0.032369
433.8286	0.035450
434.0479	0.034648
434.2673	0.035450
434.4866	0.029499
434.7059	0.031462
434.9253	0.031187
435.1447	0.029457
435.3641	0.030702
435.5835	0.030913
435.8029	0.029499
436.0223	0.030217
436.2418	0.031567
436.4612	0.032432
436.6807	0.032643
436.9001	0.032285
437.1196	0.030343
437.3391	0.029921
437.5586	0.031377
437.7782	0.031314
437.9977	0.029689
438.2173	0.030723
438.4368	0.030618
438.6564	0.031441
438.8760	0.030597
439.0956	0.029584
439.3152	0.032749
439.5348	0.030280
439.7545	0.031040
439.9741	0.028170
440.1938	0.030238
440.4135	0.030449
440.6331	0.029056
440.8528	0.031419
441.0725	0.033086
441.2923	0.034015
441.5120	0.033846
441.7318	0.034353
441.9515	0.036758
442.1713	0.036906
442.3911	0.035239
442.6109	0.033530
442.8307	0.034226
443.0505	0.033804
443.2703	0.034268
443.4902	0.032390
443.7101	0.033551
443.9299	0.032664
444.1498	0.033656
444.3697	0.033846
444.5896	0.033297
444.8095	0.033572
445.0295	0.032475
445.2494	0.032475
445.4694	0.031145
445.6894	0.031419
445.9093	0.030871
446.1293	0.030449
446.3493	0.031588
446.5694	0.031715
446.7894	0.030997
447.0094	0.028275
447.2295	0.030934
447.4496	0.029710
447.6696	0.030512
447.8897	0.028022
448.1098	0.028655
448.3300	0.028740
448.5501	0.026123
448.7702	0.027748
448.9904	0.027431
449.2106	0.027579
449.4307	0.027706
449.6509	0.029605
449.8711	0.026693
450.0914	0.029900
450.3116	0.027537
450.5318	0.026967
450.7521	0.028043
450.9724	0.027052
451.1926	0.026081
451.4129	0.024688
451.6332	0.025089
451.8535	0.024477
452.0739	0.024688
452.2942	0.023971
452.5146	0.025385
452.7349	0.026292
452.9553	0.023907
453.1757	0.022684
453.3961	0.021671
453.6165	0.019540
453.8369	0.021840
454.0574	0.021291
454.2778	0.024224
454.4983	0.022916
454.7188	0.022663
454.9393	0.021038
455.1597	0.022241
455.3803	0.021354
455.6008	0.021228
455.8213	0.022789
456.0419	0.022051
456.2624	0.023021
456.4830	0.021059
456.7036	0.021333
456.9242	0.020848
457.1448	0.019940
457.3654	0.019919
457.5860	0.020574
457.8067	0.020510
458.0274	0.021692
458.2480	0.023253
458.4687	0.022388
458.6894	0.021101
458.9101	0.021185
459.1308	0.020932
459.3516	0.020320
459.5723	0.021333
459.7931	0.022198
460.0138	0.021607
460.2346	0.018991
460.4554	0.020004
460.6762	0.020046
460.8970	0.019371
461.1178	0.018041
461.3387	0.019856
461.5595	0.018928
461.7804	0.020025
462.0013	0.017493
462.2222	0.017345
462.4431	0.016628
462.6640	0.016480
462.8849	0.016480
463.1059	0.017788
463.3268	0.017725
463.5478	0.016944
463.7687	0.015446
463.9897	0.018421
464.2107	0.017704
464.4317	0.018210
464.6528	0.018463
464.8738	0.019983
465.0948	0.018126
465.3159	0.017704
465.5370	0.018442
465.7581	0.017366
465.9792	0.018780
466.2003	0.017809
466.4214	0.016269
466.6425	0.015573
466.8637	0.016564
467.0848	0.016142
467.3060	0.013884
467.5272	0.014581
467.7484	0.014264
467.9696	0.014412
468.1908	0.013800
468.4120	0.013146
468.6333	0.012851
468.8545	0.014180
469.0758	0.014771
469.2970	0.011373
469.5183	0.013230
469.7396	0.011669
469.9610	0.012386
470.1823	0.010572
470.4036	0.010276
470.6250	0.010994
470.8463	0.010361
471.0677	0.010445
471.2891	0.009981
471.5105	0.011289
471.7319	0.010255
471.9533	0.009706
472.1748	0.010783
472.3962	0.010129
472.6177	0.009580
472.8391	0.009706
473.0606	0.011753
473.2821	0.008398
473.5036	0.010719
473.7251	0.010107
473.9467	0.008630
474.1682	0.010276
474.3898	0.010529
474.6113	0.009770
474.8329	0.010424
475.0545	0.010171
475.2761	0.011057
475.4977	0.007723
475.7193	0.009474
475.9410	0.009179
476.1626	0.010783
476.3843	0.009242
476.6060	0.008229
476.8277	0.008208
477.0494	0.008272
477.2711	0.007322
477.4928	0.009453
477.7145	0.008651
477.9363	0.008504
478.1580	0.008419
478.3798	0.008926
478.6016	0.007111
478.8234	0.008440
479.0452	0.007892
479.2670	0.009200
479.4888	0.008483
479.7107	0.007406
479.9325	0.007111
480.1544	0.007828
480.3763	0.007892
480.5982	0.007280
480.8201	0.008757
481.0420	0.009031
481.2639	0.008356
481.4859	0.008419
481.7078	0.007343
481.9298	0.006689
482.1517	0.007217
482.3737	0.008862
482.5957	0.007428
482.8177	0.007111
483.0398	0.008229
483.2618	0.006373
483.4838	0.007807
483.7059	0.006773
483.9280	0.005043
484.1501	0.008609
484.3721	0.007449
484.5943	0.006457
484.8164	0.007723
485.0385	0.008778
485.2606	0.006731
485.4828	0.009538
485.7050	0.014876
485.9271	0.021523
486.1493	0.022388
486.3715	0.019835
486.5937	0.014053
486.8160	0.012745
487.0382	0.010867
487.2605	0.010150
487.4827	0.009221
487.7050	0.010171
487.9273	0.007217
488.1496	0.007301
488.3719	0.007090
488.5942	0.005908
488.8165	0.006140
489.0389	0.005106
489.2612	0.004938
489.4836	0.004516
489.7060	0.005360
489.9284	0.004727
490.1508	0.005212
490.3732	0.004790
490.5956	0.003925
490.8180	0.004495
491.0405	0.003756
491.2630	0.004516
491.4854	0.005381
491.7079	0.004262
491.9304	0.004389
492.1529	0.005317
492.3755	0.005296
492.5980	0.004811
492.8205	0.004537
493.0431	0.005149
493.2657	0.004262
493.4882	0.005149
493.7108	0.005254
493.9334	0.004769
494.1561	0.003798
494.3787	0.004516
494.6013	0.004009
494.8240	0.004938
495.0466	0.002342
495.2693	0.003840
495.4920	0.004241
495.7147	0.005022
495.9374	0.003798
496.1601	0.003883
496.3829	0.004642
496.6056	0.003587
496.8284	0.005423
497.0511	0.004642
497.2739	0.004094
497.4967	0.003355
497.7195	0.003883
497.9423	0.004030
498.1652	0.004073
498.3880	0.004094
498.6109	0.003081
498.8337	0.003798
499.0566	0.002131
499.2795	0.003313
499.5024	0.004368
499.7253	0.003650
499.9482	0.003840
500.1712	0.003714
500.3941	0.004874
500.6171	0.004516
500.8400	0.002216
501.0630	0.003819
501.2860	0.004431
501.5090	0.003418
501.7320	0.002131
501.9551	0.005149
502.1781	0.004009
502.4012	0.003313
502.6242	0.002828
502.8473	0.004473
503.0704	0.004115
503.2935	0.003376
503.5166	0.003566
503.7397	0.003904
503.9628	0.002680
504.1860	0.004938
504.4092	0.001393
504.6323	0.003714
504.8555	0.003397
505.0787	0.004241
505.3019	0.003461
505.5251	0.002617
505.7483	0.004537
505.9716	0.003271
506.1948	0.003165
506.4181	0.002933
506.6414	0.003925
506.8647	0.003608
507.0880	0.004431
507.3113	0.003650
507.5346	0.002828
507.7579	0.002216
507.9813	0.002764
508.2046	0.004220
508.4280	0.003376
508.6514	0.003376
508.8748	0.002870
509.0982	0.002574
509.3216	0.003545
509.5450	0.004874
509.7685	0.001836
509.9919	0.003756
510.2154	0.003629
510.4388	0.003039
510.6623	0.003925
510.8858	0.002448
511.1093	0.001688
511.3329	0.003060
511.5564	0.003228
511.7799	0.003186
512.0035	0.002996
512.2270	0.004073
512.4506	0.001350
512.6742	0.003439
512.8978	0.001878
513.1214	0.002828
513.3451	0.002152
513.5687	0.003714
513.7923	0.003693
514.0160	0.004579
514.2397	0.001794
514.4634	0.002701
514.6871	0.002152
514.9108	0.003819
515.1345	0.002300
515.3582	0.004262
515.5819	0.002617
515.8057	0.003883
516.0295	0.001983
516.2532	0.002406
516.4770	0.002849
516.7008	0.003650
516.9246	0.003376
517.1485	0.004157
517.3723	0.003650
517.5961	0.001815
517.8200	0.002427
518.0439	0.003081
518.2677	0.003165
518.4916	0.002659
518.7155	0.001815
518.9395	0.001329
519.1634	0.004009
519.3873	0.002363
519.6113	0.003165
519.8352	0.002996
520.0592	0.002680
520.2832	0.003081
520.5072	0.004030
520.7312	0.001393
520.9552	0.004262
521.1792	0.002849
521.4033	0.004199
521.6273	0.003355
521.8514	0.004495
522.0755	0.004157
522.2996	0.004094
522.5237	0.003228
522.7478	0.004157
522.9719	0.003925
523.1960	0.003756
523.4202	0.003186
523.6443	0.004030
523.8685	0.005106
524.0927	0.003313
524.3169	0.004115
524.5411	0.004516
524.7653	0.004748
524.9895	0.003418
525.2138	0.003883
525.4380	0.004009
525.6623	0.004178
525.8865	0.005402
526.1108	0.005085
526.3351	0.004621
526.5594	0.003207
526.7837	0.004579
527.0081	0.003840
527.2324	0.004347
527.4568	0.004832
527.6811	0.004938
527.9055	0.004558
528.1299	0.005360
528.3543	0.004811
528.5787	0.005908
528.8031	0.005402
529.0276	0.005085
529.2520	0.006267
529.4765	0.004853
529.7009	0.005718
529.9254	0.004621
530.1499	0.004938
530.3744	0.006415
530.5989	0.006204
530.8234	0.004917
531.0480	0.004706
531.2725	0.005550
531.4971	0.006499
531.7217	0.006499
531.9462	0.005106
532.1708	0.005360
532.3954	0.006478
532.6200	0.006689
532.8447	0.005360
533.0693	0.006520
533.2940	0.006162
533.5186	0.007702
533.7433	0.005423
533.9680	0.007512
534.1927	0.007744
534.4174	0.006942
534.6421	0.006773
534.8668	0.007617
535.0916	0.007385
535.3163	0.008419
535.5411	0.007322
535.7659	0.008884
535.9907	0.010340
536.2155	0.008926
536.4403	0.008525
536.6651	0.008694
536.8899	0.006816
537.1148	0.009875
537.3396	0.008335
537.5645	0.007723
537.7894	0.008525
538.0143	0.009031
538.2392	0.009031
538.4641	0.009348
538.6890	0.010551
538.9139	0.010930
539.1389	0.009411
539.3638	0.010403
539.5888	0.009833
539.8138	0.010593
540.0388	0.010466
540.2638	0.011437
540.4888	0.010677
540.7138	0.011690
540.9389	0.013526
541.1639	0.010867
541.3890	0.011205
541.6140	0.012133
541.8391	0.010276
542.0642	0.012808
542.2893	0.012006
542.5144	0.012365
542.7396	0.012851
542.9647	0.013420
543.1899	0.013315
543.4150	0.014307
543.6402	0.012914
543.8654	0.014264
544.0906	0.015045
544.3158	0.016417
544.5410	0.014961
544.7662	0.016269
544.9915	0.014602
545.2167	0.016353
545.4420	0.014644
545.6673	0.015762
545.8926	0.016079
546.1179	0.016754
546.3432	0.014644
546.5685	0.014222
546.7938	0.015087
547.0192	0.014539
547.2445	0.015551
547.4699	0.018421
547.6953	0.020278
547.9206	0.018822
548.1460	0.020616
548.3715	0.020827
548.5969	0.022072
548.8223	0.020595
549.0478	0.019307
549.2732	0.018970
549.4987	0.016839
549.7242	0.019940
549.9496	0.019624
550.1751	0.017366
550.4007	0.018885
550.6262	0.021228
550.8517	0.018274
551.0773	0.019919
551.3028	0.019181
551.5284	0.018316
551.7540	0.020278
551.9796	0.020004
552.2052	0.022051
552.4308	0.023929
552.6564	0.023929
552.8820	0.023127
553.1077	0.024076
553.3333	0.023106
553.5590	0.024287
553.7847	0.024287
554.0104	0.026018
554.2361	0.024878
554.4618	0.022430
554.6875	0.022008
554.9132	0.022135
555.1390	0.022916
555.3648	0.024646
555.5905	0.026524
555.8163	0.027052
556.0421	0.026925
556.2679	0.028170
556.4937	0.028508
556.7195	0.026714
556.9454	0.026503
557.1712	0.028001
557.3971	0.027326
557.6230	0.027600
557.8488	0.028803
558.0747	0.027579
558.3006	0.029246
558.5266	0.025954
558.7525	0.024773
558.9784	0.024752
559.2044	0.027663
559.4303	0.024857
559.6563	0.026081
559.8823	0.029541
560.1083	0.029752
560.3343	0.030955
560.5603	0.032158
560.7863	0.032475
561.0124	0.036315
561.2384	0.036420
561.4645	0.034078
561.6905	0.035977
561.9166	0.034479
562.1427	0.034310
562.3688	0.036442
562.5949	0.031820
562.8211	0.034648
563.0472	0.033656
563.2733	0.036442
563.4995	0.034859
563.7257	0.036631
563.9519	0.036842
564.1781	0.038889
564.4043	0.038467
564.6305	0.038995
564.8567	0.039670
565.0829	0.041822
565.3092	0.041126
565.5355	0.041801
565.7617	0.039712
565.9880	0.042814
566.2143	0.043342
566.4406	0.043088
566.6669	0.041274
566.8932	0.044650
567.1196	0.048765
567.3459	0.051360
567.5723	0.052879
567.7987	0.056994
568.0250	0.056171
568.2514	0.060138
568.4778	0.062565
568.7043	0.066321
568.9307	0.071469
569.1571	0.071153
569.3836	0.078116
569.6100	0.090291
569.8365	0.096347
570.0630	0.104661
570.2895	0.107151
570.5160	0.110654
570.7425	0.108248
570.9690	0.111350
571.1956	0.120192
571.4221	0.130405
571.6487	0.132325
571.8752	0.135216
572.1018	0.138993
572.3284	0.137537
572.5550	0.129771
572.7816	0.118419
573.0082	0.120002
573.2349	0.128020
573.4615	0.140301
573.6882	0.154164
573.9149	0.156464
574.1415	0.162436
574.3682	0.165453
574.5949	0.173472
574.8216	0.173176
575.0484	0.175202
575.2751	0.177797
575.5018	0.177017
575.7286	0.167416
575.9554	0.165179
576.1821	0.161782
576.4089	0.166888
576.6357	0.178093
576.8626	0.183558
577.0894	0.186343
577.3162	0.193623
577.5431	0.201663
577.7699	0.218037
577.9968	0.252073
578.2237	0.240805
578.4505	0.229179
578.6774	0.217657
578.9044	0.207444
579.1313	0.194320
579.3582	0.195776
579.5851	0.199088
579.8121	0.211496
580.0391	0.212129
580.2660	0.212656
580.4930	0.213416
580.7200	0.206368
580.9470	0.210061
581.1741	0.241544
581.4011	0.297736
581.6281	0.325463
581.8552	0.326876
582.0822	0.318774
582.3093	0.313266
582.5364	0.288620
582.7635	0.265578
582.9906	0.244371
583.2177	0.227448
583.4449	0.211222
583.6720	0.204110
583.8991	0.196219
584.1263	0.196029
584.3535	0.197590
584.5807	0.205123
584.8079	0.212952
585.0351	0.229326
585.2623	0.240763
585.4895	0.239539
585.7167	0.241143
585.9440	0.232259
586.1713	0.218058
586.3985	0.211222
586.6258	0.199194
586.8531	0.205461
587.0804	0.218818
587.3077	0.232069
587.5350	0.230782
587.7624	0.232555
587.9897	0.222447
588.2171	0.209491
588.4445	0.207613
588.6718	0.201937
588.8992	0.192231
589.1266	0.178642
589.3540	0.171383
589.5815	0.168281
589.8089	0.165812
590.0363	0.167268
590.2638	0.158807
590.4913	0.151906
590.7187	0.146505
590.9462	0.143002
591.1737	0.134224
591.4012	0.134350
591.6288	0.135005
591.8563	0.136566
592.0838	0.131122
592.3114	0.137494
592.5389	0.159418
592.7665	0.186470
592.9941	0.201705
593.2217	0.207571
593.4493	0.206727
593.6769	0.199489
593.9046	0.197506
594.1322	0.184909
594.3598	0.176827
594.5875	0.171847
594.8152	0.183706
595.0429	0.200017
595.2705	0.202570
595.4983	0.191998
595.7260	0.187968
595.9537	0.179338
596.1814	0.167859
596.4092	0.154755
596.6369	0.146104
596.8647	0.147328
597.0925	0.149860
597.3203	0.152012
597.5481	0.152983
597.7759	0.153995
598.0037	0.147433
598.2315	0.140892
598.4594	0.141651
598.6872	0.158406
598.9151	0.180435
599.1430	0.188538
599.3709	0.186618
599.5988	0.180963
599.8267	0.181891
600.0546	0.185478
600.2825	0.186702
600.5105	0.184487
600.7384	0.183853
600.9664	0.188306
601.1944	0.199215
601.4223	0.185246
601.6503	0.177038
601.8783	0.172248
602.1064	0.170032
602.3344	0.172079
602.5624	0.171552
602.7905	0.169652
603.0185	0.179422
603.2466	0.181427
603.4747	0.191851
603.7028	0.192969
603.9309	0.184866
604.1590	0.176890
604.3871	0.171087
604.6152	0.164947
604.8434	0.162710
605.0715	0.158152
605.2997	0.161529
605.5279	0.166994
605.7561	0.175265
605.9843	0.176679
606.2125	0.174632
606.4407	0.165327
606.6689	0.159060
606.8972	0.157709
607.1254	0.159545
607.3537	0.161845
607.5819	0.164609
607.8102	0.162330
608.0385	0.154354
608.2668	0.155114
608.4951	0.150662
608.7235	0.145703
608.9518	0.146695
609.1801	0.144901
609.4085	0.137663
609.6369	0.136587
609.8653	0.142770
610.0936	0.153384
610.3220	0.152856
610.5505	0.150050
610.7789	0.144373
611.0073	0.141293
611.2357	0.139394
611.4642	0.139183
611.6927	0.137452
611.9211	0.137030
612.1496	0.136777
612.3781	0.133338
612.6066	0.130953
612.8351	0.129286
613.0637	0.131312
613.2922	0.130552
613.5208	0.129392
613.7493	0.130552
613.9779	0.131080
614.2065	0.132367
614.4351	0.128421
614.6637	0.128463
614.8923	0.127556
615.1209	0.128400
615.3495	0.129603
615.5782	0.132050
615.8068	0.131080
616.0355	0.129117
616.2642	0.120128
616.4929	0.117744
616.7216	0.113017
616.9503	0.113503
617.1790	0.109979
617.4077	0.111477
617.6365	0.113102
617.8652	0.110802
618.0940	0.110696
618.3227	0.109240
618.5515	0.101412
618.7803	0.098837
619.0091	0.094891
619.2379	0.092655
619.4667	0.093604
619.6956	0.089616
619.9244	0.093836
620.1533	0.097951
620.3821	0.101918
620.6110	0.098521
620.8399	0.088878
621.0688	0.078179
621.2977	0.075689
621.5266	0.073242
621.7556	0.079635
621.9845	0.079741
622.2135	0.083813
622.4424	0.085734
622.6714	0.085122
622.9004	0.087443
623.1294	0.091579
623.3584	0.088899
623.5874	0.089890
623.8164	0.091557
624.0454	0.087527
624.2745	0.089996
624.5035	0.089468
624.7326	0.090502
624.9617	0.092824
625.1908	0.087696
625.4199	0.083792
625.6490	0.082357
625.8781	0.079445
626.1072	0.077525
626.3364	0.076069
626.5655	0.074065
626.7947	0.075267
627.0238	0.072166
627.2530	0.071554
627.4822	0.073073
627.7114	0.071237
627.9406	0.067544
628.1698	0.062923
628.3991	0.063198
628.6283	0.059948
628.8576	0.059210
629.0868	0.061594
629.3161	0.062501
629.5454	0.065920
629.7747	0.064063
630.0040	0.060518
630.2333	0.059610
630.4626	0.057690
630.6920	0.058956
630.9213	0.058323
631.1507	0.054778
631.3801	0.053533
631.6094	0.055095
631.8388	0.055749
632.0682	0.054842
632.2976	0.053470
632.5271	0.050136
632.7565	0.047245
632.9859	0.048005
633.2154	0.047625
633.4448	0.045494
633.6743	0.046275
633.9038	0.046697
634.1333	0.047266
634.3628	0.043785
634.5923	0.043320
634.8218	0.040831
635.0514	0.041611
635.2809	0.042265
635.5105	0.042772
635.7400	0.041464
635.9696	0.042244
636.1992	0.044924
636.4288	0.046190
636.6584	0.045684
636.8880	0.047182
637.1177	0.043932
637.3473	0.041780
637.5770	0.041147
637.8066	0.041337
638.0363	0.040050
638.2660	0.044038
638.4957	0.043721
638.7254	0.042835
638.9551	0.042265
639.1848	0.041358
639.4145	0.040704
639.6443	0.038494
639.8740	0.039765
640.1038	0.039783
640.3336	0.038762
640.5633	0.037415
640.7931	0.037909
641.0229	0.036366
641.2528	0.035041
641.4826	0.034921
641.7124	0.033070
641.9423	0.032043
642.1721	0.032358
642.4020	0.030597
642.6319	0.030159
642.8617	0.031070
643.0916	0.031863
643.3216	0.029030
643.5515	0.030146
643.7814	0.029382
644.0113	0.032408
644.2413	0.030687
644.4712	0.028650
644.7012	0.029160
644.9312	0.027241
645.1612	0.027802
645.3912	0.028118
645.6212	0.027712
645.8512	0.029223
646.0812	0.027714
646.3113	0.027697
646.5413	0.026285
646.7714	0.025791
647.0015	0.024605
647.2316	0.024411
647.4616	0.023540
647.6918	0.025207
647.9219	0.027555
648.1520	0.029830
648.3821	0.031811
648.6123	0.033135
648.8424	0.032112
649.0726	0.033912
649.3028	0.036160
649.5329	0.035041
649.7631	0.032785
649.9933	0.031093
650.2236	0.031508
650.4538	0.029484
650.6840	0.028933
650.9143	0.028631
651.1445	0.031424
651.3748	0.029973
651.6051	0.030618
651.8354	0.030951
652.0657	0.030449
652.2960	0.032712
652.5263	0.031987
652.7566	0.031920
652.9870	0.030888
653.2173	0.031873
653.4477	0.031033
653.6780	0.033201
653.9084	0.032319
654.1388	0.034729
654.3692	0.034887
654.5996	0.036181
654.8300	0.039947
655.0605	0.064892
655.2909	0.188480
655.5213	0.524908
655.7518	0.956609
655.9823	1.000000
656.2128	1.000000
656.4433	1.000000
656.6738	1.000000
656.9043	1.000000
657.1348	0.875721
657.3653	0.714101
657.5959	0.619105
657.8264	0.535753
658.0570	0.488965
658.2875	0.454569
658.5181	0.413782
658.7487	0.386667
658.9793	0.368333
659.2099	0.336210
659.4406	0.250600
659.6712	0.170808
659.9018	0.097210
660.1325	0.059637
660.3632	0.041547
660.5938	0.031001
660.8245	0.029123
661.0552	0.027215
661.2859	0.026709
661.5166	0.023473
661.7474	0.024914
661.9781	0.025587
662.2088	0.021239
662.4396	0.023969
662.6704	0.022986
662.9011	0.020973
663.1319	0.024031
663.3627	0.022010
663.5935	0.021597
663.8243	0.021849
664.0552	0.023662
664.2860	0.021727
664.5168	0.022687
664.7477	0.023607
664.9786	0.026605
665.2094	0.024824
665.4403	0.024328
665.6712	0.025504
665.9021	0.025137
666.1330	0.023615
666.3640	0.023313
666.5949	0.022512
666.8259	0.021215
667.0568	0.023465
667.2878	0.021206
667.5188	0.021481
667.7497	0.022934
667.9807	0.020892
668.2117	0.022899
668.4428	0.020320
668.6738	0.021059
668.9048	0.020363
669.1359	0.022051
669.3669	0.021502
669.5980	0.020510
669.8291	0.022346
670.0602	0.022852
670.2913	0.022304
670.5224	0.022726
670.7535	0.021164
670.9846	0.023992
671.2157	0.025511
671.4469	0.027284
671.6781	0.029415
671.9092	0.031208
672.1404	0.033129
672.3716	0.035534
672.6028	0.036610
672.8340	0.034669
673.0652	0.032158
673.2964	0.032939
673.5277	0.028465
673.7589	0.029837
673.9902	0.029963
674.2214	0.029373
674.4527	0.027811
674.6840	0.027474
674.9153	0.027811
675.1466	0.026566
675.3779	0.027558
675.6093	0.025912
675.8406	0.027326
676.0719	0.027009
676.3033	0.027073
676.5347	0.027516
676.7661	0.025131
676.9974	0.023507
677.2288	0.025996
677.4602	0.023591
677.6917	0.030575
677.9231	0.031040
678.1545	0.031208
678.3860	0.030470
678.6174	0.030111
678.8489	0.030069
679.0804	0.031145
679.3119	0.033846
679.5434	0.034796
679.7749	0.034711
680.0064	0.035893
680.2379	0.036526
680.4694	0.034648
680.7010	0.035513
680.9325	0.034542
681.1641	0.035323
681.3957	0.035386
681.6273	0.035872
681.8589	0.036315
682.0905	0.034184
682.3221	0.033825
682.5537	0.032052
682.7854	0.029963
683.0170	0.031356
683.2487	0.031230
683.4803	0.032981
683.7120	0.032622
683.9437	0.031989
684.1754	0.033382
684.4071	0.035619
684.6388	0.040198
684.8705	0.039543
685.1023	0.040050
685.3340	0.042434
685.5658	0.044671
685.7975	0.045958
686.0293	0.045831
686.2611	0.043742
686.4929	0.044882
686.7247	0.044882
686.9565	0.041864
687.1883	0.045093
687.4202	0.044544
687.6520	0.043510
687.8838	0.042139
688.1157	0.041421
688.3476	0.040261
688.5795	0.039353
688.8114	0.036927
689.0433	0.039396
689.2752	0.037539
689.5071	0.035091
689.7390	0.037729
689.9710	0.037159
690.2029	0.037433
690.4349	0.033677
690.6669	0.035576
690.8988	0.037032
691.1308	0.038256
691.3628	0.039164
691.5948	0.039269
691.8269	0.038953
692.0589	0.038826
692.2909	0.035998
692.5230	0.038383
692.7550	0.037201
692.9871	0.037876
693.2192	0.039079
693.4513	0.041274
693.6834	0.038552
693.9155	0.037328
694.1476	0.035661
694.3797	0.033719
694.6119	0.034690
694.8440	0.035429
695.0762	0.035661
695.3083	0.037159
695.5405	0.032960
695.7727	0.031504
696.0049	0.030681
696.2371	0.030027
696.4693	0.032601
696.7016	0.037919
696.9338	0.039522
697.1660	0.039100
697.3983	0.037729
697.6306	0.040240
697.8628	0.039564
698.0951	0.039227
698.3274	0.038383
698.5597	0.038404
698.7920	0.038362
699.0243	0.037117
699.2567	0.036019
699.4890	0.035344
699.7214	0.035070
699.9537	0.033825
700.1861	0.032939
700.4185	0.032981
700.6509	0.033572
700.8833	0.031419
701.1157	0.029035
701.3481	0.028508
701.5806	0.028993
701.8130	0.029499
702.0454	0.028972
702.2779	0.029394
702.5104	0.031968
702.7429	0.031272
702.9753	0.030006
703.2078	0.030175
703.4403	0.029436
703.6729	0.030702
703.9054	0.028613
704.1379	0.029204
704.3705	0.028697
704.6030	0.027368
704.8356	0.027769
705.0682	0.024752
705.3008	0.025279
705.5334	0.025258
705.7660	0.025427
705.9986	0.026461
706.2312	0.027917
706.4638	0.029014
706.6965	0.033445
706.9291	0.036631
707.1618	0.039016
707.3945	0.040155
707.6272	0.039164
707.8599	0.037222
708.0926	0.037433
708.3253	0.036969
708.5580	0.037475
708.7907	0.038045
709.0235	0.037623
709.2562	0.034247
709.4890	0.034690
709.7217	0.036505
709.9545	0.035830
710.1873	0.036062
710.4201	0.034268
710.6529	0.035661
710.8857	0.035956
711.1186	0.033825
711.3514	0.032643
711.5842	0.033192
711.8171	0.031609
712.0500	0.028908
712.2828	0.030069
712.5157	0.030512
712.7486	0.030175
712.9815	0.027347
713.2144	0.030491
713.4474	0.033994
713.6803	0.033445
713.9132	0.034753
714.1462	0.037834
714.3791	0.035281
714.6121	0.034268
714.8451	0.036062
715.0781	0.033867
715.3111	0.034859
715.5441	0.034753
715.7771	0.035323
716.0102	0.032411
716.2432	0.029963
716.4762	0.028254
716.7093	0.029584
716.9424	0.029162
717.1754	0.028676
717.4085	0.029499
717.6416	0.029330
717.8747	0.029858
718.1078	0.029963
718.3410	0.029752
718.5741	0.029330
718.8072	0.030976
719.0404	0.028930
719.2736	0.030913
719.5067	0.031272
719.7399	0.029605
719.9731	0.029141
720.2063	0.028381
720.4395	0.027896
720.6727	0.031694
720.9060	0.029563
721.1392	0.031820
721.3725	0.029162
721.6057	0.031673
721.8390	0.031272
722.0723	0.028043
722.3055	0.030343
722.5388	0.028930
722.7721	0.028740
723.0055	0.028043
723.2388	0.029731
723.4721	0.028697
723.7055	0.028423
723.9388	0.029098
724.1722	0.029352
724.4056	0.028170
724.6389	0.026081
724.8723	0.028866
725.1057	0.031778
725.3391	0.033445
725.5726	0.033171
725.8060	0.032179
726.0394	0.034859
726.2729	0.033234
726.5063	0.035091
726.7398	0.035386
726.9733	0.033255
727.2068	0.033297
727.4403	0.031504
727.6738	0.032643
727.9073	0.034648
728.1408	0.035239
728.3743	0.034922
728.6079	0.035534
728.8414	0.033741
729.0750	0.035112
729.3086	0.034331
729.5421	0.038953
729.7757	0.034901
730.0093	0.035703
730.2429	0.036758
730.4766	0.036505
730.7102	0.039142
730.9438	0.044376
731.1775	0.042033
731.4111	0.042877
731.6448	0.044460
731.8785	0.043637
732.1122	0.044165
732.3458	0.040176
732.5795	0.041231
732.8133	0.043510
733.0470	0.042498
733.2807	0.041274
733.5145	0.043848
733.7482	0.045072
733.9820	0.047287
734.2157	0.052753
734.4495	0.054209
734.6833	0.051318
734.9171	0.049756
735.1509	0.048110
735.3847	0.047034
735.6185	0.050305
735.8524	0.052310
736.0862	0.050052
736.3201	0.048786
736.5539	0.048469
736.7878	0.048216
737.0217	0.048933
737.2556	0.049862
737.4895	0.046929
737.7234	0.043721
737.9573	0.045325
738.1912	0.043468
738.4252	0.043363
738.6591	0.041358
738.8931	0.042371
739.1271	0.045684
739.3610	0.048005
739.5950	0.047520
739.8290	0.044291
740.0630	0.044629
740.2970	0.044312
740.5310	0.041822
740.7651	0.040472
740.9991	0.039438
741.2332	0.036695
741.4672	0.033255
741.7013	0.034120
741.9354	0.032327
742.1695	0.034247
742.4036	0.033551
742.6377	0.037433
742.8718	0.035745
743.1059	0.034500
743.3400	0.032622
743.5742	0.031061
743.8083	0.033234
744.0425	0.032791
744.2767	0.029795
744.5108	0.029457
744.7450	0.031546
744.9792	0.031251
745.2134	0.029626
745.4477	0.029541
745.6819	0.029183
745.9161	0.030006
746.1504	0.028951
746.3846	0.028613
746.6189	0.028803
746.8532	0.029204
747.0874	0.030470
747.3217	0.032453
747.5560	0.033171
747.7903	0.033023
748.0247	0.030871
748.2590	0.030470
748.4933	0.028360
748.7277	0.029879
748.9620	0.030322
749.1964	0.031525
749.4308	0.032833
749.6652	0.034120
749.8995	0.038931
750.1339	0.039459
750.3684	0.039670
750.6028	0.040092
750.8372	0.040936
751.0717	0.040134
751.3061	0.038847
751.5406	0.040303
751.7750	0.042898
752.0095	0.040662
752.2440	0.038573
752.4785	0.039881
752.7130	0.040240
752.9475	0.036716
753.1820	0.036273
753.4166	0.038298
753.6511	0.040809
753.8856	0.044017
754.1202	0.042118
754.3548	0.042666
754.5894	0.040662
754.8239	0.043869
755.0585	0.040873
755.2931	0.042856
755.5278	0.042687
755.7624	0.041020
755.9970	0.045409
756.2317	0.049398
756.4663	0.047667
756.7010	0.051233
756.9356	0.051297
757.1703	0.054019
757.4050	0.056804
757.6397	0.058893
757.8744	0.060834
758.1091	0.060666
758.3438	0.057099
758.5786	0.055454
758.8133	0.053280
759.0481	0.054335
759.2828	0.056846
759.5176	0.060328
759.7524	0.059568
759.9872	0.060919
760.2220	0.063008
760.4568	0.062755
760.6916	0.065498
760.9264	0.062755
761.1613	0.064358
761.3961	0.059188
761.6310	0.057627
761.8658	0.053976
762.1007	0.051128
762.3356	0.050432
762.5705	0.048722
762.8054	0.048343
763.0403	0.047604
763.2752	0.049566
763.5101	0.051339
763.7450	0.051571
763.9800	0.051698
764.2149	0.055010
764.4499	0.056445
764.6849	0.057374
764.9198	0.059146
765.1548	0.059210
765.3898	0.057690
765.6248	0.054567
765.8599	0.053090
766.0949	0.053322
766.3299	0.048258
766.5650	0.045409
766.8000	0.042097
767.0351	0.040282
767.2701	0.037876
767.5052	0.038699
767.7403	0.040873
767.9754	0.042118
768.2105	0.043679
768.4456	0.046654
768.6808	0.048005
768.9159	0.049039
769.1510	0.047520
769.3862	0.048427
769.6214	0.046950
769.8565	0.044734
770.0917	0.047604
770.3269	0.046612
770.5621	0.046971
770.7973	0.048532
771.0325	0.048722
771.2677	0.048005
771.5030	0.047878
771.7382	0.045135
771.9735	0.044249
772.2087	0.042687
772.4440	0.041231
772.6793	0.041759
772.9146	0.039860
773.1499	0.042371
773.3852	0.038087
773.6205	0.038509
773.8558	0.036948
774.0911	0.037729
774.3265	0.036019
774.5618	0.033719
774.7972	0.034353
775.0326	0.032327
775.2679	0.030913
775.5033	0.030850
775.7387	0.028972
775.9741	0.026397
776.2095	0.029478
776.4450	0.026419
776.6804	0.025954
776.9158	0.027220
777.1513	0.026587
777.3868	0.025743
777.6222	0.025342
777.8577	0.026060
778.0932	0.026334
778.3287	0.026545
778.5642	0.027495
778.7997	0.030597
779.0352	0.029225
779.2707	0.031230
779.5063	0.032158
779.7418	0.030913
779.9774	0.029183
780.2130	0.029457
780.4485	0.030955
780.6841	0.026714
780.9197	0.031905
781.1553	0.033445
781.3909	0.036019
781.6265	0.035429
781.8622	0.033635
782.0978	0.035175
782.3335	0.036420
782.5691	0.035745
782.8048	0.034838
783.0405	0.035513
783.2761	0.035028
783.5118	0.032475
783.7475	0.036842
783.9832	0.034585
784.2190	0.033297
784.4547	0.032854
784.6904	0.028529
784.9262	0.030386
785.1619	0.030997
785.3977	0.029816
785.6335	0.030090
785.8692	0.029963
786.1050	0.029225
786.3408	0.030217
786.5766	0.028571
786.8124	0.028086
787.0483	0.027874
787.2841	0.027748
787.5199	0.030786
787.7558	0.030976
787.9917	0.028908
788.2275	0.030175
788.4634	0.030702
788.6993	0.030428
788.9352	0.033234
789.1711	0.031504
789.4070	0.030386
789.6429	0.028529
789.8789	0.029373
790.1148	0.028381
790.3507	0.028824
790.5867	0.027305
790.8227	0.025110
791.0586	0.026165
791.2946	0.024836
791.5306	0.025828
791.7666	0.024583
792.0026	0.023570
792.2387	0.023696
792.4747	0.024097
792.7107	0.022093
792.9468	0.022156
793.1828	0.021333
793.4189	0.020363
793.6550	0.024899
793.8910	0.026862
794.1271	0.029520
794.3632	0.033065
794.5993	0.030997
794.8355	0.031145
795.0716	0.034753
795.3077	0.033192
795.5439	0.031820
795.7800	0.030723
796.0162	0.027537
796.2523	0.026566
796.4885	0.025490
796.7247	0.023844
796.9609	0.020067
797.1971	0.021776
797.4333	0.021122
797.6695	0.024372
797.9058	0.022620
798.1420	0.022008
798.3783	0.023042
798.6145	0.024119
798.8508	0.022747
799.0871	0.025469
799.3233	0.025195
799.5596	0.021228
799.7959	0.021755
800.0322	0.021080
800.2686	0.020088
800.5049	0.019772
800.7412	0.019286
800.9776	0.019139
801.2139	0.020363
801.4503	0.018991
801.6867	0.018084
801.9230	0.016881
802.1594	0.016290
802.3958	0.016311
802.6322	0.017640
802.8686	0.016332
803.1051	0.019518
803.3415	0.020595
803.5779	0.019561
803.8144	0.017050
804.0508	0.019814
804.2873	0.016923
804.5238	0.018147
804.7603	0.017640
804.9968	0.017662
805.2333	0.016016
805.4698	0.017324
805.7063	0.017429
805.9428	0.022810
806.1794	0.023591
806.4159	0.024330
806.6525	0.024372
806.8890	0.023739
807.1256	0.022874
807.3622	0.024013
807.5988	0.023760
807.8354	0.021797
808.0720	0.022810
808.3086	0.024519
808.5452	0.023148
808.7818	0.022388
809.0185	0.023401
809.2551	0.022452
809.4918	0.023359
809.7284	0.022958
809.9651	0.020637
810.2018	0.020510
810.4385	0.020510
810.6752	0.021185
810.9119	0.019350
811.1486	0.020468
811.3853	0.018147
811.6221	0.018210
811.8588	0.017851
812.0956	0.017197
812.3323	0.017662
812.5691	0.014454
812.8059	0.014159
813.0427	0.015151
813.2795	0.014750
813.5163	0.016691
813.7531	0.017303
813.9899	0.019919
814.2267	0.019223
814.4636	0.020067
814.7004	0.019265
814.9373	0.018485
815.1742	0.018569
815.4110	0.016459
815.6479	0.014707
815.8848	0.014792
816.1217	0.014222
816.3586	0.013842
816.5955	0.015108
816.8324	0.014496
817.0694	0.015129
817.3063	0.013251
817.5433	0.015594
817.7802	0.014940
818.0172	0.014665
818.2542	0.015826
818.4912	0.015256
818.7282	0.011859
818.9652	0.012576
819.2022	0.014074
819.4392	0.014792
819.6762	0.013420
819.9133	0.012407
820.1503	0.013884
820.3874	0.015762
820.6244	0.014686
820.8615	0.017577
821.0986	0.015551
821.3357	0.015362
821.5727	0.015340
821.8099	0.013716
822.0470	0.014412
822.2841	0.015066
822.5212	0.013927
822.7584	0.012682
822.9955	0.012513
823.2327	0.012893
823.4698	0.012323
823.7070	0.012091
823.9442	0.011352
824.1814	0.012302
824.4186	0.012196
824.6558	0.011099
824.8930	0.011352
825.1302	0.011416
825.3675	0.011943
825.6047	0.012935
825.8419	0.014159
826.0792	0.014243
826.3165	0.012513
826.5537	0.013083
826.7910	0.013167
827.0283	0.013462
827.2656	0.012893
827.5029	0.012154
827.7402	0.013863
827.9776	0.014581
828.2149	0.013315
828.4522	0.013146
828.6896	0.013737
828.9270	0.011606
829.1643	0.013399
829.4017	0.013758
829.6391	0.012154
829.8765	0.011817
830.1139	0.012281
830.3513	0.011732
830.5887	0.011395
830.8261	0.011120
831.0636	0.009706
831.3010	0.008314
831.5385	0.009833
831.7759	0.008082
832.0134	0.008862
832.2509	0.008356
832.4884	0.008398
832.7259	0.009306
832.9634	0.007554
833.2009	0.010740
833.4384	0.010171
833.6759	0.009685
833.9135	0.010255
834.1510	0.010529
834.3886	0.011584
834.6261	0.011542
834.8637	0.009960
835.1013	0.010888
835.3389	0.010719
835.5765	0.010466
835.8141	0.009643
836.0517	0.010276
836.2893	0.008673
836.5269	0.007301
836.7646	0.010234
837.0022	0.008187
837.2399	0.008525
837.4775	0.006584
837.7152	0.008989
837.9529	0.006647
838.1906	0.008293
838.4283	0.006647
838.6660	0.006478
838.9037	0.009706
839.1414	0.005275
839.3791	0.007617
839.6169	0.006752
839.8546	0.008208
840.0924	0.007997
840.3302	0.009960
840.5679	0.006541
840.8057	0.007259
841.0435	0.008187
841.2813	0.006288
841.5191	0.006499
841.7569	0.008018
841.9947	0.006077
842.2326	0.005908
842.4704	0.005317
842.7082	0.005697
842.9461	0.006731
843.1840	0.006183
843.4218	0.006014
843.6597	0.005465
843.8976	0.005528
844.1355	0.005149
844.3734	0.005339
844.6113	0.004663
844.8492	0.007027
845.0872	0.005212
845.3251	0.005085
845.5631	0.005972
845.8010	0.005613
846.0390	0.005022
846.2770	0.004579
846.5149	0.005507
846.7529	0.004115
846.9909	0.005634
847.2289	0.005465
847.4669	0.006626
847.7050	0.005908
847.9430	0.004009
848.1810	0.004832
848.4191	0.005993
848.6571	0.004452
848.8952	0.005718
849.1333	0.006436
849.3713	0.005149
849.6094	0.006267
849.8475	0.007006
850.0856	0.005613
850.3237	0.005697
850.5619	0.004769
850.8000	0.005676
851.0381	0.004030
851.2763	0.005128
851.5144	0.005507
851.7526	0.005043
851.9908	0.005550
852.2289	0.006098
852.4671	0.007976
852.7053	0.009179
852.9435	0.010340
853.1817	0.014074
853.4200	0.011838
853.6582	0.014602
853.8964	0.015404
854.1347	0.014518
854.3729	0.015066
854.6112	0.017303
854.8495	0.013969
855.0877	0.015488
855.3260	0.013673
855.5643	0.012091
855.8026	0.013315
856.0409	0.013441
856.2792	0.012618
856.5176	0.013083
856.7559	0.012576
856.9942	0.010129
857.2326	0.011985
857.4710	0.012935
857.7093	0.010909
857.9477	0.011542
858.1861	0.011247
858.4245	0.010973
858.6629	0.009685
858.9013	0.007892
859.1397	0.009770
859.3781	0.010297
859.6166	0.010382
859.8550	0.009896
860.0935	0.009643
860.3319	0.008989
860.5704	0.008040
860.8089	0.007554
861.0473	0.007006
861.2858	0.007217
861.5243	0.005233
861.7628	0.006752
862.0013	0.006478
862.2399	0.006140
862.4784	0.006984
862.7169	0.005149
862.9555	0.006330
863.1940	0.007364
863.4326	0.005929
863.6712	0.007681
863.9098	0.007343
864.1483	0.008040
864.3869	0.005972
864.6255	0.006795
864.8642	0.005613
865.1028	0.006140
865.3414	0.004558
865.5800	0.004980
865.8187	0.006119
866.0573	0.005064
866.2960	0.005571
866.5347	0.005697
866.7733	0.005761
867.0120	0.007153
867.2507	0.005339
867.4894	0.005803
867.7281	0.007470
867.9669	0.006984
868.2056	0.006710
868.4443	0.006162
868.6831	0.006098
868.9218	0.006457
869.1606	0.004811
869.3993	0.004959
869.6381	0.004663
869.8769	0.006309
870.1157	0.004537
870.3545	0.002912
870.5933	0.004895
870.8321	0.006225
871.0709	0.005296
871.3097	0.006436
871.5486	0.004790
871.7874	0.005866
872.0263	0.005634
872.2651	0.006499
872.5040	0.006373
872.7429	0.005106
872.9818	0.003397
873.2207	0.004959
873.4596	0.004178
873.6985	0.004980
873.9374	0.004853
874.1763	0.006731
874.4153	0.005718
874.6542	0.005085
874.8932	0.003883
875.1321	0.005908
875.3711	0.005887
875.6101	0.006647
875.8491	0.005950
876.0880	0.006225
876.3270	0.005655
876.5661	0.006119
876.8051	0.005803
877.0441	0.004748
877.2831	0.005317
877.5222	0.006795
877.7612	0.006351
878.0003	0.008166
878.2393	0.008208
878.4784	0.007006
878.7175	0.007660
878.9566	0.008546
879.1957	0.008082
879.4348	0.007048
879.6739	0.007491
879.9130	0.009010
880.1521	0.008440
880.3913	0.009390
880.6304	0.007660
880.8696	0.008862
881.1087	0.008145
881.3479	0.007238
881.5871	0.005782
881.8262	0.004959
882.0654	0.007322
882.3046	0.007575
882.5438	0.006436
882.7831	0.007512
883.0223	0.006288
883.2615	0.006879
883.5007	0.008040
883.7400	0.005993
883.9792	0.005972
884.2185	0.005254
884.4578	0.006415
884.6971	0.006478
884.9363	0.007174
885.1756	0.006773
885.4149	0.006309
885.6542	0.006731
885.8936	0.008398
886.1329	0.007913
886.3722	0.006710
886.6116	0.006668
886.8509	0.007301
887.0903	0.006204
887.3296	0.006225
887.5690	0.007512
887.8084	0.006605
888.0478	0.005085
888.2872	0.004305
888.5266	0.006162
888.7660	0.005972
889.0054	0.004473
889.2448	0.005317
889.4843	0.003798
889.7237	0.005233
889.9632	0.006162
890.2026	0.004136
890.4421	0.004347
890.6816	0.004874
890.9211	0.002975
891.1606	0.004516
891.4001	0.004558
891.6396	0.006752
891.8791	0.005782
892.1186	0.004895
892.3581	0.005655
892.5977	0.006267
892.8372	0.005866
893.0768	0.005613
893.3163	0.004727
893.5559	0.006309
893.7955	0.005697
894.0351	0.004748
894.2747	0.004051
894.5143	0.004938
894.7539	0.004136
894.9935	0.004959
895.2331	0.004621
895.4727	0.004980
895.7124	0.005423
895.9520	0.005360
896.1917	0.005296
896.4314	0.005803
896.6710	0.006457
896.9107	0.006816
897.1504	0.004727
897.3901	0.004769
897.6298	0.004262
897.8695	0.006541
898.1092	0.004115
898.3489	0.005339
898.5887	0.004684
898.8284	0.004748
899.0682	0.005233
899.3079	0.004642
899.5477	0.004241
899.7875	0.004895
900.0272	0.003355
900.2670	0.007132
900.5068	0.003967
900.7466	0.006605
900.9864	0.003988
901.2263	0.003925
901.4661	0.005528
901.7059	0.004663
901.9458	0.003777
902.1856	0.004621
902.4255	0.005001
902.6654	0.005149
902.9052	0.005149
903.1451	0.003355
903.3850	0.004051
903.6249	0.004516
903.8648	0.004241
904.1047	0.003883
904.3446	0.004621
904.5846	0.005507
904.8245	0.003735
905.0644	0.004347
905.3044	0.005149
905.5444	0.006056
905.7843	0.005106
906.0243	0.005339
906.2643	0.005064
906.5043	0.005381
906.7443	0.002975
906.9843	0.005360
907.2243	0.003756
907.4643	0.005022
907.7043	0.005465
907.9444	0.005866
908.1844	0.005001
908.4245	0.005761
908.6645	0.004410
908.9046	0.004579
909.1447	0.002785
909.3847	0.004284
909.6248	0.003397
909.8649	0.003545
910.1050	0.003060
910.3452	0.003988
910.5853	0.004030
910.8254	0.005149
911.0655	0.003376
911.3057	0.003418
911.5458	0.004009
911.7860	0.004410
912.0262	0.004030
912.2663	0.003482
912.5065	0.004748
912.7467	0.005128
912.9869	0.004431
913.2271	0.002617
913.4673	0.003250
913.7075	0.004051
913.9478	0.002638
914.1880	0.002996
914.4283	0.003102
914.6685	0.003524
914.9088	0.002617
915.1490	0.003545
915.3893	0.003439
915.6296	0.004051
915.8699	0.004262
916.1102	0.003334
916.3505	0.003608
916.5908	0.005634
916.8311	0.003735
917.0714	0.002427
917.3118	0.003650
917.5521	0.005655
917.7925	0.003629
918.0328	0.004853
918.2732	0.003650
918.5136	0.004642
918.7539	0.003292
918.9943	0.003545
919.2347	0.003228
919.4751	0.004368
919.7155	0.003313
919.9560	0.004663
920.1964	0.003355
920.4368	0.001941
920.6773	0.003735
920.9177	0.005613
921.1582	0.004030
921.3986	0.003524
921.6391	0.004094
921.8796	0.004136
922.1201	0.003292
922.3606	0.005381
922.6011	0.004241
922.8416	0.003186
923.0821	0.002026
923.3226	0.004220
923.5631	0.002996
923.8037	0.003334
924.0442	0.003271
924.2848	0.003144
924.5254	0.004030
924.7659	0.002806
925.0065	0.003334
925.2471	0.003418
925.4877	0.003355
925.7283	0.002933
925.9689	0.002680
926.2095	0.003418
926.4501	0.002574
926.6908	0.002870
926.9314	0.001646
927.1720	0.003883
927.4127	0.002617
927.6533	0.002891
927.8940	0.002701
928.1347	0.003503
928.3754	0.004030
928.6161	0.002722
928.8568	0.003144
929.0975	0.003482
929.3382	0.003503
929.5789	0.003207
929.8196	0.001118
930.0604	0.002342
930.3011	0.001667
930.5419	0.002406
930.7826	0.003693
931.0234	0.002806
931.2642	0.001646
931.5049	0.002849
931.7457	0.001583
931.9865	0.001372
932.2273	0.002722
932.4681	0.004853
932.7089	0.001625
932.9498	0.001899
933.1906	0.002342
933.4314	0.002321
933.6723	0.003186
933.9131	0.002617
934.1540	0.000971
934.3949	0.001540
934.6358	0.002828
934.8766	0.001055
935.1175	0.003207
935.3584	0.002891
935.5993	0.001329
935.8403	0.002152
936.0812	0.001730
936.3221	0.002384
936.5630	0.002448
936.8040	0.001498
937.0449	0.002068
937.2859	0.001941
937.5269	0.001962
937.7678	0.002068
938.0088	0.002743
938.2498	0.000464
938.4908	0.001372
938.7318	0.001751
938.9728	0.002068
939.2138	0.002110
939.4549	0.002237
939.6959	-0.000443
939.9369	0.001646
940.1780	-0.000106
940.4190	0.004030
940.6601	0.001583
940.9012	0.001772
941.1422	0.001836
941.3833	0.002891
941.6244	0.001794
941.8655	0.001878
942.1066	0.002448
942.3477	0.001561
942.5889	0.001920
942.8300	0.003250
943.0711	0.000190
943.3123	0.000907
943.5534	0.001815
943.7946	0.001414
944.0357	0.001076
944.2769	0.002047
944.5181	0.002279
944.7593	0.001646
945.0005	0.000675
945.2417	0.002532
945.4829	0.000907
945.7241	0.001097
945.9653	0.001477
946.2066	0.000802
946.4478	0.001055
946.6891	0.000886
946.9303	0.002321
947.1716	0.001456
947.4128	-0.000021
947.6541	0.000886
947.8954	0.000739
948.1367	0.001329
948.3780	-0.000127
948.6193	0.001667
948.8606	0.000295
949.1019	0.000802
949.3433	0.002469
949.5846	0.000506
949.8259	0.000549
950.0673	0.002300
950.3086	0.000760
950.5500	0.001013
950.7914	0.001308
951.0327	0.001646
951.2741	0.001266
951.5155	0.002195
951.7569	0.000464
951.9983	0.001857
952.2398	-0.000063
952.4812	0.002891
952.7226	0.001013
952.9640	0.002427
953.2055	-0.000528
953.4469	0.000464
953.6884	0.000823
953.9299	0.002384
954.1713	0.000696
954.4128	0.002849
954.6543	0.001561
954.8958	0.001772
955.1373	0.000211
955.3788	0.001224
955.6203	0.000401
955.8618	0.001372
956.1034	0.001203
956.3449	0.000317
956.5865	0.001161
956.8280	0.001920
957.0696	0.001477
957.3111	0.001625
957.5527	0.001477
957.7943	0.000928
958.0359	0.001477
958.2775	-0.000211
958.5191	0.001688
958.7607	0.001224
959.0023	0.001667
959.2439	0.001772
959.4856	0.001266
959.7272	0.002005
959.9688	0.001709
960.2105	0.001857
960.4522	0.000907
960.6938	0.001604
960.9355	0.001055
961.1772	0.001625
961.4189	0.000274
961.6606	0.001540
961.9023	0.001245
962.1440	0.002279
962.3857	0.001667
962.6274	0.001540
962.8692	0.001899
963.1109	-0.000338
963.3527	0.001266
963.5944	0.001604
963.8362	-0.000211
964.0779	0.000844
964.3197	0.001372
964.5615	0.000971
964.8033	0.001329
965.0451	0.000211
965.2869	0.001097
965.5287	0.001372
965.7705	0.000717
966.0123	0.002448
966.2542	0.001308
966.4960	0.000992
966.7379	0.000211
966.9797	0.000717
967.2216	0.001076
967.4634	0.001055
967.7053	-0.000401
967.9472	0.002089
968.1891	0.001372
968.4310	0.000148
968.6729	0.001941
968.9148	0.002068
969.1567	0.000717
969.3987	0.000422
969.6406	0.001350
969.8825	0.002237
970.1245	-0.000211
970.3664	0.001561
970.6084	0.000528
970.8504	0.000907
971.0923	0.000760
971.3343	0.000464
971.5763	0.001308
971.8183	0.001625
972.0603	0.000042
972.3023	0.001836
972.5443	-0.000295
972.7864	0.001329
973.0284	0.000802
973.2704	0.001055
973.5125	0.001815
973.7545	0.000739
973.9966	0.001604
974.2387	0.000675
974.4807	0.000549
974.7228	0.000950
974.9649	0.001983
975.2070	0.000844
975.4491	0.001646
975.6912	0.000084
975.9333	0.000253
976.1755	0.001161
976.4176	0.001287
976.6597	0.000485
976.9019	0.000950
977.1440	0.002258
977.3862	0.001097
977.6283	0.001308
977.8705	0.000717
978.1127	0.001435
978.3549	0.001118
978.5971	0.001203
978.8393	-0.000802
979.0815	0.001266
979.3237	0.001055
979.5659	-0.000169
979.8082	0.000696
980.0504	-0.000106
980.2926	-0.000169
980.5349	0.000739
980.7771	0.000084
981.0194	0.000739
981.2617	0.001139
981.5040	0.001203
981.7462	0.001920
981.9885	0.001751
982.2308	0.001287
982.4731	0.001604
982.7155	-0.000106
982.9578	0.001751
983.2001	0.000253
983.4424	0.001646
983.6848	0.000127
983.9271	0.002068
984.1695	-0.000485
984.4118	0.001308
984.6542	0.000169
984.8966	0.000971
985.1390	-0.000274
985.3814	0.000485
985.6238	0.000886
985.8662	0.002173
986.1086	0.000760
986.3510	0.000886
986.5934	0.000992
986.8358	-0.001287
987.0783	0.000612
987.3207	0.000781
987.5632	0.001034
987.8056	0.001498
988.0481	-0.000084
988.2906	0.001498
988.5331	0.000591
988.7756	0.001688
989.0180	0.000506
989.2605	0.000148
989.5031	0.001203
989.7456	-0.000211
989.9881	0.000485
990.2306	-0.001245
990.4732	-0.000253
990.7157	0.001182
990.9582	0.000063
991.2008	0.001414
991.4434	-0.001182
991.6859	0.000021
991.9285	0.001224
992.1711	0.000232
992.4137	0.000084
992.6563	0.000000
992.8989	0.000106
993.1415	0.001688
993.3841	0.001161
993.6267	0.001477
993.8694	-0.000338
994.1120	0.000169
994.3547	0.000422
994.5973	-0.000148
994.8400	0.000528
995.0826	0.001308
995.3253	0.001540
995.5680	0.000211
995.8107	0.000591
996.0534	0.000338
996.2961	-0.000359
996.5388	0.000380
996.7815	0.001435
997.0242	0.001667
997.2670	-0.001182
997.5097	0.000844
997.7524	0.000106
997.9952	0.001203
998.2379	0.000549
998.4807	0.000169
998.7235	0.000148
998.9662	0.000591
999.2090	0.001625
999.4518	-0.001139
999.6946	0.001414
999.9374	-0.000717
1000.1802	0.000591
1000.4230	0.000000
1000.6659	0.001751
1000.9087	0.000696
1001.1515	0.000106
1001.3944	0.000696
1001.6372	0.000464
1001.8801	0.000781
1002.1230	-0.000127
1002.3658	0.000317
1002.6087	0.000654
1002.8516	0.000317
1003.0945	0.000422
1003.3374	0.000950
1003.5803	-0.000760
1003.8232	-0.001055
1004.0661	0.001224
1004.3091	0.000907
1004.5520	0.001203
1004.7949	0.001329
1005.0379	0.000760
1005.2808	0.001013
1005.5238	-0.000549
1005.7667	0.000211
1006.0097	0.000317
1006.2527	-0.000084
1006.4957	0.000338
1006.7387	0.000422
1006.9817	0.000781
1007.2247	0.000000
1007.4677	0.001329
1007.7107	0.000971
1007.9538	0.002089
1008.1968	-0.000506
1008.4398	0.001161
1008.6829	-0.000253
1008.9259	0.001435
1009.1690	0.000443
1009.4121	0.000781
1009.6551	0.001034
1009.8982	0.001435
1010.1413	0.001097
1010.3844	0.000971
1010.6275	0.000549
1010.8706	0.001076
1011.1137	0.000253
1011.3568	0.001329
1011.6000	-0.000950
1011.8431	0.001730
1012.0863	-0.000042
1012.3294	0.000127
1012.5726	0.001329
1012.8157	0.001878
1013.0589	-0.000106
1013.3021	0.001667
1013.5452	0.000127
1013.7884	-0.000359
1014.0316	0.001815
1014.2748	0.001034
1014.5180	0.000570
1014.7613	0.000232
1015.0045	0.000169
1015.2477	0.000781
1015.4909	0.001730
1015.7342	0.000928
1015.9774	0.000992
1016.2207	0.000485
1016.4640	0.001308
1016.7072	0.000886
1016.9505	0.000211
1017.1938	0.002321
1017.4371	0.001350
1017.6804	0.001456
1017.9237	-0.000021
1018.1670	-0.000380
1018.4103	0.000696
1018.6536	0.000528
1018.8969	0.000211
1019.1403	0.001920
1019.3836	0.001414
1019.6270	-0.000042
1019.8703	0.002110
1020.1137	0.000274
1020.3571	0.000886
1020.6004	0.001203
1020.8438	0.001287
1021.0872	0.001772
1021.3306	-0.000359
1021.5740	0.000485
1021.8174	-0.000169
1022.0608	-0.000084
1022.3042	-0.000295
1022.5477	0.000739
1022.7911	0.000591
1023.0345	-0.000950
