# Wavelength (nm)	Intensity (a.u.)
197.7802	0.001431
197.9842	0.000081
198.1882	-0.000130
198.3922	-0.000151
198.5963	0.001051
198.8003	-0.000573
199.0044	0.000840
199.2085	-0.000278
199.4126	0.000081
199.6168	-0.000636
199.8209	-0.000025
200.0251	0.000144
200.2292	0.000777
200.4334	0.000271
200.6376	-0.001100
200.8418	0.000608
201.0461	-0.000172
201.2503	-0.000657
201.4546	0.000524
201.6589	0.000376
201.8631	0.001199
202.0674	0.000566
202.2718	0.000081
202.4761	-0.000573
202.6805	0.001136
202.8848	-0.000573
203.0892	0.000988
203.2936	0.000672
203.4980	-0.000257
203.7024	-0.001143
203.9069	0.002486
204.1113	-0.000383
204.3158	0.000756
204.5203	0.000271
204.7248	0.000376
204.9293	-0.000468
205.1338	0.000693
205.3384	0.000693
205.5430	0.000503
205.7475	-0.000932
205.9521	0.000123
206.1567	-0.000193
206.3614	0.001030
206.5660	-0.000172
206.7706	0.000904
206.9753	0.000271
207.1800	-0.000468
207.3847	0.001136
207.5894	0.000882
207.7941	-0.000214
207.9989	0.001705
208.2036	0.000482
208.4084	0.001389
208.6132	-0.000826
208.8180	-0.000742
209.0228	-0.001143
209.2276	0.000545
209.4325	0.000123
209.6373	0.000735
209.8422	-0.001311
210.0471	0.000735
210.2520	0.000418
210.4569	0.001241
210.6618	-0.000172
210.8668	0.001009
211.0718	0.000102
211.2767	0.001093
211.4817	-0.000362
211.6867	0.000334
211.8918	-0.000721
212.0968	0.000777
212.3018	-0.000257
212.5069	-0.000763
212.7120	0.000756
212.9171	0.001726
213.1222	-0.000784
213.3273	0.001853
213.5325	-0.000236
213.7376	0.001515
213.9428	0.000060
214.1480	0.000229
214.3532	-0.000046
214.5584	0.001642
214.7636	0.000735
214.9689	0.001347
215.1741	0.000376
215.3794	0.001768
215.5847	-0.000468
215.7900	0.000629
215.9953	-0.000700
216.2007	-0.000362
216.4060	-0.000404
216.6114	-0.000679
216.8168	0.000777
217.0222	0.000735
217.2276	0.000186
217.4330	-0.000531
217.6384	-0.000489
217.8439	0.000418
218.0494	-0.000383
218.2548	0.001009
218.4603	0.000840
218.6659	0.001684
218.8714	0.000925
219.0769	-0.000172
219.2825	0.000566
219.4881	0.002022
219.6936	0.000777
219.8992	0.001157
220.1049	0.001072
220.3105	0.001684
220.5161	0.001115
220.7218	0.000397
220.9275	-0.000299
221.1332	-0.000025
221.3389	0.001093
221.5446	-0.000636
221.7503	0.000925
221.9561	0.000967
222.1618	0.000524
222.3676	0.000313
222.5734	0.000587
222.7792	0.000229
222.9850	0.000650
223.1909	0.000081
223.3967	0.000756
223.6026	0.001874
223.8085	0.000081
224.0144	0.000039
224.2203	0.000081
224.4262	0.001515
224.6322	0.000165
224.8381	0.000629
225.0441	0.000587
225.2501	-0.000932
225.4561	0.001832
225.6621	-0.000447
225.8681	-0.001206
226.0742	0.000545
226.2802	0.001051
226.4863	0.000186
226.6924	0.000967
226.8985	0.000144
227.1046	0.000798
227.3107	0.000418
227.5169	0.001494
227.7230	0.000840
227.9292	0.001178
228.1354	0.001663
228.3416	0.000756
228.5478	0.000439
228.7541	-0.000932
228.9603	0.000165
229.1666	0.000566
229.3729	0.000545
229.5791	0.000165
229.7855	-0.000362
229.9918	-0.000615
230.1981	0.000165
230.4045	-0.000236
230.6108	0.001262
230.8172	0.000018
231.0236	0.000461
231.2300	0.001558
231.4364	0.001009
231.6429	-0.001839
231.8493	-0.000425
232.0558	-0.001543
232.2623	-0.000214
232.4688	-0.000510
232.6753	0.000039
232.8818	0.000967
233.0884	0.001473
233.2949	-0.000341
233.5015	0.000587
233.7081	0.000018
233.9147	0.000334
234.1213	-0.000425
234.3279	0.000672
234.5346	0.000672
234.7413	0.001874
234.9479	-0.001986
235.1546	0.001452
235.3613	-0.000636
235.5680	0.000882
235.7748	0.000144
235.9815	0.000186
236.1883	0.000334
236.3951	0.000756
236.6018	-0.000067
236.8087	0.000629
237.0155	0.000693
237.2223	0.001452
237.4292	-0.000573
237.6360	0.000376
237.8429	0.000503
238.0498	0.001642
238.2567	0.001368
238.4636	0.000925
238.6706	0.000946
238.8775	0.000334
239.0845	-0.000299
239.2915	0.000461
239.4985	-0.000552
239.7055	0.001136
239.9125	-0.000615
240.1195	0.000482
240.3266	0.001304
240.5337	0.000904
240.7407	0.001347
240.9478	0.000608
241.1549	0.000313
241.3621	0.000355
241.5692	0.001093
241.7764	0.000566
241.9835	0.000735
242.1907	0.000672
242.3979	0.001347
242.6051	0.000060
242.8124	-0.000341
243.0196	0.001663
243.2269	-0.000974
243.4341	0.000439
243.6414	0.000798
243.8487	0.001009
244.0560	0.000207
244.2634	0.000461
244.4707	0.001515
244.6781	0.000988
244.8854	0.000250
245.0928	0.000439
245.3002	0.000735
245.5076	0.001558
245.7151	-0.000236
245.9225	0.000756
246.1300	0.000882
246.3375	-0.000151
246.5449	0.000777
246.7524	0.000207
246.9600	-0.000341
247.1675	0.000165
247.3750	-0.001100
247.5826	0.001389
247.7902	0.000229
247.9978	-0.000130
248.2054	0.000123
248.4130	-0.000130
248.6206	-0.000763
248.8283	0.001115
249.0359	-0.000362
249.2436	0.001494
249.4513	0.000229
249.6590	0.002317
249.8667	0.001937
250.0745	0.000102
250.2822	-0.000257
250.4900	0.000165
250.6978	-0.000510
250.9056	0.000081
251.1134	-0.001332
251.3212	0.000482
251.5290	0.000524
251.7369	-0.000214
251.9447	0.000777
252.1526	-0.000447
252.3605	0.000039
252.5684	0.000123
252.7763	-0.000721
252.9843	0.001790
253.1922	-0.000151
253.4002	0.000777
253.6082	-0.000552
253.8162	-0.000657
254.0242	0.001241
254.2322	0.001600
254.4402	0.000123
254.6483	0.001494
254.8564	-0.000025
255.0644	0.000229
255.2725	0.001262
255.4806	0.000418
255.6888	-0.000236
255.8969	0.002000
256.1051	-0.000193
256.3132	-0.000130
256.5214	0.000608
256.7296	0.000482
256.9378	-0.000657
257.1460	0.001747
257.3543	0.000482
257.5625	0.000376
257.7708	0.000060
257.9791	0.000123
258.1874	0.000946
258.3957	0.001937
258.6040	-0.000911
258.8124	0.000334
259.0207	0.000397
259.2291	0.001304
259.4375	0.001009
259.6459	0.000102
259.8543	-0.000088
260.0627	0.001368
260.2711	-0.000679
260.4796	0.000165
260.6881	0.000081
260.8965	0.000629
261.1050	-0.000257
261.3135	0.000756
261.5221	0.001642
261.7306	0.000461
261.9392	-0.000299
262.1477	0.000144
262.3563	0.000650
262.5649	0.000819
262.7735	0.001241
262.9822	0.001431
263.1908	-0.000425
263.3995	0.001431
263.6081	0.000397
263.8168	0.001178
264.0255	0.001030
264.2342	0.000503
264.4429	-0.001206
264.6517	0.000798
264.8604	0.000060
265.0692	0.000798
265.2780	0.000840
265.4868	0.000925
265.6956	-0.000214
265.9044	0.001705
266.1133	0.000861
266.3221	0.000904
266.5310	0.000545
266.7399	-0.001185
266.9488	-0.000594
267.1577	0.000946
267.3666	-0.000468
267.5755	0.001199
267.7845	0.000503
267.9935	0.001157
268.2024	0.000672
268.4114	-0.000172
268.6205	-0.000046
268.8295	0.000123
269.0385	0.000397
269.2476	0.000186
269.4566	0.001220
269.6657	0.000376
269.8748	0.000566
270.0839	0.000292
270.2931	-0.000974
270.5022	0.000819
270.7114	0.001684
270.9205	0.001072
271.1297	0.000018
271.3389	0.001621
271.5481	-0.001079
271.7573	0.001431
271.9666	0.001178
272.1758	-0.001122
272.3851	0.000292
272.5944	-0.000974
272.8037	0.000081
273.0130	-0.000109
273.2223	0.001747
273.4316	0.002211
273.6410	-0.000383
273.8504	0.000461
274.0597	0.001347
274.2691	-0.000172
274.4785	0.000165
274.6880	0.000693
274.8974	0.000039
275.1069	0.001684
275.3163	0.001473
275.5258	0.000461
275.7353	0.000672
275.9448	-0.000341
276.1543	0.000186
276.3639	-0.000214
276.5734	-0.000489
276.7830	0.001389
276.9926	0.000418
277.2022	0.001030
277.4118	0.000461
277.6214	0.001262
277.8310	0.000608
278.0407	0.000735
278.2503	-0.000320
278.4600	0.000650
278.6697	0.000482
278.8794	0.000714
279.0891	-0.000151
279.2989	0.000165
279.5086	0.000039
279.7184	0.001241
279.9281	-0.000932
280.1379	0.000967
280.3477	0.000397
280.5576	0.000503
280.7674	0.000271
280.9772	0.000545
281.1871	0.000081
281.3970	-0.000236
281.6069	0.000545
281.8168	0.000735
282.0267	0.000545
282.2366	0.000777
282.4466	0.000714
282.6565	0.000060
282.8665	-0.001670
283.0765	-0.000046
283.2865	0.000334
283.4965	0.001347
283.7065	0.000545
283.9166	0.001072
284.1266	0.001009
284.3367	0.000123
284.5468	0.001304
284.7569	-0.000468
284.9670	0.000608
285.1771	0.000587
285.3873	0.000102
285.5974	0.000123
285.8076	0.002401
286.0178	0.001600
286.2280	0.001220
286.4382	0.001747
286.6484	0.000439
286.8587	-0.000046
287.0689	0.000545
287.2792	0.000123
287.4895	0.000798
287.6998	-0.000721
287.9101	0.000777
288.1204	0.002022
288.3308	-0.000995
288.5411	-0.000447
288.7515	0.000650
288.9619	0.000144
289.1723	0.000777
289.3827	-0.000868
289.5931	-0.000067
289.8035	0.000355
290.0140	-0.000341
290.2245	0.001072
290.4349	0.000967
290.6454	0.000102
290.8559	0.000271
291.0665	0.000587
291.2770	0.000819
291.4875	0.000545
291.6981	0.000524
291.9087	0.001600
292.1193	-0.000383
292.3299	0.000756
292.5405	0.000081
292.7511	0.000904
292.9618	0.001030
293.1724	0.001536
293.3831	-0.000067
293.5938	0.000165
293.8045	0.000418
294.0152	0.000735
294.2260	0.000629
294.4367	-0.000067
294.6475	-0.000995
294.8582	0.001072
295.0690	0.001220
295.2798	0.000524
295.4906	0.000925
295.7015	0.001325
295.9123	0.000102
296.1232	0.000376
296.3340	0.000735
296.5449	0.000250
296.7558	-0.000700
296.9667	0.000545
297.1777	-0.000236
297.3886	0.000039
297.5995	0.001199
297.8105	0.001178
298.0215	0.001093
298.2325	0.002169
298.4435	-0.000784
298.6545	0.000123
298.8656	0.000081
299.0766	0.001705
299.2877	0.000946
299.4988	0.000861
299.7099	0.001431
299.9210	0.001178
300.1321	0.000186
300.3432	0.000967
300.5544	0.001642
300.7655	0.000397
300.9767	0.000418
301.1879	0.000250
301.3991	-0.001206
301.6103	0.000461
301.8215	0.001642
302.0328	0.000503
302.2441	0.000925
302.4553	0.000608
302.6666	0.000861
302.8779	0.000144
303.0892	0.000439
303.3006	0.000165
303.5119	-0.000404
303.7233	0.000060
303.9346	0.000355
304.1460	0.001431
304.3574	0.000946
304.5688	0.000735
304.7803	0.000144
304.9917	0.001431
305.2031	-0.000657
305.4146	0.000819
305.6261	-0.000151
305.8376	0.001347
306.0491	0.000334
306.2606	0.000250
306.4722	0.000798
306.6837	0.000967
306.8953	-0.000320
307.1069	0.000186
307.3184	0.001473
307.5301	0.001093
307.7417	-0.000025
307.9533	0.002233
308.1650	-0.000088
308.3766	0.000882
308.5883	0.000165
308.8000	0.001178
309.0117	-0.000362
309.2234	0.001347
309.4351	0.000566
309.6469	0.001241
309.8586	0.000186
310.0704	0.001558
310.2822	0.001431
310.4940	0.000840
310.7058	-0.000088
310.9176	0.000545
311.1295	0.000313
311.3413	0.000819
311.5532	0.000798
311.7651	0.000081
311.9770	-0.000046
312.1889	0.000355
312.4008	-0.000700
312.6127	0.000376
312.8247	-0.000193
313.0366	0.001958
313.2486	0.000819
313.4606	-0.000299
313.6726	-0.000974
313.8846	-0.000320
314.0967	-0.001375
314.3087	0.000503
314.5208	0.000313
314.7328	0.000861
314.9449	-0.001037
315.1570	0.000693
315.3692	-0.000447
315.5813	0.000355
315.7934	-0.000025
316.0056	0.000861
316.2177	0.000229
316.4299	0.001009
316.6421	0.000608
316.8543	0.000735
317.0666	0.001389
317.2788	0.001600
317.4911	-0.000911
317.7033	0.000461
317.9156	0.000018
318.1279	0.001051
318.3402	-0.000890
318.5525	0.000672
318.7649	-0.000468
318.9772	0.001009
319.1896	-0.000679
319.4019	0.002338
319.6143	0.000334
319.8267	0.000988
320.0392	0.001199
320.2516	0.000693
320.4640	-0.000172
320.6765	-0.000721
320.8890	0.000313
321.1014	0.001600
321.3139	-0.000805
321.5265	0.001579
321.7390	-0.000763
321.9515	0.001304
322.1641	-0.000362
322.3766	0.001093
322.5892	-0.000257
322.8018	-0.000299
323.0144	0.000693
323.2270	0.000608
323.4397	-0.000046
323.6523	0.001283
323.8650	-0.000911
324.0777	0.000186
324.2904	-0.001100
324.5031	0.001389
324.7158	0.000165
324.9285	0.000355
325.1412	-0.000088
325.3540	0.001389
325.5668	0.000376
325.7796	0.001368
325.9924	0.000250
326.2052	0.000144
326.4180	-0.000025
326.6308	0.000081
326.8437	0.000545
327.0566	0.000376
327.2694	-0.000088
327.4823	0.000587
327.6952	-0.000278
327.9082	0.000967
328.1211	-0.000594
328.3340	0.000207
328.5470	-0.001164
328.7600	0.000714
328.9730	0.001368
329.1860	-0.000383
329.3990	0.000039
329.6120	0.000608
329.8251	0.000461
330.0381	0.000418
330.2512	0.000967
330.4643	0.001368
330.6774	-0.000278
330.8905	0.001452
331.1036	-0.000995
331.3167	0.000861
331.5299	-0.000636
331.7431	0.000018
331.9562	0.000355
332.1694	0.000967
332.3826	0.000418
332.5959	0.001431
332.8091	0.000250
333.0223	0.001621
333.2356	0.000967
333.4489	0.001494
333.6622	-0.000657
333.8755	0.000207
334.0888	-0.000046
334.3021	0.000186
334.5154	0.000376
334.7288	0.000503
334.9422	-0.000510
335.1555	0.000946
335.3689	0.000355
335.5823	0.000144
335.7958	0.001600
336.0092	0.000672
336.2227	-0.000088
336.4361	0.001199
336.6496	-0.000868
336.8631	-0.000447
337.0766	-0.000299
337.2901	0.000439
337.5036	0.000186
337.7172	0.000334
337.9307	0.000334
338.1443	-0.000615
338.3579	0.000693
338.5715	0.000355
338.7851	-0.000151
338.9987	0.000988
339.2124	0.000967
339.4260	-0.000763
339.6397	-0.000763
339.8533	0.000334
340.0670	-0.000109
340.2807	0.000566
340.4945	-0.000594
340.7082	0.000798
340.9219	0.000608
341.1357	0.001178
341.3495	-0.000278
341.5633	0.001642
341.7771	-0.001164
341.9909	0.000693
342.2047	-0.000088
342.4185	0.000503
342.6324	0.000081
342.8463	0.000418
343.0601	0.000039
343.2740	0.001136
343.4879	0.000819
343.7019	0.000207
343.9158	0.000123
344.1297	0.001389
344.3437	0.000524
344.5577	0.000756
344.7717	0.000566
344.9857	-0.000067
345.1997	0.000334
345.4137	0.000608
345.6277	0.001009
345.8418	-0.000425
346.0559	-0.000236
346.2699	0.001768
346.4840	0.000081
346.6981	0.001009
346.9123	0.001726
347.1264	0.000988
347.3406	-0.000025
347.5547	0.001684
347.7689	0.000988
347.9831	0.000418
348.1973	-0.000130
348.4115	0.000334
348.6257	-0.002092
348.8400	-0.000362
349.0542	-0.001016
349.2685	0.000060
349.4828	0.000672
349.6971	0.001642
349.9114	0.000186
350.1257	0.000439
350.3400	-0.000826
350.5544	0.001325
350.7687	-0.000657
350.9831	0.001431
351.1975	-0.000932
351.4119	0.000882
351.6263	-0.000172
351.8407	0.000503
352.0552	0.000967
352.2696	0.000946
352.4841	0.000355
352.6986	0.000229
352.9131	0.000904
353.1276	0.001283
353.3421	0.000144
353.5566	-0.000278
353.7712	0.000229
353.9858	-0.000172
354.2003	0.001009
354.4149	-0.000257
354.6295	0.000207
354.8441	0.001726
355.0588	0.000165
355.2734	-0.001100
355.4881	0.001431
355.7027	0.001452
355.9174	0.001136
356.1321	0.000186
356.3468	-0.000004
356.5615	0.000229
356.7763	0.001726
356.9910	0.000334
357.2058	0.000608
357.4206	0.000207
357.6353	0.000418
357.8501	-0.000510
358.0650	0.000882
358.2798	0.001853
358.4946	0.000777
358.7095	0.001030
358.9243	-0.001164
359.1392	-0.000320
359.3541	-0.000995
359.5690	0.000144
359.7839	0.000418
359.9989	0.001115
360.2138	-0.000067
360.4288	0.000988
360.6438	0.000840
360.8587	-0.000468
361.0737	-0.000109
361.2888	0.001199
361.5038	0.000904
361.7188	0.000144
361.9339	-0.000826
362.1489	0.000165
362.3640	0.000292
362.5791	0.000482
362.7942	0.000904
363.0093	-0.000890
363.2245	0.000229
363.4396	0.000904
363.6548	0.001389
363.8699	0.000882
364.0851	-0.000320
364.3003	-0.000025
364.5155	0.000081
364.7308	0.000418
364.9460	0.001115
365.1612	0.000545
365.3765	0.000819
365.5918	-0.000489
365.8071	0.000693
366.0224	-0.000278
366.2377	-0.000468
366.4530	0.000060
366.6684	0.000123
366.8837	-0.000151
367.0991	0.000418
367.3145	0.001621
367.5299	-0.000404
367.7453	0.001347
367.9607	0.001494
368.1761	0.000334
368.3916	0.000123
368.6070	0.000250
368.8225	0.000250
369.0380	0.001220
369.2535	0.000650
369.4690	0.000229
369.6845	0.000144
369.9001	0.001832
370.1156	0.001389
370.3312	0.000545
370.5468	0.000039
370.7624	-0.000299
370.9780	-0.000067
371.1936	-0.000299
371.4092	-0.001058
371.6249	0.001621
371.8405	0.000418
372.0562	0.000503
372.2719	0.001072
372.4876	0.001051
372.7033	0.000608
372.9190	0.000355
373.1348	0.002148
373.3505	0.001030
373.5663	0.000946
373.7820	-0.000193
373.9978	-0.001438
374.2136	0.000144
374.4294	0.000672
374.6453	0.000439
374.8611	0.000882
375.0770	0.000418
375.2928	0.000714
375.5087	-0.000742
375.7246	0.000250
375.9405	0.000735
376.1564	0.002465
376.3724	0.000207
376.5883	0.001009
376.8043	-0.000214
377.0203	-0.000299
377.2362	0.001157
377.4522	-0.000932
377.6682	0.000376
377.8843	0.000882
378.1003	-0.000088
378.3164	0.000207
378.5324	0.000861
378.7485	0.000693
378.9646	0.000672
379.1807	0.000123
379.3968	0.000524
379.6129	0.001325
379.8291	0.000735
380.0452	0.000461
380.2614	0.000650
380.4776	0.001347
380.6938	0.001473
380.9100	0.000882
381.1262	0.000566
381.3424	0.000207
381.5587	0.000714
381.7749	-0.000742
381.9912	0.002148
382.2075	0.000250
382.4238	0.000292
382.6401	0.000418
382.8564	0.001473
383.0728	0.000018
383.2891	0.000967
383.5055	0.000904
383.7219	0.000608
383.9382	0.000650
384.1546	0.000693
384.3711	0.000186
384.5875	0.001051
384.8039	-0.002366
385.0204	0.000418
385.2368	-0.000383
385.4533	0.001726
385.6698	-0.000257
385.8863	0.000946
386.1028	-0.000172
386.3194	0.001705
386.5359	0.000461
386.7525	0.001030
386.9690	0.000461
387.1856	-0.000447
387.4022	0.000229
387.6188	0.001600
387.8355	0.000461
388.0521	0.000545
388.2687	0.001600
388.4854	0.001684
388.7021	0.001093
388.9188	0.000229
389.1355	0.000060
389.3522	0.001072
389.5689	-0.000847
389.7856	0.001811
390.0024	0.000355
390.2192	0.001895
390.4359	0.000545
390.6527	0.000840
390.8695	0.000650
391.0863	0.000461
391.3032	-0.000004
391.5200	0.002570
391.7369	-0.000046
391.9537	0.000292
392.1706	-0.000636
392.3875	0.002000
392.6044	0.000735
392.8213	0.001368
393.0383	0.001895
393.2552	0.001621
393.4722	0.001347
393.6891	0.001072
393.9061	0.001853
394.1231	0.001072
394.3401	0.002254
394.5572	0.001979
394.7742	0.001199
394.9912	0.001558
395.2083	0.002950
395.4254	0.002043
395.6425	0.001199
395.8596	0.003583
396.0767	0.002190
396.2938	0.003076
396.5109	0.002190
396.7281	0.001958
396.9453	0.001705
397.1624	0.001494
397.3796	0.003224
397.5968	0.004005
397.8140	0.002886
398.0313	0.004152
398.2485	0.002443
398.4658	0.003119
398.6830	0.002043
398.9003	0.003372
399.1176	0.002570
399.3349	0.005038
399.5522	0.003224
399.7696	0.003140
399.9869	0.003329
400.2043	0.004005
400.4216	0.003414
400.6390	0.003772
400.8564	0.003498
401.0738	0.003836
401.2912	0.003203
401.5087	0.004722
401.7261	0.006241
401.9436	0.003857
402.1610	0.004342
402.3785	0.003920
402.5960	0.005397
402.8135	0.004595
403.0310	0.004553
403.2486	0.005123
403.4661	0.005460
403.6837	0.005798
403.9013	0.004110
404.1189	0.005186
404.3365	0.003540
404.5541	0.005671
404.7717	0.005776
404.9893	0.005776
405.2070	0.005270
405.4246	0.006135
405.6423	0.004722
405.8600	0.006747
406.0777	0.006810
406.2954	0.005629
406.5131	0.005355
406.7309	0.007359
406.9486	0.006388
407.1664	0.005228
407.3842	0.005397
407.6020	0.006452
407.8198	0.006219
408.0376	0.006958
408.2554	0.006177
408.4733	0.007738
408.6911	0.007422
408.9090	0.006979
409.1269	0.005144
409.3448	0.007401
409.5627	0.007042
409.7806	0.006810
409.9985	0.007380
410.2165	0.006177
410.4344	0.008139
410.6524	0.006241
410.8704	0.007021
411.0884	0.008456
411.3064	0.007274
411.5244	0.007654
411.7424	0.008350
411.9605	0.007464
412.1785	0.008034
412.3966	0.007527
412.6147	0.008730
412.8328	0.009658
413.0509	0.009616
413.2690	0.008097
413.4871	0.009299
413.7053	0.006831
413.9234	0.009721
414.1416	0.008350
414.3598	0.009299
414.5780	0.008856
414.7962	0.011135
415.0144	0.008034
415.2326	0.008856
415.4509	0.008688
415.6692	0.009384
415.8874	0.008519
416.1057	0.009384
416.3240	0.010881
416.5423	0.009194
416.7606	0.010059
416.9790	0.010818
417.1973	0.009974
417.4157	0.010544
417.6341	0.009595
417.8524	0.011050
418.0708	0.011135
418.2893	0.009447
418.5077	0.010860
418.7261	0.011388
418.9446	0.010860
419.1630	0.011219
419.3815	0.010881
419.6000	0.013160
419.8185	0.010502
420.0370	0.012253
420.2555	0.012485
420.4741	0.013033
420.6926	0.011810
420.9112	0.012442
421.1298	0.011240
421.3483	0.015438
421.5669	0.015522
421.7856	0.014425
422.0042	0.015754
422.2228	0.013582
422.4415	0.014088
422.6601	0.015944
422.8788	0.013328
423.0975	0.014615
423.3162	0.013603
423.5349	0.014278
423.7536	0.013392
423.9724	0.014151
424.1911	0.013497
424.4099	0.014003
424.6287	0.014446
424.8475	0.013582
425.0663	0.013750
425.2851	0.014003
425.5039	0.013729
425.7228	0.013708
425.9416	0.014425
426.1605	0.013202
426.3793	0.013877
426.5982	0.014383
426.8171	0.013961
427.0361	0.014130
427.2550	0.015058
427.4739	0.015712
427.6929	0.015733
427.9118	0.014700
428.1308	0.014510
428.3498	0.014214
428.5688	0.013223
428.7878	0.013877
429.0068	0.016514
429.2259	0.015691
429.4449	0.015016
429.6640	0.018180
429.8831	0.018222
430.1022	0.017104
430.3213	0.016493
430.5404	0.017969
430.7595	0.015797
430.9787	0.017653
431.1978	0.016324
431.4170	0.016957
431.6362	0.015860
431.8553	0.014193
432.0745	0.014721
432.2938	0.014700
432.5130	0.016345
432.7322	0.016155
432.9515	0.015354
433.1707	0.014995
433.3900	0.015396
433.6093	0.016577
433.8286	0.018750
434.0479	0.018391
434.2673	0.019108
434.4866	0.017358
434.7059	0.014404
434.9253	0.017421
435.1447	0.015628
435.3641	0.016176
435.5835	0.015375
435.8029	0.015902
436.0223	0.016429
436.2418	0.016746
436.4612	0.014531
436.6807	0.019362
436.9001	0.015586
437.1196	0.016851
437.3391	0.016387
437.5586	0.015839
437.7782	0.015733
437.9977	0.016176
438.2173	0.017864
438.4368	0.017969
438.6564	0.017526
438.8760	0.019235
439.0956	0.019467
439.3152	0.017547
439.5348	0.017927
439.7545	0.017758
439.9741	0.018455
440.1938	0.017041
440.4135	0.015396
440.6331	0.016408
440.8528	0.017716
441.0725	0.019994
441.2923	0.023285
441.5120	0.023770
441.7318	0.021914
441.9515	0.020859
442.1713	0.020037
442.3911	0.020058
442.6109	0.019425
442.8307	0.020606
443.0505	0.019551
443.2703	0.020121
443.4902	0.020163
443.7101	0.021176
443.9299	0.019741
444.1498	0.021598
444.3697	0.018497
444.5896	0.019362
444.8095	0.018349
445.0295	0.019214
445.2494	0.017990
445.4694	0.019847
445.6894	0.019783
445.9093	0.018792
446.1293	0.019256
446.3493	0.019826
446.5694	0.019847
446.7894	0.021155
447.0094	0.018813
447.2295	0.017885
447.4496	0.017505
447.6696	0.017927
447.8897	0.018750
448.1098	0.017590
448.3300	0.016999
448.5501	0.019024
448.7702	0.017569
448.9904	0.019024
449.2106	0.017147
449.4307	0.018244
449.6509	0.018054
449.8711	0.017062
450.0914	0.017758
450.3116	0.018307
450.5318	0.017885
450.7521	0.017400
450.9724	0.016683
451.1926	0.016303
451.4129	0.017273
451.6332	0.015797
451.8535	0.016577
452.0739	0.015058
452.2942	0.015797
452.5146	0.016704
452.7349	0.015670
452.9553	0.016830
453.1757	0.017547
453.3961	0.016767
453.6165	0.013413
453.8369	0.014172
454.0574	0.016282
454.2778	0.015712
454.4983	0.014468
454.7188	0.014657
454.9393	0.013160
455.1597	0.014594
455.3803	0.013286
455.6008	0.014657
455.8213	0.014320
456.0419	0.013244
456.2624	0.016176
456.4830	0.015691
456.7036	0.015227
456.9242	0.015670
457.1448	0.013814
457.3654	0.013582
457.5860	0.014425
457.8067	0.016092
458.0274	0.013814
458.2480	0.014679
458.4687	0.015649
458.6894	0.014446
458.9101	0.014784
459.1308	0.013771
459.3516	0.013413
459.5723	0.014826
459.7931	0.012991
460.0138	0.014573
460.2346	0.013139
460.4554	0.014278
460.6762	0.014826
460.8970	0.014278
461.1178	0.012949
461.3387	0.012590
461.5595	0.013033
461.7804	0.011135
462.0013	0.013328
462.2222	0.010481
462.4431	0.009742
462.6640	0.012210
462.8849	0.010396
463.1059	0.011767
463.3268	0.013075
463.5478	0.011156
463.7687	0.012379
463.9897	0.013202
464.2107	0.011641
464.4317	0.012210
464.6528	0.010945
464.8738	0.013392
465.0948	0.013054
465.3159	0.012295
465.5370	0.013793
465.7581	0.011303
465.9792	0.011915
466.2003	0.011683
466.4214	0.011050
466.6425	0.011388
466.8637	0.011704
467.0848	0.009426
467.3060	0.009468
467.5272	0.009574
467.7484	0.011746
467.9696	0.008814
468.1908	0.009405
468.4120	0.007253
468.6333	0.009109
468.8545	0.007907
469.0758	0.009405
469.2970	0.008624
469.5183	0.006979
469.7396	0.007127
469.9610	0.008139
470.1823	0.007485
470.4036	0.008181
470.6250	0.007359
470.8463	0.006831
471.0677	0.005713
471.2891	0.009679
471.5105	0.006367
471.7319	0.007485
471.9533	0.007717
472.1748	0.006831
472.3962	0.008266
472.6177	0.006895
472.8391	0.008371
473.0606	0.008181
473.2821	0.008181
473.5036	0.007591
473.7251	0.005819
473.9467	0.007886
474.1682	0.007338
474.3898	0.005186
474.6113	0.007991
474.8329	0.007443
475.0545	0.006747
475.2761	0.006051
475.4977	0.005861
475.7193	0.007380
475.9410	0.007548
476.1626	0.008308
476.3843	0.007105
476.6060	0.007000
476.8277	0.006895
477.0494	0.006747
477.2711	0.007042
477.4928	0.006198
477.7145	0.006536
477.9363	0.006051
478.1580	0.005755
478.3798	0.005966
478.6016	0.005312
478.8234	0.005734
479.0452	0.006452
479.2670	0.005629
479.4888	0.006494
479.7107	0.006641
479.9325	0.006009
480.1544	0.006367
480.3763	0.006620
480.5982	0.007105
480.8201	0.004890
481.0420	0.006241
481.2639	0.005755
481.4859	0.005312
481.7078	0.005017
481.9298	0.006051
482.1517	0.004848
482.3737	0.005692
482.5957	0.003161
482.8177	0.007021
483.0398	0.006367
483.2618	0.005629
483.4838	0.004658
483.7059	0.004131
483.9280	0.005692
484.1501	0.004996
484.3721	0.005755
484.5943	0.005882
484.8164	0.005460
485.0385	0.005987
485.2606	0.005017
485.4828	0.006705
485.7050	0.012337
485.9271	0.016767
486.1493	0.016451
486.3715	0.013518
486.5937	0.010291
486.8160	0.010713
487.0382	0.010122
487.2605	0.007654
487.4827	0.004300
487.7050	0.005059
487.9273	0.005123
488.1496	0.004827
488.3719	0.003815
488.5942	0.005291
488.8165	0.003583
489.0389	0.002844
489.2612	0.003540
489.4836	0.005165
489.7060	0.003372
489.9284	0.005502
490.1508	0.003203
490.3732	0.003351
490.5956	0.002929
490.8180	0.003815
491.0405	0.003772
491.2630	0.003667
491.4854	0.004131
491.7079	0.004553
491.9304	0.003308
492.1529	0.002000
492.3755	0.003140
492.5980	0.004448
492.8205	0.003646
493.0431	0.004848
493.2657	0.004426
493.4882	0.001811
493.7108	0.004532
493.9334	0.004490
494.1561	0.002929
494.3787	0.003604
494.6013	0.002633
494.8240	0.004490
495.0466	0.003140
495.2693	0.003836
495.4920	0.003393
495.7147	0.002338
495.9374	0.001579
496.1601	0.003245
496.3829	0.003224
496.6056	0.003878
496.8284	0.003329
497.0511	0.002654
497.2739	0.004321
497.4967	0.002908
497.7195	0.002992
497.9423	0.004131
498.1652	0.003161
498.3880	0.001684
498.6109	0.002654
498.8337	0.003794
499.0566	0.000735
499.2795	0.003055
499.5024	0.001979
499.7253	0.001705
499.9482	0.003604
500.1712	0.002823
500.3941	0.002591
500.6171	0.003477
500.8400	0.001494
501.0630	0.002844
501.2860	0.003308
501.5090	0.002718
501.7320	0.003245
501.9551	0.002802
502.1781	0.002148
502.4012	0.003730
502.6242	0.002443
502.8473	0.003224
503.0704	0.001558
503.2935	0.003414
503.5166	0.002760
503.7397	0.003393
503.9628	0.003161
504.1860	0.004785
504.4092	0.003836
504.6323	0.002190
504.8555	0.002528
505.0787	0.003709
505.3019	0.001937
505.5251	0.003962
505.7483	0.003351
505.9716	0.001895
506.1948	0.002275
506.4181	0.003498
506.6414	0.002190
506.8647	0.004342
507.0880	0.002929
507.3113	0.002971
507.5346	0.001347
507.7579	0.002718
507.9813	0.002022
508.2046	0.003119
508.4280	0.002254
508.6514	0.002929
508.8748	0.001030
509.0982	0.002528
509.3216	0.002633
509.5450	0.002992
509.7685	0.002359
509.9919	0.002908
510.2154	0.003245
510.4388	0.002739
510.6623	0.002908
510.8858	0.002802
511.1093	0.001937
511.3329	0.003562
511.5564	0.001515
511.7799	0.002254
512.0035	0.002317
512.2270	0.003709
512.4506	0.002401
512.6742	0.002886
512.8978	0.002022
513.1214	0.001494
513.3451	0.001979
513.5687	0.003055
513.7923	0.002127
514.0160	0.001874
514.2397	0.002022
514.4634	0.002338
514.6871	0.002823
514.9108	0.002275
515.1345	0.002422
515.3582	0.003308
515.5819	0.001431
515.8057	0.002254
516.0295	0.004068
516.2532	0.002317
516.4770	0.000714
516.7008	0.002781
516.9246	0.003034
517.1485	0.003203
517.3723	0.002422
517.5961	0.004173
517.8200	0.002654
518.0439	0.004258
518.2677	0.002612
518.4916	0.003477
518.7155	0.002317
518.9395	0.002338
519.1634	0.002549
519.3873	0.003772
519.6113	0.000819
519.8352	0.002064
520.0592	0.002739
520.2832	0.003920
520.5072	0.001262
520.7312	0.002169
520.9552	0.003435
521.1792	0.001452
521.4033	0.002865
521.6273	0.001452
521.8514	0.004490
522.0755	0.001979
522.2996	0.002654
522.5237	0.002844
522.7478	0.001579
522.9719	0.001262
523.1960	0.004448
523.4202	0.002570
523.6443	0.003751
523.8685	0.001811
524.0927	0.003287
524.3169	0.002950
524.5411	0.001874
524.7653	0.003836
524.9895	0.002570
525.2138	0.002844
525.4380	0.003182
525.6623	0.003920
525.8865	0.003836
526.1108	0.002823
526.3351	0.003857
526.5594	0.002950
526.7837	0.003540
527.0081	0.003498
527.2324	0.002338
527.4568	0.004005
527.6811	0.004068
527.9055	0.003688
528.1299	0.004637
528.3543	0.004469
528.5787	0.003498
528.8031	0.004426
529.0276	0.004616
529.2520	0.005882
529.4765	0.005924
529.7009	0.003308
529.9254	0.004448
530.1499	0.005144
530.3744	0.003857
530.5989	0.002233
530.8234	0.005144
531.0480	0.004215
531.2725	0.004089
531.4971	0.004258
531.7217	0.005460
531.9462	0.003055
532.1708	0.004384
532.3954	0.003224
532.6200	0.003034
532.8447	0.005418
533.0693	0.006177
533.2940	0.006304
533.5186	0.005966
533.7433	0.006283
533.9680	0.006494
534.1927	0.004912
534.4174	0.006620
534.6421	0.005861
534.8668	0.006262
535.0916	0.006009
535.3163	0.005924
535.5411	0.006705
535.7659	0.007127
535.9907	0.005798
536.2155	0.006979
536.4403	0.007633
536.6651	0.006494
536.8899	0.005629
537.1148	0.006072
537.3396	0.005882
537.5645	0.006578
537.7894	0.005439
538.0143	0.008034
538.2392	0.007105
538.4641	0.006831
538.6890	0.007781
538.9139	0.008582
539.1389	0.008034
539.3638	0.009531
539.5888	0.007907
539.8138	0.007169
540.0388	0.007949
540.2638	0.007485
540.4888	0.008287
540.7138	0.008624
540.9389	0.008624
541.1639	0.009426
541.3890	0.009932
541.6140	0.008709
541.8391	0.008814
542.0642	0.009152
542.2893	0.009848
542.5144	0.009447
542.7396	0.012189
542.9647	0.009637
543.1899	0.009658
543.4150	0.010713
543.6402	0.011135
543.8654	0.011388
544.0906	0.012042
544.3158	0.012126
544.5410	0.011599
544.7662	0.011409
544.9915	0.012843
545.2167	0.012253
545.4420	0.012021
545.6673	0.012232
545.8926	0.013561
546.1179	0.011704
546.3432	0.011831
546.5685	0.012147
546.7938	0.012316
547.0192	0.012506
547.2445	0.013476
547.4699	0.013898
547.6953	0.014236
547.9206	0.014932
548.1460	0.016514
548.3715	0.016197
548.5969	0.013539
548.8223	0.013877
549.0478	0.014594
549.2732	0.014594
549.4987	0.013371
549.7242	0.013961
549.9496	0.014362
550.1751	0.013687
550.4007	0.012738
550.6262	0.015016
550.8517	0.014721
551.0773	0.015206
551.3028	0.013434
551.5284	0.013750
551.7540	0.013075
551.9796	0.015565
552.2052	0.017126
552.4308	0.018665
552.6564	0.016767
552.8820	0.018898
553.1077	0.016936
553.3333	0.017526
553.5590	0.019235
553.7847	0.018307
554.0104	0.018665
554.2361	0.019045
554.4618	0.016915
554.6875	0.018687
554.9132	0.016408
555.1390	0.018687
555.3648	0.018222
555.5905	0.019657
555.8163	0.019847
556.0421	0.020733
556.2679	0.020902
556.4937	0.021872
556.7195	0.020522
556.9454	0.019130
557.1712	0.019003
557.3971	0.021745
557.6230	0.020796
557.8488	0.021956
558.0747	0.021429
558.3006	0.021112
558.5266	0.020395
558.7525	0.019530
558.9784	0.018138
559.2044	0.019657
559.4303	0.019066
559.6563	0.021302
559.8823	0.022209
560.1083	0.024045
560.3343	0.024171
560.5603	0.023222
560.7863	0.026175
561.0124	0.027947
561.2384	0.026175
561.4645	0.028432
561.6905	0.025353
561.9166	0.028011
562.1427	0.026175
562.3688	0.025437
562.5949	0.025458
562.8211	0.025057
563.0472	0.027842
563.2733	0.026492
563.4995	0.028200
563.7257	0.030289
563.9519	0.029698
564.1781	0.028369
564.4043	0.030879
564.6305	0.028918
564.8567	0.031238
565.0829	0.030373
565.3092	0.032462
565.5355	0.032799
565.7617	0.030373
565.9880	0.030668
566.2143	0.034107
566.4406	0.032082
566.6669	0.032377
566.8932	0.033685
567.1196	0.037862
567.3459	0.039739
567.5723	0.043262
567.7987	0.041954
568.0250	0.043494
568.2514	0.044211
568.4778	0.046300
568.7043	0.050920
568.9307	0.054316
569.1571	0.057438
569.3836	0.061319
569.6100	0.065306
569.8365	0.076339
570.0630	0.079988
570.2895	0.081845
570.5160	0.079693
570.7425	0.083574
570.9690	0.086760
571.1956	0.095514
571.4221	0.093763
571.6487	0.096780
571.8752	0.104058
572.1018	0.107285
572.3284	0.107243
572.5550	0.099164
572.7816	0.094987
573.0082	0.088616
573.2349	0.097371
573.4615	0.109943
573.6882	0.113740
573.9149	0.122241
574.1415	0.124435
574.3682	0.128528
574.5949	0.132873
574.8216	0.133358
575.0484	0.134076
575.2751	0.138695
575.5018	0.137556
575.7286	0.128865
575.9554	0.124920
576.1821	0.119752
576.4089	0.125195
576.6357	0.131481
576.8626	0.140931
577.0894	0.143125
577.3162	0.144918
577.5431	0.153167
577.7699	0.167448
577.9968	0.196917
578.2237	0.189007
578.4505	0.179598
578.6774	0.166182
578.9044	0.154517
579.1313	0.147998
579.3582	0.150087
579.5851	0.157955
579.8121	0.161710
580.0391	0.162280
580.2660	0.162554
580.4930	0.164051
580.7200	0.154685
580.9470	0.162427
581.1741	0.190188
581.4011	0.232441
581.6281	0.248431
581.8552	0.253599
582.0822	0.249908
582.3093	0.235922
582.5364	0.218350
582.7635	0.203119
582.9906	0.187847
583.2177	0.173460
583.4449	0.161457
583.6720	0.150487
583.8991	0.145572
584.1263	0.145762
584.3535	0.149855
584.5807	0.148779
584.8079	0.166941
585.0351	0.176919
585.2623	0.182657
585.4895	0.184303
585.7167	0.181877
585.9440	0.181624
586.1713	0.173586
586.3985	0.160908
586.6258	0.150551
586.8531	0.159031
587.0804	0.168292
587.3077	0.174430
587.5350	0.180632
587.7624	0.178755
587.9897	0.170401
588.2171	0.161752
588.4445	0.156183
588.6718	0.156331
588.8992	0.149074
589.1266	0.137620
589.3540	0.131523
589.5815	0.127199
589.8089	0.127410
590.0363	0.124731
590.2638	0.121503
590.4913	0.118128
590.7187	0.115449
590.9462	0.106694
591.1737	0.104901
591.4012	0.102243
591.6288	0.101252
591.8563	0.102539
592.0838	0.104163
592.3114	0.105576
592.5389	0.120322
592.7665	0.144159
592.9941	0.157196
593.2217	0.160381
593.4493	0.158651
593.6769	0.157090
593.9046	0.156521
594.1322	0.144750
594.3598	0.132219
594.5875	0.134160
594.8152	0.141670
595.0429	0.152133
595.2705	0.153546
595.4983	0.149264
595.7260	0.145066
595.9537	0.135848
596.1814	0.129477
596.4092	0.122516
596.6369	0.115132
596.8647	0.112896
597.0925	0.116187
597.3203	0.120132
597.5481	0.121651
597.7759	0.120575
598.0037	0.113825
598.2315	0.111799
598.4594	0.112559
598.6872	0.119921
598.9151	0.140805
599.1430	0.148631
599.3709	0.145551
599.5988	0.140805
599.8267	0.140763
600.0546	0.143800
600.2825	0.145825
600.5105	0.144391
600.7384	0.143611
600.9664	0.150403
601.1944	0.151500
601.4223	0.145383
601.6503	0.140256
601.8783	0.135784
602.1064	0.132578
602.3344	0.131270
602.5624	0.132894
602.7905	0.135257
603.0185	0.137577
603.2466	0.144180
603.4747	0.154242
603.7028	0.150783
603.9309	0.146311
604.1590	0.139771
604.3871	0.135510
604.6152	0.127199
604.8434	0.128359
605.0715	0.122030
605.2997	0.126756
605.5279	0.132979
605.7561	0.137641
605.9843	0.141712
606.2125	0.138527
606.4407	0.129962
606.6689	0.127241
606.8972	0.124731
607.1254	0.124351
607.3537	0.126545
607.5819	0.127494
607.8102	0.125005
608.0385	0.123106
608.2668	0.119837
608.4951	0.118740
608.7235	0.116272
608.9518	0.114457
609.1801	0.110534
609.4085	0.107074
609.6369	0.105682
609.8653	0.110281
610.0936	0.120090
610.3220	0.121925
610.5505	0.117811
610.7789	0.112917
611.0073	0.111863
611.2357	0.108741
611.4642	0.109690
611.6927	0.112137
611.9211	0.111399
612.1496	0.104796
612.3781	0.106188
612.6066	0.099585
612.8351	0.100450
613.0637	0.103425
613.2922	0.100682
613.5208	0.102054
613.7493	0.102771
613.9779	0.100345
614.2065	0.103931
614.4351	0.101632
614.6637	0.100788
614.8923	0.101611
615.1209	0.100577
615.3495	0.103425
615.5782	0.105914
615.8068	0.108931
616.0355	0.102138
616.2642	0.095788
616.4929	0.094248
616.7216	0.088110
616.9503	0.088342
617.1790	0.088785
617.4077	0.089228
617.6365	0.087203
617.8652	0.090325
618.0940	0.089186
618.3227	0.087161
618.5515	0.082140
618.7803	0.076529
619.0091	0.075516
619.2379	0.074082
619.4667	0.072732
619.6956	0.073069
619.9244	0.076761
620.1533	0.079461
620.3821	0.079693
620.6110	0.076233
620.8399	0.072647
621.0688	0.063956
621.2977	0.060265
621.5266	0.058535
621.7556	0.060286
621.9845	0.067163
622.2135	0.066509
622.4424	0.067310
622.6714	0.067922
622.9004	0.068555
623.1294	0.067732
623.3584	0.069378
623.5874	0.073027
623.8164	0.070664
624.0454	0.072225
624.2745	0.070707
624.5035	0.072689
624.7326	0.074947
624.9617	0.073301
625.1908	0.069757
625.4199	0.069103
625.6490	0.066593
625.8781	0.065327
626.1072	0.063956
626.3364	0.062121
626.5655	0.059885
626.7947	0.055054
627.0238	0.057649
627.2530	0.057902
627.4822	0.055982
627.7114	0.060497
627.9406	0.054548
628.1698	0.052059
628.3991	0.050223
628.6283	0.046553
628.8576	0.048283
629.0868	0.048557
629.3161	0.050477
629.5454	0.050983
629.7747	0.050498
630.0040	0.049021
630.2333	0.049274
630.4626	0.046616
630.6920	0.048198
630.9213	0.046026
631.1507	0.046279
631.3801	0.044254
631.6094	0.041195
631.8388	0.044465
632.0682	0.043979
632.2976	0.042250
632.5271	0.041448
632.7565	0.039022
632.9859	0.037292
633.2154	0.035795
633.4448	0.036533
633.6743	0.036554
633.9038	0.036132
634.1333	0.035562
634.3628	0.034444
634.5923	0.034128
634.8218	0.034065
635.0514	0.032293
635.2809	0.032040
635.5105	0.034845
635.7400	0.035119
635.9696	0.035562
636.1992	0.036322
636.4288	0.037820
636.6584	0.038853
636.8880	0.036913
637.1177	0.034508
637.3473	0.034782
637.5770	0.032778
637.8066	0.033305
638.0363	0.034149
638.2660	0.033453
638.4957	0.036132
638.7254	0.035225
638.9551	0.035647
639.1848	0.032504
639.4145	0.033685
639.6443	0.031314
639.8740	0.032799
640.1038	0.031268
640.3336	0.029097
640.5633	0.031383
640.7931	0.028867
641.0229	0.028317
641.2528	0.029470
641.4826	0.026153
641.7124	0.027876
641.9423	0.026052
642.1721	0.025858
642.4020	0.025002
642.6319	0.023367
642.8617	0.023724
643.0916	0.025050
643.3216	0.025393
643.5515	0.025536
643.7814	0.024276
644.0113	0.024859
644.2413	0.024826
644.4712	0.024406
644.7012	0.021565
644.9312	0.022887
645.1612	0.022725
645.3912	0.023071
645.6212	0.021097
645.8512	0.022452
646.0812	0.021979
646.3113	0.021537
646.5413	0.021869
646.7714	0.021227
647.0015	0.020194
647.2316	0.019909
647.4616	0.020424
647.6918	0.021551
647.9219	0.021756
648.1520	0.023212
648.3821	0.023744
648.6123	0.026444
648.8424	0.028723
649.0726	0.026372
649.3028	0.028228
649.5329	0.028996
649.7631	0.028702
649.9933	0.026537
650.2236	0.024872
650.4538	0.024955
650.6840	0.024393
650.9143	0.022950
651.1445	0.023685
651.3748	0.022869
651.6051	0.024276
651.8354	0.025484
652.0657	0.025342
652.2960	0.024882
652.5263	0.024604
652.7566	0.025337
652.9870	0.025531
653.2173	0.027227
653.4477	0.028045
653.6780	0.027402
653.9084	0.027999
654.1388	0.029537
654.3692	0.027995
654.5996	0.030000
654.8300	0.034062
655.0605	0.047303
655.2909	0.131378
655.5213	0.394320
655.7518	0.790090
655.9823	1.000000
656.2128	1.000000
656.4433	1.000000
656.6738	1.000000
656.9043	0.890855
657.1348	0.707511
657.3653	0.580326
657.5959	0.490316
657.8264	0.426673
658.0570	0.387246
658.2875	0.359644
658.5181	0.320524
658.7487	0.300194
658.9793	0.285957
659.2099	0.239224
659.4406	0.166412
659.6712	0.101466
659.9018	0.058500
660.1325	0.040606
660.3632	0.026149
660.5938	0.023109
660.8245	0.021742
661.0552	0.019969
661.2859	0.018685
661.5166	0.019422
661.7474	0.020041
661.9781	0.019334
662.2088	0.018502
662.4396	0.018239
662.6704	0.019432
662.9011	0.019925
663.1319	0.019771
663.3627	0.019260
663.5935	0.016106
663.8243	0.017295
664.0552	0.018113
664.2860	0.019043
664.5168	0.018335
664.7477	0.018037
664.9786	0.019022
665.2094	0.021454
665.4403	0.020420
665.6712	0.020846
665.9021	0.018859
666.1330	0.019785
666.3640	0.019937
666.5949	0.018684
666.8259	0.017692
667.0568	0.018204
667.2878	0.016206
667.5188	0.018374
667.7497	0.019068
667.9807	0.018299
668.2117	0.016486
668.4428	0.017421
668.6738	0.018054
668.9048	0.017590
669.1359	0.017632
669.3669	0.016577
669.5980	0.019362
669.8291	0.018813
670.0602	0.018265
670.2913	0.020142
670.5224	0.017569
670.7535	0.019509
670.9846	0.018497
671.2157	0.018539
671.4469	0.021007
671.6781	0.021935
671.9092	0.026196
672.1404	0.028179
672.3716	0.029466
672.6028	0.030816
672.8340	0.028791
673.0652	0.027441
673.2964	0.024888
673.5277	0.026745
673.7589	0.024720
673.9902	0.023138
674.2214	0.023538
674.4527	0.022568
674.6840	0.021914
674.9153	0.021513
675.1466	0.022441
675.3779	0.021830
675.6093	0.020965
675.8406	0.021513
676.0719	0.020796
676.3033	0.020965
676.5347	0.019551
676.7661	0.020226
676.9974	0.016704
677.2288	0.020374
677.4602	0.020416
677.6917	0.023391
677.9231	0.023306
678.1545	0.022420
678.3860	0.024888
678.6174	0.027230
678.8489	0.025542
679.0804	0.025078
679.3119	0.027441
679.5434	0.030331
679.7749	0.029550
680.0064	0.031343
680.2379	0.029572
680.4694	0.029487
680.7010	0.030584
680.9325	0.027673
681.1641	0.027631
681.3957	0.028960
681.6273	0.028833
681.8589	0.029445
682.0905	0.026703
682.3221	0.027947
682.5537	0.024741
682.7854	0.025585
683.0170	0.025078
683.2487	0.025099
683.4803	0.023517
683.7120	0.026217
683.9437	0.026154
684.1754	0.026871
684.4071	0.029761
684.6388	0.031618
684.8705	0.031048
685.1023	0.034086
685.3340	0.034107
685.5658	0.037588
685.7975	0.037630
686.0293	0.038220
686.2611	0.036491
686.4929	0.036491
686.7247	0.035963
686.9565	0.035246
687.1883	0.035056
687.4202	0.037545
687.6520	0.035963
687.8838	0.033073
688.1157	0.033474
688.3476	0.031196
688.5795	0.031829
688.8114	0.031280
689.0433	0.030479
689.2752	0.029255
689.5071	0.029044
689.7390	0.030816
689.9710	0.027800
690.2029	0.028517
690.4349	0.029086
690.6669	0.027652
690.8988	0.029487
691.1308	0.033411
691.3628	0.032398
691.5948	0.031976
691.8269	0.032440
692.0589	0.031280
692.2909	0.030922
692.5230	0.031175
692.7550	0.031322
692.9871	0.031533
693.2192	0.031343
693.4513	0.032609
693.6834	0.030268
693.9155	0.030858
694.1476	0.030985
694.3797	0.027968
694.6119	0.026808
694.8440	0.027568
695.0762	0.027082
695.3083	0.028686
695.5405	0.028011
695.7727	0.024994
696.0049	0.023454
696.2371	0.025078
696.4693	0.025416
696.7016	0.029297
696.9338	0.032335
697.1660	0.033791
697.3983	0.033727
697.6306	0.031449
697.8628	0.030858
698.0951	0.032019
698.3274	0.033601
698.5597	0.031597
698.7920	0.031365
699.0243	0.030816
699.2567	0.029719
699.4890	0.030964
699.7214	0.029719
699.9537	0.028032
700.1861	0.025479
700.4185	0.026196
700.6509	0.024656
700.8833	0.025922
701.1157	0.023876
701.3481	0.022884
701.5806	0.023960
701.8130	0.024403
702.0454	0.024319
702.2779	0.024804
702.5104	0.024888
702.7429	0.025437
702.9753	0.025458
703.2078	0.023327
703.4403	0.022484
703.6729	0.023559
703.9054	0.022884
704.1379	0.022083
704.3705	0.023285
704.6030	0.023623
704.8356	0.021366
705.0682	0.019573
705.3008	0.020501
705.5334	0.019805
705.7660	0.020269
705.9986	0.023095
706.2312	0.021851
706.4638	0.025374
706.6965	0.026977
706.9291	0.030711
707.1618	0.032504
707.3945	0.032187
707.6272	0.033833
707.8599	0.031597
708.0926	0.029888
708.3253	0.031913
708.5580	0.031491
708.7907	0.032651
709.0235	0.031280
709.2562	0.026871
709.4890	0.028812
709.7217	0.026597
709.9545	0.027314
710.1873	0.028707
710.4201	0.027335
710.6529	0.028074
710.8857	0.029171
711.1186	0.027399
711.3514	0.027926
711.5842	0.023644
711.8171	0.026154
712.0500	0.024087
712.2828	0.021640
712.5157	0.024319
712.7486	0.024656
712.9815	0.024298
713.2144	0.025331
713.4474	0.023644
713.6803	0.027546
713.9132	0.026449
714.1462	0.028158
714.3791	0.029572
714.6121	0.028643
714.8451	0.029529
715.0781	0.029445
715.3111	0.030415
715.5441	0.029972
715.7771	0.026639
716.0102	0.028643
716.2432	0.026154
716.4762	0.025310
716.7093	0.024973
716.9424	0.025310
717.1754	0.022294
717.4085	0.023876
717.6416	0.022610
717.8747	0.021555
718.1078	0.025353
718.3410	0.024213
718.5741	0.023222
718.8072	0.024087
719.0404	0.022294
719.2736	0.024741
719.5067	0.023285
719.7399	0.024171
719.9731	0.024298
720.2063	0.024509
720.4395	0.024614
720.6727	0.024720
720.9060	0.022716
721.1392	0.025690
721.3725	0.025205
721.6057	0.024783
721.8390	0.024867
722.0723	0.023918
722.3055	0.024656
722.5388	0.025711
722.7721	0.022589
723.0055	0.022927
723.2388	0.022484
723.4721	0.022526
723.7055	0.023792
723.9388	0.023370
724.1722	0.024002
724.4056	0.024108
724.6389	0.022357
724.8723	0.022842
725.1057	0.027209
725.3391	0.025817
725.5726	0.026323
725.8060	0.028875
726.0394	0.027778
726.2729	0.028411
726.5063	0.028158
726.7398	0.028032
726.9733	0.026829
727.2068	0.028264
727.4403	0.026513
727.6738	0.028137
727.9073	0.026703
728.1408	0.028390
728.3743	0.028707
728.6079	0.028179
728.8414	0.028686
729.0750	0.026871
729.3086	0.028411
729.5421	0.030985
729.7757	0.031006
730.0093	0.031681
730.2429	0.030626
730.4766	0.031871
730.7102	0.031533
730.9438	0.035710
731.1775	0.034402
731.4111	0.036470
731.6448	0.035710
731.8785	0.035963
732.1122	0.035162
732.3458	0.034487
732.5795	0.033348
732.8133	0.035373
733.0470	0.036343
733.2807	0.034972
733.5145	0.036554
733.7482	0.036385
733.9820	0.040731
734.2157	0.043789
734.4495	0.044254
734.6833	0.042186
734.9171	0.039929
735.1509	0.038009
735.3847	0.041701
735.6185	0.039191
735.8524	0.038242
736.0862	0.040288
736.3201	0.038495
736.5539	0.040689
736.7878	0.039170
737.0217	0.041427
737.2556	0.039908
737.4895	0.040562
737.7234	0.036849
737.9573	0.035605
738.1912	0.036216
738.4252	0.034381
738.6591	0.032651
738.8931	0.036427
739.1271	0.034592
739.3610	0.038347
739.5950	0.038790
739.8290	0.037777
740.0630	0.037946
740.2970	0.036174
740.5310	0.033284
740.7651	0.034297
740.9991	0.030711
741.2332	0.031702
741.4672	0.030605
741.7013	0.029403
741.9354	0.028601
742.1695	0.028179
742.4036	0.028264
742.6377	0.029150
742.8718	0.030078
743.1059	0.028981
743.3400	0.027209
743.5742	0.025859
743.8083	0.025036
744.0425	0.027082
744.2767	0.024340
744.5108	0.024635
744.7450	0.023285
744.9792	0.026260
745.2134	0.024403
745.4477	0.024488
745.6819	0.023306
745.9161	0.024235
746.1504	0.023855
746.3846	0.023834
746.6189	0.023770
746.8532	0.022188
747.0874	0.024066
747.3217	0.025648
747.5560	0.027019
747.7903	0.025563
748.0247	0.026471
748.2590	0.024741
748.4933	0.021998
748.7277	0.023180
748.9620	0.023517
749.1964	0.025395
749.4308	0.026597
749.6652	0.028137
749.8995	0.031048
750.1339	0.032293
750.3684	0.032208
750.6028	0.033959
750.8372	0.031976
751.0717	0.032947
751.3061	0.032187
751.5406	0.031681
751.7750	0.033411
752.0095	0.035415
752.2440	0.032504
752.4785	0.031491
752.7130	0.031280
752.9475	0.029023
753.1820	0.027884
753.4166	0.032567
753.6511	0.034191
753.8856	0.034508
754.1202	0.034381
754.3548	0.032124
754.5894	0.034212
754.8239	0.035584
755.0585	0.031597
755.2931	0.034613
755.5278	0.036427
755.7624	0.037313
755.9970	0.036554
756.2317	0.035520
756.4663	0.040372
756.7010	0.042629
756.9356	0.039254
757.1703	0.044359
757.4050	0.046511
757.6397	0.050266
757.8744	0.051363
758.1091	0.049169
758.3438	0.045604
758.5786	0.044317
758.8133	0.042292
759.0481	0.044971
759.2828	0.047861
759.5176	0.050898
759.7524	0.052333
759.9872	0.049337
760.2220	0.050055
760.4568	0.053451
760.6916	0.054105
760.9264	0.052945
761.1613	0.051595
761.3961	0.048494
761.6310	0.043114
761.8658	0.040098
762.1007	0.041342
762.3356	0.040604
762.5705	0.039549
762.8054	0.040562
763.0403	0.038811
763.2752	0.040351
763.5101	0.043410
763.7450	0.041026
763.9800	0.041068
764.2149	0.041110
764.4499	0.044844
764.6849	0.046679
764.9198	0.048030
765.1548	0.050835
765.3898	0.048072
765.6248	0.045266
765.8599	0.046089
766.0949	0.042165
766.3299	0.041047
766.5650	0.036617
766.8000	0.035309
767.0351	0.032841
767.2701	0.031913
767.5052	0.032926
767.7403	0.031618
767.9754	0.034571
768.2105	0.033727
768.4456	0.037841
768.6808	0.038178
768.9159	0.038242
769.1510	0.037820
769.3862	0.040119
769.6214	0.040921
769.8565	0.036617
770.0917	0.036617
770.3269	0.039486
770.5621	0.037799
770.7973	0.040541
771.0325	0.041279
771.2677	0.041912
771.5030	0.039929
771.7382	0.038516
771.9735	0.035837
772.2087	0.034381
772.4440	0.032546
772.6793	0.034993
772.9146	0.033179
773.1499	0.032356
773.3852	0.032356
773.6205	0.031407
773.8558	0.031470
774.0911	0.030774
774.3265	0.029888
774.5618	0.025774
774.7972	0.025500
775.0326	0.023159
775.2679	0.026914
775.5033	0.026492
775.7387	0.023032
775.9741	0.023138
776.2095	0.021492
776.4450	0.020902
776.6804	0.022948
776.9158	0.020754
777.1513	0.020691
777.3868	0.019868
777.6222	0.020374
777.8577	0.020796
778.0932	0.021745
778.3287	0.019615
778.5642	0.022737
778.7997	0.023602
779.0352	0.024024
779.2707	0.025099
779.5063	0.026703
779.7418	0.026028
779.9774	0.025479
780.2130	0.024066
780.4485	0.024171
780.6841	0.021239
780.9197	0.026133
781.1553	0.027146
781.3909	0.027441
781.6265	0.029993
781.8622	0.027947
782.0978	0.028538
782.3335	0.028390
782.5691	0.028158
782.8048	0.030542
783.0405	0.028517
783.2761	0.029403
783.5118	0.028601
783.7475	0.030647
783.9832	0.030057
784.2190	0.025922
784.4547	0.027589
784.6904	0.024361
784.9262	0.024171
785.1619	0.023264
785.3977	0.023728
785.6335	0.024804
785.8692	0.023475
786.1050	0.024192
786.3408	0.022252
786.5766	0.024720
786.8124	0.023095
787.0483	0.023602
787.2841	0.023876
787.5199	0.024488
787.7558	0.026787
787.9917	0.024108
788.2275	0.025374
788.4634	0.024888
788.6993	0.026323
788.9352	0.026766
789.1711	0.026639
789.4070	0.023834
789.6429	0.022610
789.8789	0.023116
790.1148	0.021851
790.3507	0.023749
790.5867	0.021070
790.8227	0.020817
791.0586	0.019720
791.2946	0.019193
791.5306	0.019636
791.7666	0.018602
792.0026	0.020332
792.2387	0.019066
792.4747	0.019889
792.7107	0.017147
792.9468	0.017083
793.1828	0.018518
793.4189	0.018834
793.6550	0.019319
793.8910	0.020353
794.1271	0.024678
794.3632	0.025774
794.5993	0.026428
794.8355	0.028243
795.0716	0.026133
795.3077	0.028960
795.5439	0.026365
795.7800	0.025310
796.0162	0.026175
796.2523	0.021534
796.4885	0.020437
796.7247	0.019087
796.9609	0.019277
797.1971	0.020121
797.4333	0.018391
797.6695	0.022020
797.9058	0.020838
798.1420	0.019826
798.3783	0.019446
798.6145	0.019277
798.8508	0.017779
799.0871	0.017948
799.3233	0.019868
799.5596	0.019087
799.7959	0.018539
800.0322	0.017020
800.2686	0.016746
800.5049	0.017653
800.7412	0.015607
800.9776	0.015944
801.2139	0.013476
801.4503	0.015607
801.6867	0.015649
801.9230	0.015143
802.1594	0.013328
802.3958	0.013518
802.6322	0.014172
802.8686	0.014594
803.1051	0.013139
803.3415	0.014489
803.5779	0.014636
803.8144	0.015565
804.0508	0.013877
804.2873	0.014974
804.5238	0.013118
804.7603	0.014257
804.9968	0.016029
805.2333	0.014615
805.4698	0.015691
805.7063	0.015965
805.9428	0.016640
806.1794	0.018054
806.4159	0.021134
806.6525	0.019404
806.8890	0.021345
807.1256	0.017948
807.3622	0.018982
807.5988	0.018328
807.8354	0.019868
808.0720	0.018729
808.3086	0.019488
808.5452	0.018665
808.7818	0.018539
809.0185	0.019362
809.2551	0.018560
809.4918	0.017062
809.7284	0.019973
809.9651	0.017062
810.2018	0.016197
810.4385	0.015058
810.6752	0.014193
810.9119	0.016218
811.1486	0.014552
811.3853	0.016915
811.6221	0.014953
811.8588	0.015733
812.0956	0.013328
812.3323	0.011388
812.5691	0.013350
812.8059	0.011873
813.0427	0.011789
813.2795	0.012464
813.5163	0.013708
813.7531	0.015944
813.9899	0.017906
814.2267	0.015902
814.4636	0.016050
814.7004	0.013666
814.9373	0.015860
815.1742	0.012295
815.4110	0.013455
815.6479	0.012316
815.8848	0.011578
816.1217	0.013497
816.3586	0.012527
816.5955	0.012442
816.8324	0.013139
817.0694	0.012907
817.3063	0.010396
817.5433	0.013371
817.7802	0.011852
818.0172	0.012189
818.2542	0.012021
818.4912	0.011367
818.7282	0.009869
818.9652	0.010818
819.2022	0.012316
819.4392	0.010776
819.6762	0.010797
819.9133	0.009700
820.1503	0.009426
820.3874	0.012316
820.6244	0.012611
820.8615	0.013539
821.0986	0.011472
821.3357	0.013582
821.5727	0.012970
821.8099	0.011008
822.0470	0.012611
822.2841	0.011367
822.5212	0.009721
822.7584	0.011388
822.9955	0.010734
823.2327	0.009131
823.4698	0.010460
823.7070	0.009046
823.9442	0.008877
824.1814	0.009257
824.4186	0.010122
824.6558	0.011219
824.8930	0.009531
825.1302	0.010375
825.3675	0.010755
825.6047	0.010818
825.8419	0.011789
826.0792	0.010080
826.3165	0.010713
826.5537	0.010671
826.7910	0.010797
827.0283	0.010228
827.2656	0.012063
827.5029	0.012400
827.7402	0.012527
827.9776	0.010417
828.2149	0.009869
828.4522	0.011282
828.6896	0.008624
828.9270	0.010101
829.1643	0.009995
829.4017	0.011282
829.6391	0.011071
829.8765	0.009848
830.1139	0.009974
830.3513	0.008287
830.5887	0.009531
830.8261	0.009236
831.0636	0.007084
831.3010	0.008308
831.5385	0.006937
831.7759	0.007633
832.0134	0.008013
832.2509	0.005144
832.4884	0.007042
832.7259	0.006916
832.9634	0.007506
833.2009	0.007042
833.4384	0.008877
833.6759	0.007485
833.9135	0.008202
834.1510	0.010291
834.3886	0.008013
834.6261	0.010839
834.8637	0.009806
835.1013	0.007928
835.3389	0.008772
835.5765	0.007823
835.8141	0.008603
836.0517	0.007928
836.2893	0.008097
836.5269	0.007717
836.7646	0.004996
837.0022	0.005882
837.2399	0.005629
837.4775	0.006662
837.7152	0.004912
837.9529	0.007063
838.1906	0.005059
838.4283	0.006114
838.6660	0.005755
838.9037	0.004912
839.1414	0.004912
839.3791	0.007464
839.6169	0.007000
839.8546	0.006473
840.0924	0.005734
840.3302	0.005903
840.5679	0.006726
840.8057	0.006241
841.0435	0.003899
841.2813	0.007253
841.5191	0.003794
841.7569	0.005270
841.9947	0.005080
842.2326	0.004363
842.4704	0.004026
842.7082	0.005165
842.9461	0.004490
843.1840	0.004511
843.4218	0.004342
843.6597	0.004068
843.8976	0.004933
844.1355	0.005291
844.3734	0.003519
844.6113	0.005123
844.8492	0.004110
845.0872	0.004616
845.3251	0.003245
845.5631	0.004131
845.8010	0.004152
846.0390	0.005587
846.2770	0.004637
846.5149	0.004321
846.7529	0.003329
846.9909	0.004405
847.2289	0.004131
847.4669	0.003119
847.7050	0.004616
847.9430	0.004869
848.1810	0.002781
848.4191	0.004743
848.6571	0.003941
848.8952	0.003540
849.1333	0.003730
849.3713	0.004300
849.6094	0.004089
849.8475	0.003562
850.0856	0.003372
850.3237	0.003013
850.5619	0.004047
850.8000	0.003983
851.0381	0.004131
851.2763	0.002865
851.5144	0.005059
851.7526	0.003688
851.9908	0.004511
852.2289	0.005460
852.4671	0.006473
852.7053	0.008076
852.9435	0.009131
853.1817	0.010438
853.4200	0.009953
853.6582	0.012907
853.8964	0.011113
854.1347	0.013497
854.3729	0.011662
854.6112	0.012084
854.8495	0.012126
855.0877	0.012527
855.3260	0.009194
855.5643	0.011367
855.8026	0.009827
856.0409	0.010586
856.2792	0.009911
856.5176	0.009848
856.7559	0.008434
856.9942	0.009088
857.2326	0.009806
857.4710	0.010291
857.7093	0.010671
857.9477	0.008751
858.1861	0.008055
858.4245	0.008371
858.6629	0.006599
858.9013	0.009131
859.1397	0.006979
859.3781	0.007717
859.6166	0.008350
859.8550	0.007148
860.0935	0.005776
860.3319	0.008181
860.5704	0.007380
860.8089	0.006156
861.0473	0.004954
861.2858	0.004890
861.5243	0.005312
861.7628	0.005165
862.0013	0.005924
862.2399	0.006620
862.4784	0.004532
862.7169	0.005397
862.9555	0.004806
863.1940	0.006536
863.4326	0.004743
863.6712	0.007696
863.9098	0.005987
864.1483	0.005101
864.3869	0.005734
864.6255	0.006852
864.8642	0.004658
865.1028	0.005376
865.3414	0.003709
865.5800	0.003477
865.8187	0.003498
866.0573	0.003245
866.2960	0.004005
866.5347	0.005460
866.7733	0.005439
867.0120	0.003393
867.2507	0.003751
867.4894	0.004258
867.7281	0.003604
867.9669	0.005418
868.2056	0.004996
868.4443	0.005144
868.6831	0.005650
868.9218	0.004595
869.1606	0.004701
869.3993	0.003730
869.6381	0.003878
869.8769	0.003751
870.1157	0.003878
870.3545	0.003540
870.5933	0.004258
870.8321	0.006831
871.0709	0.004680
871.3097	0.004933
871.5486	0.004743
871.7874	0.004848
872.0263	0.002549
872.2651	0.004996
872.5040	0.003899
872.7429	0.003477
872.9818	0.005966
873.2207	0.004384
873.4596	0.003013
873.6985	0.004469
873.9374	0.004595
874.1763	0.003920
874.4153	0.005734
874.6542	0.005987
874.8932	0.002612
875.1321	0.005608
875.3711	0.005523
875.6101	0.004996
875.8491	0.005460
876.0880	0.003772
876.3270	0.005312
876.5661	0.004215
876.8051	0.004954
877.0441	0.005270
877.2831	0.003794
877.5222	0.004616
877.7612	0.007295
878.0003	0.003857
878.2393	0.007485
878.4784	0.006409
878.7175	0.005650
878.9566	0.006430
879.1957	0.006177
879.4348	0.005966
879.6739	0.007127
879.9130	0.005924
880.1521	0.008287
880.3913	0.005903
880.6304	0.005903
880.8696	0.007591
881.1087	0.007316
881.3479	0.007274
881.5871	0.007063
881.8262	0.005840
882.0654	0.004806
882.3046	0.004595
882.5438	0.006009
882.7831	0.005059
883.0223	0.004321
883.2615	0.005945
883.5007	0.005059
883.7400	0.004848
883.9792	0.003224
884.2185	0.004321
884.4578	0.005144
884.6971	0.005460
884.9363	0.005144
885.1756	0.005101
885.4149	0.004806
885.6542	0.005903
885.8936	0.005840
886.1329	0.005587
886.3722	0.004237
886.6116	0.003983
886.8509	0.006388
887.0903	0.005123
887.3296	0.004869
887.5690	0.004131
887.8084	0.004701
888.0478	0.004933
888.2872	0.004553
888.5266	0.004532
888.7660	0.005312
889.0054	0.003498
889.2448	0.005798
889.4843	0.003815
889.7237	0.004194
889.9632	0.005502
890.2026	0.002507
890.4421	0.004490
890.6816	0.003899
890.9211	0.004722
891.1606	0.005355
891.4001	0.002338
891.6396	0.004469
891.8791	0.004258
892.1186	0.004089
892.3581	0.004996
892.5977	0.004363
892.8372	0.004658
893.0768	0.005650
893.3163	0.002844
893.5559	0.004258
893.7955	0.004933
894.0351	0.004131
894.2747	0.002886
894.5143	0.005460
894.7539	0.003878
894.9935	0.004954
895.2331	0.002359
895.4727	0.005144
895.7124	0.002507
895.9520	0.005228
896.1917	0.005460
896.4314	0.005481
896.6710	0.005608
896.9107	0.004722
897.1504	0.002908
897.3901	0.003751
897.6298	0.004469
897.8695	0.004912
898.1092	0.003604
898.3489	0.005080
898.5887	0.003899
898.8284	0.004258
899.0682	0.003583
899.3079	0.003140
899.5477	0.003625
899.7875	0.003857
900.0272	0.004131
900.2670	0.003583
900.5068	0.004131
900.7466	0.002760
900.9864	0.003456
901.2263	0.004405
901.4661	0.004321
901.7059	0.004384
901.9458	0.003119
902.1856	0.004026
902.4255	0.004722
902.6654	0.002781
902.9052	0.003941
903.1451	0.004363
903.3850	0.003245
903.6249	0.003583
903.8648	0.004194
904.1047	0.004300
904.3446	0.003962
904.5846	0.003393
904.8245	0.004426
905.0644	0.003456
905.3044	0.005165
905.5444	0.005355
905.7843	0.003583
906.0243	0.004912
906.2643	0.003751
906.5043	0.003562
906.7443	0.003435
906.9843	0.004068
907.2243	0.004005
907.4643	0.004574
907.7043	0.002190
907.9444	0.003245
908.1844	0.004469
908.4245	0.002190
908.6645	0.003308
908.9046	0.004279
909.1447	0.002465
909.3847	0.001916
909.6248	0.002211
909.8649	0.004258
910.1050	0.002085
910.3452	0.003393
910.5853	0.003604
910.8254	0.002612
911.0655	0.003393
911.3057	0.004890
911.5458	0.003688
911.7860	0.003667
912.0262	0.002676
912.2663	0.005165
912.5065	0.003372
912.7467	0.003562
912.9869	0.004426
913.2271	0.003034
913.4673	0.004194
913.7075	0.003857
913.9478	0.002781
914.1880	0.003414
914.4283	0.002443
914.6685	0.003140
914.9088	0.003625
915.1490	0.002739
915.3893	0.003287
915.6296	0.003372
915.8699	0.002781
916.1102	0.002612
916.3505	0.003140
916.5908	0.003625
916.8311	0.003372
917.0714	0.003730
917.3118	0.004173
917.5521	0.004068
917.7925	0.002169
918.0328	0.005123
918.2732	0.003224
918.5136	0.002697
918.7539	0.002697
918.9943	0.004658
919.2347	0.003097
919.4751	0.002992
919.7155	0.003414
919.9560	0.003224
920.1964	0.004026
920.4368	0.003287
920.6773	0.002865
920.9177	0.005017
921.1582	0.002570
921.3986	0.001853
921.6391	0.001705
921.8796	0.002148
922.1201	0.002950
922.3606	0.003203
922.6011	0.003477
922.8416	0.004173
923.0821	0.002950
923.3226	0.000292
923.5631	0.002781
923.8037	0.002570
924.0442	0.002844
924.2848	0.001368
924.5254	0.002908
924.7659	0.003688
925.0065	0.001937
925.2471	0.003287
925.4877	0.003055
925.7283	0.000439
925.9689	0.002380
926.2095	0.001157
926.4501	0.001410
926.6908	0.002929
926.9314	0.001220
927.1720	0.002697
927.4127	0.002528
927.6533	0.001790
927.8940	0.000102
928.1347	0.002929
928.3754	0.003182
928.6161	0.003329
928.8568	0.001199
929.0975	0.001895
929.3382	0.002971
929.5789	0.002507
929.8196	0.002718
930.0604	0.002000
930.3011	0.001747
930.5419	0.001136
930.7826	0.002950
931.0234	0.003983
931.2642	0.001832
931.5049	0.003562
931.7457	0.001389
931.9865	0.001347
932.2273	-0.000130
932.4681	0.001663
932.7089	0.003308
932.9498	0.001030
933.1906	0.001030
933.4314	0.002338
933.6723	0.002254
933.9131	0.002127
934.1540	0.001811
934.3949	0.001368
934.6358	0.002106
934.8766	0.002443
935.1175	0.001874
935.3584	0.002507
935.5993	0.001115
935.8403	0.002233
936.0812	0.001663
936.3221	0.001916
936.5630	0.001747
936.8040	0.001536
937.0449	0.002697
937.2859	0.001895
937.5269	0.001157
937.7678	0.000840
938.0088	0.002127
938.2498	0.001874
938.4908	0.001283
938.7318	0.000461
938.9728	0.001473
939.2138	0.000967
939.4549	0.002865
939.6959	0.000503
939.9369	0.000018
940.1780	0.000840
940.4190	0.002148
940.6601	0.001093
940.9012	0.001431
941.1422	0.002190
941.3833	0.003203
941.6244	0.000313
941.8655	0.001304
942.1066	0.001262
942.3477	0.001832
942.5889	0.000482
942.8300	0.002190
943.0711	0.001410
943.3123	0.001684
943.5534	0.001832
943.7946	0.000693
944.0357	0.001747
944.2769	0.002443
944.5181	0.001051
944.7593	0.002338
945.0005	-0.000193
945.2417	0.001979
945.4829	0.001325
945.7241	0.001262
945.9653	-0.000299
946.2066	0.000777
946.4478	0.001747
946.6891	0.001536
946.9303	0.001494
947.1716	0.001958
947.4128	0.001536
947.6541	0.001157
947.8954	0.000988
948.1367	0.000292
948.3780	-0.000636
948.6193	0.000376
948.8606	0.001009
949.1019	0.002338
949.3433	0.001072
949.5846	0.001895
949.8259	0.001220
950.0673	0.000840
950.3086	0.000946
950.5500	0.001874
950.7914	0.001431
951.0327	0.001600
951.2741	0.001093
951.5155	0.000461
951.7569	0.000418
951.9983	0.001579
952.2398	0.001958
952.4812	0.002317
952.7226	0.000925
952.9640	0.001473
953.2055	0.002781
953.4469	0.000587
953.6884	0.001832
953.9299	0.001410
954.1713	0.001579
954.4128	0.001621
954.6543	0.001726
954.8958	0.002043
955.1373	0.000566
955.3788	0.001241
955.6203	0.000608
955.8618	0.001621
956.1034	0.001705
956.3449	0.001621
956.5865	0.000798
956.8280	0.001431
957.0696	0.002000
957.3111	0.002296
957.5527	0.002908
957.7943	0.000735
958.0359	0.001220
958.2775	0.001790
958.5191	0.000271
958.7607	0.001916
959.0023	-0.000594
959.2439	0.000524
959.4856	-0.000932
959.7272	0.001347
959.9688	0.001241
960.2105	0.000988
960.4522	0.000461
960.6938	0.000355
960.9355	0.000102
961.1772	0.001199
961.4189	0.000904
961.6606	0.001621
961.9023	0.000756
962.1440	0.000861
962.3857	-0.000299
962.6274	0.000925
962.8692	-0.000700
963.1109	0.000988
963.3527	-0.000088
963.5944	0.000292
963.8362	0.000376
964.0779	0.001832
964.3197	0.001199
964.5615	0.000861
964.8033	0.000587
965.0451	0.000693
965.2869	0.000946
965.5287	0.000904
965.7705	0.000587
966.0123	0.001115
966.2542	0.000798
966.4960	0.001009
966.7379	0.001093
966.9797	0.001262
967.2216	-0.000257
967.4634	0.000207
967.7053	0.000229
967.9472	0.001347
968.1891	0.000503
968.4310	0.001536
968.6729	0.000355
968.9148	0.001115
969.1567	-0.000109
969.3987	0.001431
969.6406	0.000355
969.8825	0.000882
970.1245	0.001093
970.3664	0.000439
970.6084	0.001241
970.8504	0.000714
971.0923	-0.000742
971.3343	0.000081
971.5763	-0.000404
971.8183	0.000081
972.0603	0.000545
972.3023	-0.000130
972.5443	0.000165
972.7864	0.000355
973.0284	0.000946
973.2704	0.000503
973.5125	0.000482
973.7545	-0.000236
973.9966	0.000672
974.2387	0.000693
974.4807	0.000756
974.7228	0.002422
974.9649	0.001726
975.2070	0.000819
975.4491	0.000229
975.6912	0.000925
975.9333	0.000081
976.1755	0.002043
976.4176	0.000334
976.6597	0.000967
976.9019	0.001663
977.1440	0.001262
977.3862	-0.000847
977.6283	0.000967
977.8705	0.000988
978.1127	0.000714
978.3549	-0.000004
978.5971	0.000376
978.8393	0.000081
979.0815	0.000060
979.3237	0.001916
979.5659	0.001157
979.8082	0.000545
980.0504	0.001093
980.2926	0.001262
980.5349	0.000566
980.7771	0.000376
981.0194	0.001241
981.2617	-0.000636
981.5040	0.001347
981.7462	0.000925
981.9885	-0.000004
982.2308	0.000882
982.4731	0.000608
982.7155	0.001115
982.9578	0.001241
983.2001	-0.001185
983.4424	0.001937
983.6848	0.000482
983.9271	0.000397
984.1695	-0.000278
984.4118	0.000418
984.6542	0.000545
984.8966	0.000756
985.1390	0.000334
985.3814	0.000355
985.6238	0.002211
985.8662	0.000777
986.1086	0.000186
986.3510	0.000967
986.5934	-0.000299
986.8358	0.001136
987.0783	0.000524
987.3207	-0.000552
987.5632	0.001030
987.8056	0.001262
988.0481	-0.000193
988.2906	0.001473
988.5331	0.000925
988.7756	-0.000868
989.0180	0.000524
989.2605	0.001283
989.5031	0.001262
989.7456	0.001790
989.9881	-0.000447
990.2306	-0.000067
990.4732	-0.000067
990.7157	0.001811
990.9582	-0.000257
991.2008	0.000461
991.4434	-0.000868
991.6859	0.000672
991.9285	0.001368
992.1711	0.000861
992.4137	0.001853
992.6563	0.001093
992.8989	-0.001501
993.1415	-0.000236
993.3841	-0.000088
993.6267	0.000229
993.8694	-0.000721
994.1120	0.001536
994.3547	0.001452
994.5973	-0.001438
994.8400	0.000545
995.0826	0.000482
995.3253	-0.000362
995.5680	0.001389
995.8107	0.000482
996.0534	0.000566
996.2961	-0.000193
996.5388	-0.000067
996.7815	0.000250
997.0242	0.000629
997.2670	-0.000257
997.5097	0.002148
997.7524	-0.000236
997.9952	0.001768
998.2379	0.000186
998.4807	0.000798
998.7235	0.000144
998.9662	-0.000573
999.2090	0.000165
999.4518	-0.000088
999.6946	0.000250
999.9374	0.000418
1000.1802	0.000882
1000.4230	0.000186
1000.6659	0.000292
1000.9087	-0.000742
1001.1515	-0.000742
1001.3944	0.000397
1001.6372	0.000292
1001.8801	-0.000953
1002.1230	0.000840
1002.3658	0.000925
1002.6087	0.000271
1002.8516	0.000250
1003.0945	0.001705
1003.3374	0.000946
1003.5803	0.000503
1003.8232	0.000207
1004.0661	0.000756
1004.3091	0.001431
1004.5520	-0.000489
1004.7949	0.000376
1005.0379	-0.000447
1005.2808	0.001157
1005.5238	0.001009
1005.7667	0.000925
1006.0097	-0.000700
1006.2527	0.000946
1006.4957	-0.000151
1006.7387	0.000524
1006.9817	0.001304
1007.2247	0.000545
1007.4677	0.000439
1007.7107	0.000018
1007.9538	0.000271
1008.1968	-0.000341
1008.4398	0.000165
1008.6829	-0.000784
1008.9259	0.000397
1009.1690	0.001051
1009.4121	-0.000320
1009.6551	0.000988
1009.8982	0.000714
1010.1413	0.000144
1010.3844	0.000503
1010.6275	0.000186
1010.8706	0.001347
1011.1137	0.001262
1011.3568	0.002233
1011.6000	-0.000257
1011.8431	0.001051
1012.0863	0.000186
1012.3294	-0.001122
1012.5726	0.001009
1012.8157	0.001030
1013.0589	-0.000826
1013.3021	0.001199
1013.5452	-0.001016
1013.7884	0.000397
1014.0316	0.000777
1014.2748	-0.000763
1014.5180	-0.000700
1014.7613	-0.000130
1015.0045	0.000039
1015.2477	0.000461
1015.4909	-0.000004
1015.7342	0.000271
1015.9774	0.001347
1016.2207	0.000545
1016.4640	0.000756
1016.7072	0.002000
1016.9505	0.000566
1017.1938	0.001958
1017.4371	0.000777
1017.6804	-0.000214
1017.9237	0.000629
1018.1670	0.000018
1018.4103	-0.000404
1018.6536	0.001199
1018.8969	-0.001438
1019.1403	-0.000257
1019.3836	0.000123
1019.6270	0.000355
1019.8703	-0.000278
1020.1137	0.000545
1020.3571	-0.001100
1020.6004	0.001093
1020.8438	-0.000615
1021.0872	0.000566
1021.3306	0.001051
1021.5740	-0.000193
1021.8174	-0.001058
1022.0608	-0.000025
1022.3042	0.000081
1022.5477	-0.000763
1022.7911	0.000418
1023.0345	0.000524
