# Wavelength (nm)	Intensity (a.u.)
197.7802	0.001302
197.9842	0.000986
198.1882	0.000733
198.3922	-0.000448
198.5963	0.000416
198.8003	-0.001545
199.0044	0.000606
199.2085	0.000016
199.4126	-0.000575
199.6168	-0.000596
199.8209	0.001176
200.0251	-0.001270
200.2292	0.000691
200.4334	0.000248
200.6376	0.001197
200.8418	-0.001060
201.0461	0.001049
201.2503	0.000585
201.4546	0.002588
201.6589	-0.000638
201.8631	0.000185
202.0674	0.000543
202.2718	0.001513
202.4761	0.001386
202.6805	0.000691
202.8848	0.000227
203.0892	0.001787
203.2936	0.000248
203.4980	0.000543
203.7024	-0.000258
203.9069	0.000670
204.1113	-0.000300
204.3158	0.000986
204.5203	0.000691
204.7248	0.001239
204.9293	-0.000279
205.1338	-0.000069
205.3384	-0.000385
205.5430	0.000206
205.7475	0.000564
205.9521	0.001618
206.1567	-0.000258
206.3614	0.000648
206.5660	0.001323
206.7706	0.002525
206.9753	0.000712
207.1800	0.001133
207.3847	0.000142
207.5894	-0.001545
207.7941	0.000100
207.9989	0.000754
208.2036	0.002230
208.4084	-0.000300
208.6132	0.001408
208.8180	0.000395
209.0228	0.001344
209.2276	0.001218
209.4325	0.001197
209.6373	-0.000195
209.8422	0.000206
210.0471	-0.000364
210.2520	0.000227
210.4569	0.000332
210.6618	0.000733
210.8668	0.000100
211.0718	0.000163
211.2767	-0.001060
211.4817	-0.000406
211.6867	0.001492
211.8918	0.001386
212.0968	0.000142
212.3018	-0.000258
212.5069	0.001344
212.7120	-0.000132
212.9171	-0.000807
213.1222	0.001344
213.3273	0.000585
213.5325	0.000564
213.7376	0.001344
213.9428	0.001576
214.1480	0.000037
214.3532	-0.000596
214.5584	-0.000364
214.7636	0.000522
214.9689	0.001155
215.1741	-0.000279
215.3794	0.001766
215.5847	0.000648
215.7900	0.000248
215.9953	0.000627
216.2007	0.001155
216.4060	0.000206
216.6114	-0.001060
216.8168	0.000374
217.0222	0.000564
217.2276	0.000290
217.4330	-0.000111
217.6384	0.000459
217.8439	0.001682
218.0494	0.000691
218.2548	0.001218
218.4603	-0.000153
218.6659	0.001555
218.8714	0.000438
219.0769	0.000733
219.2825	0.000037
219.4881	0.001576
219.6936	0.000016
219.8992	0.000248
220.1049	0.000627
220.3105	0.000522
220.5161	-0.000511
220.7218	0.000606
220.9275	0.000522
221.1332	-0.000174
221.3389	0.000079
221.5446	0.000206
221.7503	-0.000511
221.9561	0.004170
222.1618	-0.000237
222.3676	-0.000195
222.5734	-0.000364
222.7792	0.000691
222.9850	-0.000174
223.1909	0.002188
223.3967	0.001682
223.6026	0.001576
223.8085	-0.000069
224.0144	0.000227
224.2203	0.000353
224.4262	0.000501
224.6322	-0.000807
224.8381	0.001260
225.0441	-0.000575
225.2501	0.001829
225.4561	0.000817
225.6621	0.000712
225.8681	0.000480
226.0742	0.001787
226.2802	0.000037
226.4863	0.000395
226.6924	0.000416
226.8985	0.001281
227.1046	0.000248
227.3107	0.000670
227.5169	-0.001144
227.7230	0.001703
227.9292	-0.000680
228.1354	0.000648
228.3416	0.000796
228.5478	0.000269
228.7541	-0.000216
228.9603	0.000206
229.1666	0.001070
229.3729	-0.000069
229.5791	-0.000195
229.7855	0.000121
229.9918	0.000796
230.1981	0.000733
230.4045	-0.000638
230.6108	0.001724
230.8172	0.001871
231.0236	0.001829
231.2300	-0.000343
231.4364	0.002314
231.6429	-0.000090
231.8493	0.000142
232.0558	-0.000090
232.2623	0.000670
232.4688	0.000923
232.6753	0.001492
232.8818	-0.001102
233.0884	0.000986
233.2949	-0.000385
233.5015	0.001133
233.7081	0.000037
233.9147	0.000880
234.1213	0.000016
234.3279	0.001450
234.5346	0.000142
234.7413	0.002019
234.9479	-0.000975
235.1546	0.000185
235.3613	-0.000385
235.5680	0.000901
235.7748	0.001028
235.9815	0.000416
236.1883	-0.000300
236.3951	0.001682
236.6018	0.000079
236.8087	0.000859
237.0155	0.000185
237.2223	0.001808
237.4292	0.001597
237.6360	0.000880
237.8429	0.000227
238.0498	-0.000090
238.2567	-0.000764
238.4636	0.000901
238.6706	0.001176
238.8775	-0.000174
239.0845	-0.000532
239.2915	0.001618
239.4985	0.000121
239.7055	0.000923
239.9125	-0.000005
240.1195	0.000501
240.3266	0.000901
240.5337	0.001408
240.7407	0.000142
240.9478	0.001365
241.1549	0.000269
241.3621	0.000311
241.5692	0.000016
241.7764	0.000585
241.9835	0.000269
242.1907	0.000564
242.3979	0.001133
242.6051	0.000901
242.8124	-0.000912
243.0196	0.001365
243.2269	-0.000448
243.4341	0.001914
243.6414	0.001344
243.8487	0.000353
244.0560	0.000269
244.2634	-0.000469
244.4707	0.000880
244.6781	0.001281
244.8854	0.000923
245.0928	0.001386
245.3002	-0.000300
245.5076	0.000163
245.7151	-0.000005
245.9225	-0.000258
246.1300	0.001260
246.3375	0.000838
246.5449	0.000395
246.7524	0.000459
246.9600	0.000269
247.1675	0.000965
247.3750	0.001239
247.5826	0.000480
247.7902	0.000163
247.9978	-0.000047
248.2054	-0.000785
248.4130	0.001028
248.6206	0.002272
248.8283	0.001176
249.0359	-0.000132
249.2436	0.001176
249.4513	-0.000047
249.6590	-0.000174
249.8667	0.000923
250.0745	0.000627
250.2822	0.001745
250.4900	0.001618
250.6978	-0.000090
250.9056	0.001787
251.1134	0.001640
251.3212	0.000733
251.5290	-0.000828
251.7369	0.000248
251.9447	0.001977
252.1526	-0.000891
252.3605	0.000965
252.5684	0.001218
252.7763	0.000058
252.9843	0.001408
253.1922	0.000796
253.4002	0.001597
253.6082	0.000353
253.8162	0.000944
254.0242	0.000522
254.2322	0.000712
254.4402	0.000923
254.6483	0.001808
254.8564	0.002673
255.0644	0.001408
255.2725	0.000775
255.4806	0.000838
255.6888	-0.000364
255.8969	0.001386
256.1051	0.000648
256.3132	0.000395
256.5214	0.000817
256.7296	0.001703
256.9378	0.000374
257.1460	0.000459
257.3543	0.000227
257.5625	0.000733
257.7708	0.000438
257.9791	0.000374
258.1874	0.000416
258.3957	-0.000111
258.6040	0.000564
258.8124	0.000459
259.0207	0.000817
259.2291	0.001070
259.4375	0.000775
259.6459	0.000838
259.8543	0.001576
260.0627	0.000332
260.2711	-0.000111
260.4796	0.002019
260.6881	0.000142
260.8965	0.000332
261.1050	-0.000469
261.3135	0.000100
261.5221	0.000311
261.7306	0.000965
261.9392	0.001492
262.1477	0.001513
262.3563	0.000142
262.5649	0.001661
262.7735	0.000037
262.9822	-0.000322
263.1908	0.001155
263.3995	-0.000090
263.6081	0.000817
263.8168	0.000374
264.0255	0.001028
264.2342	0.001471
264.4429	-0.000511
264.6517	0.000817
264.8604	0.000627
265.0692	0.001176
265.2780	0.000185
265.4868	0.000733
265.6956	-0.000764
265.9044	0.001513
266.1133	0.000100
266.3221	0.000480
266.5310	0.003200
266.7399	0.001724
266.9488	0.000754
267.1577	0.001914
267.3666	0.001112
267.5755	0.001155
267.7845	0.000142
267.9935	0.000712
268.2024	0.000142
268.4114	0.000944
268.6205	-0.000743
268.8295	-0.000722
269.0385	0.000121
269.2476	0.000880
269.4566	0.000817
269.6657	0.001386
269.8748	-0.000490
270.0839	0.000627
270.2931	0.000859
270.5022	0.000332
270.7114	0.000986
270.9205	0.001176
271.1297	0.000100
271.3389	0.000564
271.5481	-0.000448
271.7573	0.000944
271.9666	-0.001039
272.1758	0.000796
272.3851	0.001007
272.5944	0.002841
272.8037	0.000374
273.0130	0.001028
273.2223	0.001344
273.4316	0.002715
273.6410	0.000374
273.8504	0.000606
274.0597	-0.000174
274.2691	0.000691
274.4785	0.000395
274.6880	0.001133
274.8974	-0.000069
275.1069	0.001808
275.3163	0.000754
275.5258	0.001914
275.7353	0.000923
275.9448	0.001555
276.1543	-0.000849
276.3639	0.000332
276.5734	0.000248
276.7830	0.001281
276.9926	-0.000322
277.2022	0.000733
277.4118	0.000395
277.6214	-0.000490
277.8310	0.000923
278.0407	0.000606
278.2503	0.000100
278.4600	0.000416
278.6697	-0.000047
278.8794	0.000374
279.0891	0.000480
279.2989	-0.000300
279.5086	0.001281
279.7184	0.000564
279.9281	0.000079
280.1379	0.000311
280.3477	0.000838
280.5576	0.000522
280.7674	0.001070
280.9772	0.000142
281.1871	-0.000300
281.3970	0.000395
281.6069	0.000016
281.8168	0.000290
282.0267	0.000733
282.2366	0.001492
282.4466	-0.000870
282.6565	0.001323
282.8665	0.000838
283.0765	0.000712
283.2865	0.000290
283.4965	0.001429
283.7065	0.000627
283.9166	0.001260
284.1266	0.001070
284.3367	0.000944
284.5468	0.001049
284.7569	0.001302
284.9670	0.000564
285.1771	0.001998
285.3873	0.001091
285.5974	0.002483
285.8076	0.000227
286.0178	0.001471
286.2280	0.000923
286.4382	0.000416
286.6484	-0.000153
286.8587	0.001323
287.0689	0.000206
287.2792	0.000817
287.4895	0.000395
287.6998	0.000986
287.9101	-0.000469
288.1204	0.001323
288.3308	0.000416
288.5411	-0.000153
288.7515	0.000838
288.9619	0.000986
289.1723	0.000438
289.3827	0.000923
289.5931	0.000901
289.8035	0.002082
290.0140	0.000395
290.2245	-0.001355
290.4349	0.001703
290.6454	0.001703
290.8559	0.000480
291.0665	0.001155
291.2770	-0.000659
291.4875	0.001935
291.6981	-0.000047
291.9087	0.001850
292.1193	-0.000427
292.3299	0.000374
292.5405	0.000353
292.7511	0.001239
292.9618	-0.000385
293.1724	0.000754
293.3831	-0.000195
293.5938	0.001007
293.8045	0.002209
294.0152	0.000395
294.2260	-0.000216
294.4367	0.000564
294.6475	0.000564
294.8582	0.001155
295.0690	0.000817
295.2798	-0.000849
295.4906	0.000248
295.7015	0.001576
295.9123	0.000817
296.1232	0.001661
296.3340	0.000332
296.5449	0.000522
296.7558	-0.001081
296.9667	-0.000385
297.1777	0.001155
297.3886	-0.000111
297.5995	-0.000132
297.8105	0.001998
298.0215	0.001640
298.2325	0.001197
298.4435	0.001597
298.6545	0.001070
298.8656	-0.000005
299.0766	0.001618
299.2877	0.000459
299.4988	0.001534
299.7099	-0.000026
299.9210	0.000627
300.1321	0.000585
300.3432	0.000901
300.5544	-0.000258
300.7655	0.000712
300.9767	0.000374
301.1879	0.000880
301.3991	0.000585
301.6103	0.001302
301.8215	0.000227
302.0328	0.000754
302.2441	0.000648
302.4553	0.001049
302.6666	-0.000343
302.8779	0.000923
303.0892	0.000880
303.3006	0.000817
303.5119	0.001661
303.7233	0.002209
303.9346	-0.000026
304.1460	0.000712
304.3574	0.000416
304.5688	0.001682
304.7803	0.001007
304.9917	0.000459
305.2031	0.000163
305.4146	0.001429
305.6261	0.000796
305.8376	0.000374
306.0491	-0.000322
306.2606	0.000648
306.4722	0.000206
306.6837	0.003116
306.8953	-0.000005
307.1069	0.000859
307.3184	-0.000047
307.5301	0.000775
307.7417	0.000606
307.9533	0.001893
308.1650	0.000374
308.3766	0.000037
308.5883	-0.000047
308.8000	0.001998
309.0117	0.001914
309.2234	0.001492
309.4351	0.000564
309.6469	0.000838
309.8586	-0.000279
310.0704	0.001049
310.2822	0.000923
310.4940	0.002525
310.7058	0.000564
310.9176	0.000754
311.1295	0.000395
311.3413	0.001661
311.5532	-0.000279
311.7651	0.000880
311.9770	0.001239
312.1889	0.000121
312.4008	-0.000638
312.6127	0.000944
312.8247	0.001049
313.0366	0.000206
313.2486	0.001176
313.4606	0.001091
313.6726	0.000227
313.8846	0.000480
314.0967	0.000965
314.3087	0.000670
314.5208	-0.000026
314.7328	0.000374
314.9449	0.000163
315.1570	0.000691
315.3692	0.000838
315.5813	0.000374
315.7934	0.000311
316.0056	0.000290
316.2177	0.000501
316.4299	-0.000258
316.6421	0.000269
316.8543	-0.000069
317.0666	0.000100
317.2788	0.002040
317.4911	0.000754
317.7033	0.000733
317.9156	0.001112
318.1279	0.001618
318.3402	0.001176
318.5525	0.001049
318.7649	-0.000680
318.9772	0.000817
319.1896	0.000163
319.4019	-0.000511
319.6143	-0.000743
319.8267	0.001766
320.0392	0.000522
320.2516	0.002188
320.4640	-0.000195
320.6765	0.000416
320.8890	-0.000385
321.1014	0.002103
321.3139	0.000016
321.5265	0.000733
321.7390	0.000901
321.9515	0.002125
322.1641	-0.000026
322.3766	0.001450
322.5892	-0.000364
322.8018	0.001007
323.0144	-0.000153
323.2270	0.001597
323.4397	-0.000300
323.6523	0.000058
323.8650	0.001450
324.0777	0.000901
324.2904	0.000754
324.5031	0.000564
324.7158	0.001112
324.9285	0.000269
325.1412	0.000227
325.3540	0.000163
325.5668	0.000185
325.7796	0.001365
325.9924	-0.000300
326.2052	0.000480
326.4180	0.000817
326.6308	0.000648
326.8437	0.000142
327.0566	0.000648
327.2694	-0.000005
327.4823	0.002061
327.6952	0.000754
327.9082	0.000480
328.1211	0.000754
328.3340	0.001155
328.5470	0.000501
328.7600	0.002272
328.9730	0.000438
329.1860	0.000121
329.3990	0.001408
329.6120	0.000627
329.8251	0.000290
330.0381	0.000480
330.2512	0.000459
330.4643	0.001724
330.6774	-0.000026
330.8905	0.000100
331.1036	0.001155
331.3167	0.000459
331.5299	0.000648
331.7431	0.001492
331.9562	0.000796
332.1694	0.001766
332.3826	0.000100
332.5959	0.001998
332.8091	0.000121
333.0223	0.000691
333.2356	0.001408
333.4489	0.000522
333.6622	0.000501
333.8755	0.001829
334.0888	0.000248
334.3021	0.000185
334.5154	-0.000364
334.7288	0.000796
334.9422	0.001218
335.1555	0.000712
335.3689	0.000627
335.5823	0.001555
335.7958	0.000986
336.0092	0.000965
336.2227	0.001386
336.4361	0.000986
336.6496	0.000206
336.8631	0.000796
337.0766	0.000121
337.2901	0.003284
337.5036	0.000585
337.7172	0.002588
337.9307	0.000459
338.1443	0.001429
338.3579	0.001028
338.5715	0.000986
338.7851	0.000290
338.9987	0.001302
339.2124	-0.000258
339.4260	0.002335
339.6397	0.000501
339.8533	-0.000026
340.0670	0.000796
340.2807	0.000248
340.4945	0.000901
340.7082	0.000438
340.9219	0.000206
341.1357	0.000311
341.3495	0.000965
341.5633	0.000585
341.7771	0.000670
341.9909	0.000121
342.2047	-0.001017
342.4185	0.001218
342.6324	-0.000532
342.8463	0.000585
343.0601	0.001133
343.2740	0.000100
343.4879	0.001850
343.7019	-0.000322
343.9158	0.000648
344.1297	-0.000385
344.3437	-0.000279
344.5577	0.000100
344.7717	0.000691
344.9857	0.001640
345.1997	0.000206
345.4137	0.000290
345.6277	-0.000111
345.8418	0.001049
346.0559	-0.000490
346.2699	0.001091
346.4840	-0.000090
346.6981	0.000248
346.9123	0.001049
347.1264	0.000416
347.3406	0.000859
347.5547	0.000459
347.7689	0.000332
347.9831	0.000775
348.1973	-0.000195
348.4115	0.000796
348.6257	-0.000364
348.8400	0.000459
349.0542	0.000227
349.2685	0.001682
349.4828	0.000416
349.6971	0.000079
349.9114	0.001155
350.1257	-0.000069
350.3400	0.000142
350.5544	0.001176
350.7687	-0.000090
350.9831	0.000480
351.1975	0.000438
351.4119	0.001091
351.6263	0.000606
351.8407	-0.000300
352.0552	-0.000258
352.2696	0.000522
352.4841	0.000543
352.6986	0.000416
352.9131	0.001534
353.1276	0.000142
353.3421	0.001281
353.5566	-0.000532
353.7712	-0.000216
353.9858	-0.000448
354.2003	0.000016
354.4149	0.001155
354.6295	0.001576
354.8441	0.001408
355.0588	0.001513
355.2734	-0.000279
355.4881	0.000670
355.7027	0.000880
355.9174	-0.000026
356.1321	0.001049
356.3468	0.000691
356.5615	0.001471
356.7763	0.001112
356.9910	0.001091
357.2058	0.001028
357.4206	0.001155
357.6353	-0.001292
357.8501	0.000944
358.0650	-0.000153
358.2798	0.001365
358.4946	0.000923
358.7095	0.000880
358.9243	0.001640
359.1392	0.001703
359.3541	-0.000659
359.5690	0.000691
359.7839	0.000037
359.9989	0.001935
360.2138	0.000037
360.4288	0.000353
360.6438	0.001176
360.8587	0.001386
361.0737	-0.000279
361.2888	0.001450
361.5038	0.000627
361.7188	0.001450
361.9339	0.000185
362.1489	-0.000132
362.3640	0.000395
362.5791	0.000754
362.7942	0.000459
363.0093	0.001260
363.2245	0.001239
363.4396	0.000648
363.6548	0.000311
363.8699	0.000290
364.0851	-0.000617
364.3003	0.000058
364.5155	0.000374
364.7308	0.000374
364.9460	0.001133
365.1612	0.000269
365.3765	0.000227
365.5918	0.001218
365.8071	0.001492
366.0224	0.001724
366.2377	0.000712
366.4530	0.001808
366.6684	0.000290
366.8837	-0.000174
367.0991	-0.000174
367.3145	0.000627
367.5299	0.000670
367.7453	0.000670
367.9607	-0.000785
368.1761	0.002040
368.3916	0.001766
368.6070	0.001682
368.8225	-0.000722
369.0380	-0.000090
369.2535	0.000543
369.4690	-0.000343
369.6845	0.001133
369.9001	-0.000047
370.1156	0.000480
370.3312	0.000058
370.5468	0.000901
370.7624	0.001724
370.9780	-0.000195
371.1936	0.000248
371.4092	0.000269
371.6249	0.000163
371.8405	-0.000322
372.0562	0.000248
372.2719	0.000712
372.4876	0.001028
372.7033	0.000627
372.9190	0.000332
373.1348	0.000543
373.3505	0.000058
373.5663	-0.000975
373.7820	0.001408
373.9978	-0.000596
374.2136	0.000923
374.4294	0.000227
374.6453	0.000733
374.8611	0.000901
375.0770	0.001197
375.2928	0.001197
375.5087	0.001218
375.7246	-0.000554
375.9405	0.000691
376.1564	0.000648
376.3724	0.001513
376.5883	-0.000258
376.8043	0.000501
377.0203	-0.000132
377.2362	-0.000047
377.4522	0.000775
377.6682	0.000923
377.8843	0.000459
378.1003	0.002103
378.3164	0.001197
378.5324	0.001028
378.7485	0.000227
378.9646	0.001260
379.1807	0.001302
379.3968	0.000100
379.6129	-0.000680
379.8291	0.000880
380.0452	0.000543
380.2614	0.000016
380.4776	0.000227
380.6938	-0.000069
380.9100	0.001302
381.1262	0.001218
381.3424	0.000986
381.5587	0.001492
381.7749	0.000353
381.9912	-0.000680
382.2075	-0.000490
382.4238	0.000670
382.6401	0.000142
382.8564	0.000480
383.0728	0.000564
383.2891	0.000522
383.5055	0.000058
383.7219	0.000311
383.9382	0.001070
384.1546	0.000986
384.3711	0.000712
384.5875	0.000438
384.8039	0.001408
385.0204	0.000332
385.2368	0.000923
385.4533	0.000712
385.6698	0.001218
385.8863	0.001450
386.1028	0.000691
386.3194	0.000353
386.5359	0.001344
386.7525	0.001471
386.9690	0.000817
387.1856	0.000859
387.4022	0.001956
387.6188	0.001998
387.8355	0.002567
388.0521	0.001471
388.2687	0.001661
388.4854	0.003137
388.7021	0.002293
388.9188	0.002019
389.1355	0.001808
389.3522	0.003137
389.5689	0.001703
389.7856	0.003601
390.0024	0.002314
390.2192	0.004550
390.4359	0.002314
390.6527	0.003474
390.8695	0.002356
391.0863	0.003833
391.3032	0.003411
391.5200	0.004676
391.7369	0.003516
391.9537	0.005583
392.1706	0.005056
392.3875	0.005456
392.6044	0.007291
392.8213	0.006363
393.0383	0.005203
393.2552	0.006869
393.4722	0.005709
393.6891	0.005857
393.9061	0.005393
394.1231	0.007080
394.3401	0.007523
394.5572	0.007459
394.7742	0.007038
394.9912	0.007164
395.2083	0.009041
395.4254	0.009083
395.6425	0.007734
395.8596	0.008725
396.0767	0.009315
396.2938	0.008809
396.5109	0.009948
396.7281	0.009906
396.9453	0.010686
397.1624	0.011171
397.3796	0.010011
397.5968	0.011593
397.8140	0.009484
398.0313	0.009927
398.2485	0.012837
398.4658	0.013322
398.6830	0.013575
398.9003	0.014207
399.1176	0.011424
399.3349	0.012773
399.5522	0.013448
399.7696	0.013511
399.9869	0.014313
400.2043	0.014587
400.4216	0.013701
400.6390	0.012520
400.8564	0.013322
401.0738	0.014966
401.2912	0.014165
401.5087	0.014650
401.7261	0.014144
401.9436	0.015641
402.1610	0.012921
402.3785	0.015367
402.5960	0.016358
402.8135	0.016717
403.0310	0.016063
403.2486	0.017391
403.4661	0.014734
403.6837	0.017349
403.9013	0.015979
404.1189	0.018172
404.3365	0.017687
404.5541	0.016232
404.7717	0.019437
404.9893	0.018846
405.2070	0.017307
405.4246	0.019184
405.6423	0.020639
405.8600	0.018593
406.0777	0.020175
406.2954	0.018129
406.5131	0.018488
406.7309	0.018045
406.9486	0.017117
407.1664	0.019121
407.3842	0.019184
407.6020	0.018678
407.8198	0.018699
408.0376	0.017370
408.2554	0.019753
408.4733	0.018846
408.6911	0.020386
408.9090	0.019584
409.1269	0.020786
409.3448	0.019922
409.5627	0.020533
409.7806	0.018720
409.9985	0.023043
410.2165	0.021398
410.4344	0.021630
410.6524	0.021208
410.8704	0.021124
411.0884	0.020449
411.3064	0.021546
411.5244	0.020512
411.7424	0.020512
411.9605	0.020196
412.1785	0.021546
412.3966	0.023591
412.6147	0.023443
412.8328	0.020829
413.0509	0.022473
413.2690	0.022473
413.4871	0.022157
413.7053	0.021988
413.9234	0.022157
414.1416	0.019943
414.3598	0.023085
414.5780	0.022494
414.7962	0.020533
415.0144	0.023401
415.2326	0.022916
415.4509	0.021039
415.6692	0.021482
415.8874	0.020027
416.1057	0.020871
416.3240	0.022220
416.5423	0.021609
416.7606	0.022305
416.9790	0.021588
417.1973	0.025341
417.4157	0.023296
417.6341	0.025257
417.8524	0.023486
418.0708	0.022305
418.2893	0.024055
418.5077	0.021925
418.7261	0.024076
418.9446	0.023001
419.1630	0.023591
419.3815	0.025236
419.6000	0.024793
419.8185	0.023739
420.0370	0.023211
420.2555	0.023380
420.4741	0.024498
420.6926	0.025341
420.9112	0.025278
421.1298	0.026628
421.3483	0.027534
421.5669	0.029411
421.7856	0.028061
422.0042	0.028715
422.2228	0.028610
422.4415	0.027724
422.6601	0.026501
422.8788	0.027471
423.0975	0.027787
423.3162	0.027387
423.5349	0.028652
423.7536	0.026480
423.9724	0.024624
424.1911	0.026206
424.4099	0.025995
424.6287	0.025763
424.8475	0.025067
425.0663	0.026543
425.2851	0.025173
425.5039	0.025341
425.7228	0.024118
425.9416	0.022494
426.1605	0.024456
426.3793	0.022115
426.5982	0.024329
426.8171	0.022895
427.0361	0.024666
427.2550	0.025932
427.4739	0.025615
427.6929	0.025320
427.9118	0.023275
428.1308	0.025594
428.3498	0.025763
428.5688	0.024688
428.7878	0.024498
429.0068	0.025278
429.2259	0.025489
429.4449	0.025700
429.6640	0.029221
429.8831	0.028546
430.1022	0.028399
430.3213	0.031161
430.5404	0.027956
430.7595	0.028083
430.9787	0.028884
431.1978	0.026480
431.4170	0.023823
431.6362	0.025868
431.8553	0.025151
432.0745	0.022895
432.2938	0.022199
432.5130	0.022621
432.7322	0.022389
432.9515	0.021841
433.1707	0.022600
433.3900	0.024793
433.6093	0.027872
433.8286	0.025721
434.0479	0.028968
434.2673	0.027049
434.4866	0.024941
434.7059	0.024941
434.9253	0.023696
435.1447	0.025615
435.3641	0.024751
435.5835	0.023654
435.8029	0.022263
436.0223	0.022705
436.2418	0.023422
436.4612	0.024076
436.6807	0.024793
436.9001	0.023781
437.1196	0.025426
437.3391	0.023612
437.5586	0.024856
437.7782	0.022326
437.9977	0.024561
438.2173	0.024287
438.4368	0.026522
438.6564	0.024941
438.8760	0.023317
439.0956	0.023359
439.3152	0.025025
439.5348	0.026902
439.7545	0.024582
439.9741	0.024730
440.1938	0.025889
440.4135	0.023296
440.6331	0.022853
440.8528	0.022410
441.0725	0.025067
441.2923	0.028441
441.5120	0.028504
441.7318	0.031161
441.9515	0.030023
442.1713	0.027576
442.3911	0.027745
442.6109	0.026881
442.8307	0.027745
443.0505	0.025194
443.2703	0.026438
443.4902	0.025974
443.7101	0.027703
443.9299	0.026585
444.1498	0.027829
444.3697	0.025257
444.5896	0.027281
444.8095	0.025742
445.0295	0.024055
445.2494	0.025868
445.4694	0.024688
445.6894	0.024434
445.9093	0.025088
446.1293	0.024582
446.3493	0.023612
446.5694	0.024962
446.7894	0.026817
447.0094	0.023233
447.2295	0.024203
447.4496	0.024962
447.6696	0.023844
447.8897	0.023760
448.1098	0.023211
448.3300	0.021293
448.5501	0.022410
448.7702	0.023760
448.9904	0.023211
449.2106	0.022558
449.4307	0.022769
449.6509	0.023106
449.8711	0.022769
450.0914	0.021799
450.3116	0.020723
450.5318	0.021778
450.7521	0.022621
450.9724	0.019922
451.1926	0.022410
451.4129	0.019816
451.6332	0.020976
451.8535	0.018087
452.0739	0.020618
452.2942	0.020091
452.5146	0.019816
452.7349	0.019606
452.9553	0.020196
453.1757	0.020386
453.3961	0.018383
453.6165	0.018825
453.8369	0.019521
454.0574	0.019057
454.2778	0.018383
454.4983	0.018066
454.7188	0.018193
454.9393	0.017138
455.1597	0.017328
455.3803	0.018804
455.6008	0.018720
455.8213	0.017855
456.0419	0.017792
456.2624	0.016168
456.4830	0.014861
456.7036	0.014481
456.9242	0.016506
457.1448	0.015726
457.3654	0.017012
457.5860	0.016569
457.8067	0.018425
458.0274	0.018868
458.2480	0.017539
458.4687	0.017181
458.6894	0.016063
458.9101	0.017455
459.1308	0.017434
459.3516	0.016168
459.5723	0.018066
459.7931	0.016717
460.0138	0.016843
460.2346	0.018172
460.4554	0.016569
460.6762	0.014966
460.8970	0.014966
461.1178	0.017708
461.3387	0.016358
461.5595	0.014629
461.7804	0.013996
462.0013	0.013722
462.2222	0.014903
462.4431	0.013279
462.6640	0.012605
462.8849	0.012056
463.1059	0.012120
463.3268	0.013743
463.5478	0.014713
463.7687	0.016443
463.9897	0.013069
464.2107	0.014460
464.4317	0.014629
464.6528	0.014629
464.8738	0.013554
465.0948	0.013933
465.3159	0.013849
465.5370	0.014545
465.7581	0.015409
465.9792	0.015599
466.2003	0.013469
466.4214	0.012520
466.6425	0.013701
466.8637	0.013258
467.0848	0.010960
467.3060	0.011339
467.5272	0.010159
467.7484	0.013807
467.9696	0.010939
468.1908	0.012605
468.4120	0.010538
468.6333	0.011593
468.8545	0.009779
469.0758	0.011698
469.2970	0.008451
469.5183	0.011192
469.7396	0.008472
469.9610	0.009104
470.1823	0.009083
470.4036	0.008872
470.6250	0.009315
470.8463	0.009083
471.0677	0.008071
471.2891	0.009589
471.5105	0.008429
471.7319	0.007818
471.9533	0.007776
472.1748	0.008640
472.3962	0.008113
472.6177	0.009737
472.8391	0.007502
473.0606	0.009526
473.2821	0.009336
473.5036	0.008640
473.7251	0.008050
473.9467	0.009189
474.1682	0.007375
474.3898	0.007459
474.6113	0.007902
474.8329	0.007860
475.0545	0.008872
475.2761	0.007734
475.4977	0.007797
475.7193	0.007987
475.9410	0.008176
476.1626	0.007291
476.3843	0.006700
476.6060	0.007038
476.8277	0.007164
477.0494	0.006932
477.2711	0.008640
477.4928	0.007270
477.7145	0.006342
477.9363	0.006426
478.1580	0.006785
478.3798	0.006468
478.6016	0.007059
478.8234	0.006258
479.0452	0.005794
479.2670	0.007164
479.4888	0.006068
479.7107	0.005836
479.9325	0.007038
480.1544	0.006658
480.3763	0.007354
480.5982	0.004507
480.8201	0.005857
481.0420	0.008261
481.2639	0.005625
481.4859	0.005773
481.7078	0.007544
481.9298	0.006490
482.1517	0.004528
482.3737	0.006258
482.5957	0.005562
482.8177	0.006658
483.0398	0.005815
483.2618	0.006321
483.4838	0.006068
483.7059	0.005414
483.9280	0.006279
484.1501	0.005562
484.3721	0.007607
484.5943	0.007143
484.8164	0.005161
485.0385	0.004992
485.2606	0.005330
485.4828	0.007333
485.7050	0.013005
485.9271	0.018509
486.1493	0.018108
486.3715	0.014018
486.5937	0.014334
486.8160	0.012183
487.0382	0.010074
487.2605	0.007839
487.4827	0.007523
487.7050	0.007143
487.9273	0.004507
488.1496	0.005583
488.3719	0.002673
488.5942	0.006384
488.8165	0.005330
489.0389	0.005372
489.2612	0.004233
489.4836	0.003643
489.7060	0.002736
489.9284	0.004992
490.1508	0.004170
490.3732	0.004992
490.5956	0.004507
490.8180	0.003833
491.0405	0.004275
491.2630	0.004528
491.4854	0.002694
491.7079	0.003326
491.9304	0.003453
492.1529	0.004950
492.3755	0.004149
492.5980	0.005625
492.8205	0.004170
493.0431	0.004571
493.2657	0.003095
493.4882	0.005541
493.7108	0.004107
493.9334	0.003875
494.1561	0.003390
494.3787	0.004760
494.6013	0.003558
494.8240	0.005203
495.0466	0.003348
495.2693	0.001618
495.4920	0.004233
495.7147	0.004697
495.9374	0.003601
496.1601	0.002504
496.3829	0.003833
496.6056	0.002736
496.8284	0.003411
497.0511	0.004908
497.2739	0.002314
497.4967	0.004423
497.7195	0.002694
497.9423	0.003284
498.1652	0.002525
498.3880	0.004423
498.6109	0.003411
498.8337	0.001893
499.0566	0.003200
499.2795	0.004128
499.5024	0.003305
499.7253	0.004022
499.9482	0.003664
500.1712	0.003432
500.3941	0.001091
500.6171	0.004296
500.8400	0.002820
501.0630	0.003137
501.2860	0.003664
501.5090	0.003263
501.7320	0.002715
501.9551	0.003116
502.1781	0.003326
502.4012	0.003769
502.6242	0.004423
502.8473	0.001956
503.0704	0.002546
503.2935	0.003706
503.5166	0.002335
503.7397	0.003411
503.9628	0.002841
504.1860	0.004149
504.4092	0.003369
504.6323	0.003031
504.8555	0.002441
505.0787	0.004950
505.3019	0.002420
505.5251	0.004360
505.7483	0.003622
505.9716	0.003580
506.1948	0.001745
506.4181	0.004022
506.6414	0.003263
506.8647	0.005098
507.0880	0.002420
507.3113	0.001745
507.5346	0.003790
507.7579	0.003200
507.9813	0.002209
508.2046	0.002462
508.4280	0.003221
508.6514	0.001998
508.8748	0.003263
509.0982	0.002525
509.3216	0.002209
509.5450	0.002715
509.7685	0.000986
509.9919	0.003284
510.2154	0.001893
510.4388	0.003116
510.6623	0.003516
510.8858	0.002778
511.1093	0.003875
511.3329	0.003685
511.5564	0.002441
511.7799	0.002820
512.0035	0.003537
512.2270	0.003010
512.4506	0.003200
512.6742	0.003664
512.8978	0.002399
513.1214	0.003558
513.3451	0.003010
513.5687	0.003031
513.7923	0.002146
514.0160	0.003769
514.2397	0.001070
514.4634	0.002125
514.6871	0.003305
514.9108	0.002905
515.1345	0.003052
515.3582	0.002694
515.5819	0.002567
515.8057	0.003601
516.0295	0.003601
516.2532	0.000965
516.4770	0.002694
516.7008	0.002441
516.9246	0.001365
517.1485	0.002462
517.3723	0.003200
517.5961	0.002799
517.8200	0.001386
518.0439	0.002926
518.2677	0.003432
518.4916	0.003052
518.7155	0.002525
518.9395	0.002884
519.1634	0.003959
519.3873	0.002103
519.6113	0.002103
519.8352	0.003959
520.0592	0.003790
520.2832	0.002167
520.5072	0.003411
520.7312	0.001935
520.9552	0.004043
521.1792	0.004318
521.4033	0.003242
521.6273	0.002757
521.8514	0.001893
522.0755	0.004655
522.2996	0.003305
522.5237	0.003390
522.7478	0.004845
522.9719	0.003558
523.1960	0.002567
523.4202	0.002947
523.6443	0.003158
523.8685	0.002694
524.0927	0.004233
524.3169	0.002947
524.5411	0.004360
524.7653	0.003980
524.9895	0.002989
525.2138	0.003917
525.4380	0.003811
525.6623	0.003242
525.8865	0.003495
526.1108	0.003116
526.3351	0.002863
526.5594	0.003031
526.7837	0.003896
527.0081	0.003031
527.2324	0.004128
527.4568	0.002820
527.6811	0.005035
527.9055	0.003516
528.1299	0.004887
528.3543	0.002356
528.5787	0.004592
528.8031	0.003516
529.0276	0.004043
529.2520	0.005583
529.4765	0.004339
529.7009	0.005161
529.9254	0.004739
530.1499	0.003917
530.3744	0.004381
530.5989	0.004170
530.8234	0.003622
531.0480	0.005056
531.2725	0.004507
531.4971	0.004676
531.7217	0.004992
531.9462	0.004929
532.1708	0.005351
532.3954	0.004613
532.6200	0.004507
532.8447	0.003095
533.0693	0.005098
533.2940	0.004676
533.5186	0.005878
533.7433	0.006384
533.9680	0.005983
534.1927	0.005815
534.4174	0.008577
534.6421	0.005773
534.8668	0.005983
535.0916	0.009252
535.3163	0.008809
535.5411	0.007902
535.7659	0.007586
535.9907	0.005625
536.2155	0.008050
536.4403	0.005794
536.6651	0.006595
536.8899	0.005667
537.1148	0.007670
537.3396	0.006911
537.5645	0.006806
537.7894	0.007059
538.0143	0.007755
538.2392	0.008366
538.4641	0.009294
538.6890	0.008914
538.9139	0.008345
539.1389	0.008788
539.3638	0.008893
539.5888	0.008451
539.8138	0.009315
540.0388	0.008746
540.2638	0.009273
540.4888	0.009168
540.7138	0.009800
540.9389	0.009779
541.1639	0.009610
541.3890	0.009231
541.6140	0.011002
541.8391	0.011192
542.0642	0.010601
542.2893	0.011782
542.5144	0.012141
542.7396	0.009758
542.9647	0.011888
543.1899	0.010095
543.4150	0.011614
543.6402	0.012373
543.8654	0.013216
544.0906	0.010412
544.3158	0.012710
544.5410	0.011888
544.7662	0.013933
544.9915	0.012099
545.2167	0.013406
545.4420	0.012773
545.6673	0.011698
545.8926	0.012942
546.1179	0.014355
546.3432	0.014123
546.5685	0.013680
546.7938	0.013216
547.0192	0.012752
547.2445	0.013638
547.4699	0.014292
547.6953	0.014397
547.9206	0.015599
548.1460	0.016443
548.3715	0.017307
548.5969	0.017666
548.8223	0.016337
549.0478	0.016759
549.2732	0.016885
549.4987	0.015915
549.7242	0.014882
549.9496	0.014629
550.1751	0.016295
550.4007	0.016885
550.6262	0.015388
550.8517	0.015641
551.0773	0.017370
551.3028	0.015915
551.5284	0.015135
551.7540	0.017202
551.9796	0.018045
552.2052	0.019331
552.4308	0.020871
552.6564	0.020069
552.8820	0.019479
553.1077	0.021524
553.3333	0.018846
553.5590	0.021630
553.7847	0.020850
554.0104	0.020512
554.2361	0.020407
554.4618	0.020344
554.6875	0.020533
554.9132	0.017750
555.1390	0.019205
555.3648	0.019563
555.5905	0.021166
555.8163	0.021799
556.0421	0.023169
556.2679	0.020913
556.4937	0.021187
556.7195	0.020892
556.9454	0.022579
557.1712	0.022305
557.3971	0.021314
557.6230	0.020829
557.8488	0.023401
558.0747	0.022958
558.3006	0.023971
558.5266	0.024013
558.7525	0.022157
558.9784	0.020554
559.2044	0.021799
559.4303	0.022516
559.6563	0.022284
559.8823	0.022642
560.1083	0.025510
560.3343	0.023823
560.5603	0.028441
560.7863	0.026269
561.0124	0.030486
561.2384	0.032005
561.4645	0.032975
561.6905	0.030845
561.9166	0.029959
562.1427	0.028905
562.3688	0.030339
562.5949	0.028631
562.8211	0.028673
563.0472	0.030739
563.2733	0.031203
563.4995	0.030212
563.7257	0.030803
563.9519	0.031267
564.1781	0.032890
564.4043	0.031752
564.6305	0.032933
564.8567	0.031688
565.0829	0.033565
565.3092	0.033291
565.5355	0.034198
565.7617	0.031688
565.9880	0.033439
566.2143	0.035126
566.4406	0.033881
566.6669	0.035885
566.8932	0.038816
567.1196	0.038499
567.3459	0.042569
567.5723	0.048431
567.7987	0.049233
568.0250	0.046555
568.2514	0.047588
568.4778	0.051320
568.7043	0.056086
568.9307	0.059839
569.1571	0.060852
569.3836	0.066819
569.6100	0.073293
569.8365	0.079809
570.0630	0.087358
570.2895	0.087716
570.5160	0.088222
570.7425	0.087611
570.9690	0.094506
571.1956	0.099905
571.4221	0.104881
571.6487	0.109267
571.8752	0.116163
572.1018	0.119052
572.3284	0.118883
572.5550	0.109583
572.7816	0.103637
573.0082	0.097627
573.2349	0.106231
573.4615	0.115214
573.6882	0.127866
573.9149	0.130797
574.1415	0.135035
574.3682	0.141825
574.5949	0.147055
574.8216	0.148109
575.0484	0.146507
575.2751	0.150281
575.5018	0.146211
575.7286	0.139928
575.9554	0.135014
576.1821	0.131345
576.4089	0.135499
576.6357	0.144271
576.8626	0.154414
577.0894	0.158104
577.3162	0.158083
577.5431	0.162512
577.7699	0.187542
577.9968	0.212973
578.2237	0.206520
578.4505	0.194627
578.6774	0.179170
578.9044	0.171263
579.1313	0.159897
579.3582	0.161942
579.5851	0.170061
579.8121	0.176935
580.0391	0.175944
580.2660	0.178116
580.4930	0.174088
580.7200	0.167931
580.9470	0.171157
581.1741	0.206162
581.4011	0.244013
581.6281	0.275516
581.8552	0.270435
582.0822	0.270456
582.3093	0.262190
582.5364	0.237876
582.7635	0.218645
582.9906	0.202746
583.2177	0.191253
583.4449	0.178200
583.6720	0.160192
583.8991	0.157409
584.1263	0.163882
584.3535	0.163988
584.5807	0.167045
584.8079	0.174173
585.0351	0.189039
585.2623	0.198486
585.4895	0.200236
585.7167	0.200995
585.9440	0.193784
586.1713	0.185201
586.3985	0.170588
586.6258	0.165274
586.8531	0.165274
587.0804	0.177547
587.3077	0.189229
587.5350	0.194079
587.7624	0.187036
587.9897	0.182038
588.2171	0.172254
588.4445	0.167404
588.6718	0.164409
588.8992	0.161352
589.1266	0.145347
589.3540	0.140307
589.5815	0.132695
589.8089	0.134065
590.0363	0.133770
590.2638	0.127275
590.4913	0.124745
590.7187	0.123121
590.9462	0.113569
591.1737	0.108592
591.4012	0.106884
591.6288	0.108571
591.8563	0.111608
592.0838	0.110406
592.3114	0.109689
592.5389	0.126474
592.7665	0.150724
592.9941	0.165611
593.2217	0.172802
593.4493	0.173161
593.6769	0.173287
593.9046	0.166075
594.1322	0.153149
594.3598	0.144609
594.5875	0.144714
594.8152	0.149965
595.0429	0.159581
595.2705	0.163714
595.4983	0.159138
595.7260	0.153044
595.9537	0.147709
596.1814	0.133306
596.4092	0.125420
596.6369	0.118313
596.8647	0.117955
597.0925	0.122700
597.3203	0.125293
597.5481	0.125715
597.7759	0.121877
598.0037	0.121392
598.2315	0.116500
598.4594	0.115340
598.6872	0.127571
598.9151	0.147856
599.1430	0.155743
599.3709	0.154056
599.5988	0.147666
599.8267	0.148552
600.0546	0.152200
600.2825	0.153993
600.5105	0.153276
600.7384	0.153845
600.9664	0.156207
601.1944	0.158231
601.4223	0.154857
601.6503	0.145073
601.8783	0.143850
602.1064	0.140075
602.3344	0.140813
602.5624	0.138030
602.7905	0.141340
603.0185	0.145031
603.2466	0.149606
603.4747	0.158336
603.7028	0.159328
603.9309	0.150513
604.1590	0.147350
604.3871	0.140012
604.6152	0.135099
604.8434	0.133897
605.0715	0.128498
605.2997	0.133011
605.5279	0.136385
605.7561	0.140434
605.9843	0.146254
606.2125	0.145537
606.4407	0.136596
606.6689	0.129300
606.8972	0.132210
607.1254	0.132716
607.3537	0.135436
607.5819	0.134635
607.8102	0.133327
608.0385	0.127613
608.2668	0.125947
608.4951	0.124281
608.7235	0.118651
608.9518	0.119326
609.1801	0.116373
609.4085	0.111060
609.6369	0.112135
609.8653	0.116500
610.0936	0.125567
610.3220	0.124808
610.5505	0.125525
610.7789	0.116521
611.0073	0.119241
611.2357	0.115003
611.4642	0.114307
611.6927	0.116795
611.9211	0.117639
612.1496	0.109837
612.3781	0.108023
612.6066	0.106188
612.8351	0.107412
613.0637	0.109225
613.2922	0.106020
613.5208	0.102920
613.7493	0.107369
613.9779	0.108382
614.2065	0.104944
614.4351	0.106041
614.6637	0.103532
614.8923	0.103932
615.1209	0.104270
615.3495	0.105556
615.5782	0.108550
615.8068	0.107875
616.0355	0.106737
616.2642	0.099230
616.4929	0.096362
616.7216	0.094570
616.9503	0.091364
617.1790	0.090331
617.4077	0.090057
617.6365	0.092566
617.8652	0.091828
618.0940	0.090669
618.3227	0.086957
618.5515	0.088771
618.7803	0.081200
619.0091	0.077194
619.2379	0.073567
619.4667	0.074938
619.6956	0.076140
619.9244	0.077447
620.1533	0.083394
620.3821	0.083098
620.6110	0.077995
620.8399	0.075212
621.0688	0.066060
621.2977	0.062328
621.5266	0.060092
621.7556	0.062201
621.9845	0.068654
622.2135	0.067979
622.4424	0.070657
622.6714	0.069645
622.9004	0.070762
623.1294	0.076435
623.3584	0.075465
623.5874	0.075359
623.8164	0.074305
624.0454	0.073187
624.2745	0.073841
624.5035	0.075950
624.7326	0.073757
624.9617	0.076414
625.1908	0.073925
625.4199	0.069033
625.6490	0.069265
625.8781	0.067431
626.1072	0.063509
626.3364	0.062454
626.5655	0.060809
626.7947	0.058659
627.0238	0.060936
627.2530	0.060029
627.4822	0.061737
627.7114	0.059376
627.9406	0.056191
628.1698	0.053260
628.3991	0.051805
628.6283	0.049380
628.8576	0.048558
629.0868	0.050814
629.3161	0.051426
629.5454	0.054083
629.7747	0.051426
630.0040	0.052101
630.2333	0.050350
630.4626	0.050772
630.6920	0.050118
630.9213	0.048305
631.1507	0.044615
631.3801	0.045121
631.6094	0.043265
631.8388	0.043940
632.0682	0.042675
632.2976	0.044762
632.5271	0.037972
632.7565	0.038457
632.9859	0.038710
633.2154	0.037192
633.4448	0.036855
633.6743	0.038289
633.9038	0.036939
634.1333	0.036517
634.3628	0.036960
634.5923	0.034809
634.8218	0.034366
635.0514	0.034809
635.2809	0.034619
635.5105	0.033924
635.7400	0.037023
635.9696	0.033291
636.1992	0.037023
636.4288	0.040060
636.6584	0.039554
636.8880	0.037740
637.1177	0.038689
637.3473	0.035463
637.5770	0.034851
637.8066	0.035210
638.0363	0.033523
638.2660	0.037551
638.4957	0.036728
638.7254	0.036222
638.9551	0.035273
639.1848	0.033164
639.4145	0.031478
639.6443	0.033491
639.8740	0.031191
640.1038	0.031529
640.3336	0.032728
640.5633	0.031305
640.7931	0.030961
641.0229	0.029080
641.2528	0.030049
641.4826	0.029447
641.7124	0.028500
641.9423	0.026528
642.1721	0.026017
642.4020	0.025309
642.6319	0.026935
642.8617	0.024577
643.0916	0.025986
643.3216	0.024627
643.5515	0.024636
643.7814	0.025155
644.0113	0.024708
644.2413	0.023427
644.4712	0.022815
644.7012	0.021666
644.9312	0.022275
645.1612	0.020877
645.3912	0.021472
645.6212	0.021842
645.8512	0.022419
646.0812	0.021679
646.3113	0.020503
646.5413	0.020951
646.7714	0.021528
647.0015	0.020451
647.2316	0.021912
647.4616	0.020170
647.6918	0.020919
647.9219	0.022386
648.1520	0.025702
648.3821	0.026293
648.6123	0.027464
648.8424	0.027774
649.0726	0.028559
649.3028	0.029081
649.5329	0.028000
649.7631	0.025600
649.9933	0.027904
650.2236	0.025281
650.4538	0.023495
650.6840	0.025863
650.9143	0.023895
651.1445	0.023632
651.3748	0.025967
651.6051	0.023017
651.8354	0.024773
652.0657	0.027091
652.2960	0.026265
652.5263	0.025447
652.7566	0.026669
652.9870	0.025775
653.2173	0.028204
653.4477	0.026695
653.6780	0.028011
653.9084	0.027478
654.1388	0.026562
654.3692	0.029929
654.5996	0.030626
654.8300	0.033237
655.0605	0.046388
655.2909	0.128802
655.5213	0.397392
655.7518	0.802190
655.9823	1.000000
656.2128	1.000000
656.4433	1.000000
656.6738	1.000000
656.9043	0.919401
657.1348	0.723690
657.3653	0.597646
657.5959	0.503394
657.8264	0.447126
658.0570	0.401231
658.2875	0.367851
658.5181	0.330264
658.7487	0.306868
658.9793	0.293742
659.2099	0.236606
659.4406	0.164010
659.6712	0.103096
659.9018	0.061666
660.1325	0.038447
660.3632	0.025845
660.5938	0.023267
660.8245	0.022918
661.0552	0.020698
661.2859	0.020536
661.5166	0.020318
661.7474	0.018932
661.9781	0.017316
662.2088	0.018894
662.4396	0.017459
662.6704	0.020165
662.9011	0.017799
663.1319	0.019467
663.3627	0.020326
663.5935	0.019110
663.8243	0.017286
664.0552	0.018907
664.2860	0.017916
664.5168	0.017673
664.7477	0.019245
664.9786	0.020004
665.2094	0.021339
665.4403	0.021827
665.6712	0.020502
665.9021	0.020890
666.1330	0.020258
666.3640	0.019002
666.5949	0.019919
666.8259	0.018251
667.0568	0.016799
667.2878	0.017183
667.5188	0.018133
667.7497	0.018300
667.9807	0.018461
668.2117	0.017461
668.4428	0.018277
668.6738	0.015515
668.9048	0.018361
669.1359	0.020133
669.3669	0.019690
669.5980	0.017370
669.8291	0.018003
670.0602	0.017792
670.2913	0.019142
670.5224	0.018425
670.7535	0.019310
670.9846	0.018551
671.2157	0.020196
671.4469	0.021546
671.6781	0.023928
671.9092	0.024519
672.1404	0.028462
672.3716	0.029074
672.6028	0.031541
672.8340	0.030023
673.0652	0.029284
673.2964	0.026543
673.5277	0.026606
673.7589	0.024308
673.9902	0.024688
674.2214	0.024519
674.4527	0.021693
674.6840	0.022684
674.9153	0.022790
675.1466	0.022052
675.3779	0.022832
675.6093	0.023254
675.8406	0.021398
676.0719	0.018678
676.3033	0.021377
676.5347	0.019859
676.7661	0.020175
676.9974	0.020323
677.2288	0.018804
677.4602	0.023169
677.6917	0.023148
677.9231	0.023654
678.1545	0.024561
678.3860	0.025067
678.6174	0.024076
678.8489	0.024603
679.0804	0.025636
679.3119	0.026438
679.5434	0.028799
679.7749	0.031878
680.0064	0.031182
680.2379	0.029706
680.4694	0.029559
680.7010	0.027851
680.9325	0.027049
681.1641	0.027829
681.3957	0.029095
681.6273	0.030761
681.8589	0.028715
682.0905	0.027977
682.3221	0.026522
682.5537	0.027492
682.7854	0.025362
683.0170	0.025615
683.2487	0.027872
683.4803	0.025531
683.7120	0.025468
683.9437	0.028441
684.1754	0.028125
684.4071	0.030107
684.6388	0.029474
684.8705	0.031056
685.1023	0.035990
685.3340	0.036412
685.5658	0.037129
685.7975	0.039027
686.0293	0.039090
686.2611	0.036391
686.4929	0.037572
686.7247	0.036349
686.9565	0.036897
687.1883	0.035568
687.4202	0.036602
687.6520	0.038584
687.8838	0.035358
688.1157	0.032975
688.3476	0.034683
688.5795	0.032321
688.8114	0.030571
689.0433	0.031203
689.2752	0.031414
689.5071	0.031267
689.7390	0.030191
689.9710	0.029453
690.2029	0.030297
690.4349	0.028399
690.6669	0.030444
690.8988	0.028357
691.1308	0.030929
691.3628	0.032279
691.5948	0.032911
691.8269	0.031878
692.0589	0.031583
692.2909	0.032300
692.5230	0.032026
692.7550	0.031161
692.9871	0.031878
693.2192	0.031836
693.4513	0.032679
693.6834	0.033101
693.9155	0.030782
694.1476	0.028652
694.3797	0.028673
694.6119	0.026754
694.8440	0.027914
695.0762	0.028715
695.3083	0.030170
695.5405	0.028947
695.7727	0.024034
696.0049	0.025932
696.2371	0.025004
696.4693	0.027197
696.7016	0.029495
696.9338	0.031815
697.1660	0.034577
697.3983	0.034303
697.6306	0.032679
697.8628	0.031709
698.0951	0.031203
698.3274	0.032047
698.5597	0.030571
698.7920	0.031351
699.0243	0.029917
699.2567	0.029854
699.4890	0.029137
699.7214	0.028420
699.9537	0.026923
700.1861	0.028167
700.4185	0.024919
700.6509	0.026649
700.8833	0.025299
701.1157	0.023570
701.3481	0.021735
701.5806	0.025151
701.8130	0.022705
702.0454	0.023591
702.2779	0.023486
702.5104	0.025278
702.7429	0.026754
702.9753	0.028905
703.2078	0.023907
703.4403	0.025700
703.6729	0.021546
703.9054	0.022853
704.1379	0.023802
704.3705	0.024709
704.6030	0.023443
704.8356	0.020301
705.0682	0.021588
705.3008	0.022368
705.5334	0.018952
705.7660	0.019901
705.9986	0.021314
706.2312	0.021946
706.4638	0.025299
706.6965	0.028167
706.9291	0.028673
707.1618	0.032511
707.3945	0.032363
707.6272	0.031836
707.8599	0.031583
708.0926	0.032173
708.3253	0.030571
708.5580	0.032827
708.7907	0.033017
709.0235	0.030423
709.2562	0.027829
709.4890	0.028040
709.7217	0.029812
709.9545	0.029538
710.1873	0.028083
710.4201	0.028673
710.6529	0.030212
710.8857	0.028399
711.1186	0.027429
711.3514	0.027028
711.5842	0.025173
711.8171	0.026691
712.0500	0.025636
712.2828	0.023675
712.5157	0.023802
712.7486	0.025299
712.9815	0.024034
713.2144	0.024624
713.4474	0.026058
713.6803	0.028462
713.9132	0.030044
714.1462	0.031161
714.3791	0.029622
714.6121	0.029580
714.8451	0.027113
715.0781	0.027134
715.3111	0.027450
715.5441	0.028673
715.7771	0.028083
716.0102	0.027070
716.2432	0.024730
716.4762	0.024203
716.7093	0.023570
716.9424	0.024898
717.1754	0.023928
717.4085	0.023718
717.6416	0.023844
717.8747	0.025278
718.1078	0.024962
718.3410	0.025109
718.5741	0.025215
718.8072	0.025257
719.0404	0.024877
719.2736	0.025236
719.5067	0.023043
719.7399	0.025404
719.9731	0.024203
720.2063	0.024245
720.4395	0.023211
720.6727	0.026100
720.9060	0.025151
721.1392	0.026396
721.3725	0.025974
721.6057	0.023675
721.8390	0.025615
722.0723	0.027218
722.3055	0.024898
722.5388	0.024118
722.7721	0.023865
723.0055	0.022853
723.2388	0.023085
723.4721	0.026754
723.7055	0.022389
723.9388	0.024308
724.1722	0.024139
724.4056	0.023570
724.6389	0.020639
724.8723	0.020829
725.1057	0.025236
725.3391	0.027155
725.5726	0.027007
725.8060	0.028293
726.0394	0.026923
726.2729	0.029348
726.5063	0.026691
726.7398	0.029664
726.9733	0.025805
727.2068	0.027872
727.4403	0.027070
727.6738	0.026143
727.9073	0.028251
728.1408	0.029938
728.3743	0.028778
728.6079	0.029474
728.8414	0.027872
729.0750	0.029263
729.3086	0.029516
729.5421	0.027872
729.7757	0.030486
730.0093	0.031330
730.2429	0.033122
730.4766	0.030718
730.7102	0.032701
730.9438	0.035273
731.1775	0.036285
731.4111	0.036517
731.6448	0.037508
731.8785	0.035969
732.1122	0.033776
732.3458	0.033418
732.5795	0.031688
732.8133	0.035400
733.0470	0.034978
733.2807	0.035189
733.5145	0.035674
733.7482	0.035758
733.9820	0.039111
734.2157	0.042675
734.4495	0.041894
734.6833	0.043708
734.9171	0.042274
735.1509	0.039617
735.3847	0.041515
735.6185	0.040165
735.8524	0.039132
736.0862	0.040039
736.3201	0.040144
736.5539	0.038521
736.7878	0.041494
737.0217	0.043244
737.2556	0.040777
737.4895	0.038246
737.7234	0.039301
737.9573	0.036981
738.1912	0.035821
738.4252	0.034219
738.6591	0.035758
738.8931	0.035948
739.1271	0.035927
739.3610	0.041452
739.5950	0.038373
739.8290	0.037424
740.0630	0.037319
740.2970	0.035885
740.5310	0.035885
740.7651	0.032785
740.9991	0.031878
741.2332	0.030086
741.4672	0.028040
741.7013	0.028968
741.9354	0.027049
742.1695	0.029833
742.4036	0.027619
742.6377	0.029263
742.8718	0.028821
743.1059	0.027239
743.3400	0.027703
743.5742	0.025025
743.8083	0.023169
744.0425	0.025215
744.2767	0.024877
744.5108	0.024941
744.7450	0.025468
744.9792	0.024139
745.2134	0.025362
745.4477	0.025109
745.6819	0.023507
745.9161	0.023760
746.1504	0.023064
746.3846	0.023127
746.6189	0.023507
746.8532	0.023781
747.0874	0.024666
747.3217	0.026501
747.5560	0.028293
747.7903	0.027450
748.0247	0.025868
748.2590	0.024919
748.4933	0.023064
748.7277	0.025299
748.9620	0.023992
749.1964	0.025236
749.4308	0.028336
749.6652	0.028061
749.8995	0.031267
750.1339	0.029432
750.3684	0.034915
750.6028	0.032848
750.8372	0.034683
751.0717	0.033523
751.3061	0.032679
751.5406	0.034198
751.7750	0.034767
752.0095	0.033713
752.2440	0.032300
752.4785	0.031583
752.7130	0.032279
752.9475	0.030845
753.1820	0.029601
753.4166	0.032553
753.6511	0.033375
753.8856	0.034071
754.1202	0.034662
754.3548	0.034261
754.5894	0.032194
754.8239	0.034177
755.0585	0.032026
755.2931	0.033291
755.5278	0.035041
755.7624	0.035062
755.9970	0.038141
756.2317	0.037424
756.4663	0.039090
756.7010	0.040798
756.9356	0.043581
757.1703	0.043581
757.4050	0.046976
757.6397	0.048115
757.8744	0.049633
758.1091	0.049106
758.3438	0.047461
758.5786	0.044087
758.8133	0.045606
759.0481	0.045774
759.2828	0.048748
759.5176	0.050034
759.7524	0.051131
759.9872	0.051637
760.2220	0.052206
760.4568	0.053935
760.6916	0.054441
760.9264	0.053935
761.1613	0.053366
761.3961	0.048706
761.6310	0.046955
761.8658	0.043455
762.1007	0.041452
762.3356	0.041114
762.5705	0.039048
762.8054	0.040376
763.0403	0.040756
763.2752	0.042379
763.5101	0.041873
763.7450	0.040271
763.9800	0.041156
764.2149	0.044530
764.4499	0.045205
764.6849	0.048684
764.9198	0.049296
765.1548	0.048537
765.3898	0.049907
765.6248	0.045838
765.8599	0.043666
766.0949	0.042337
766.3299	0.038120
766.5650	0.035969
766.8000	0.035379
767.0351	0.033734
767.2701	0.032068
767.5052	0.031372
767.7403	0.033354
767.9754	0.032806
768.2105	0.036349
768.4456	0.037044
768.6808	0.040924
768.9159	0.039448
769.1510	0.040081
769.3862	0.039448
769.6214	0.037234
769.8565	0.038373
770.0917	0.038289
770.3269	0.036306
770.5621	0.039638
770.7973	0.040081
771.0325	0.040650
771.2677	0.039512
771.5030	0.040650
771.7382	0.037635
771.9735	0.033418
772.2087	0.032110
772.4440	0.034936
772.6793	0.032848
772.9146	0.033881
773.1499	0.036011
773.3852	0.032743
773.6205	0.033586
773.8558	0.032996
774.0911	0.030887
774.3265	0.029200
774.5618	0.027872
774.7972	0.027218
775.0326	0.024835
775.2679	0.025194
775.5033	0.024456
775.7387	0.024013
775.9741	0.023211
776.2095	0.022705
776.4450	0.021609
776.6804	0.023127
776.9158	0.021904
777.1513	0.021799
777.3868	0.021398
777.6222	0.020871
777.8577	0.019901
778.0932	0.021356
778.3287	0.021546
778.5642	0.021756
778.7997	0.023570
779.0352	0.023148
779.2707	0.024561
779.5063	0.027197
779.7418	0.025046
779.9774	0.023654
780.2130	0.021377
780.4485	0.022790
780.6841	0.025151
780.9197	0.026269
781.1553	0.027197
781.3909	0.028968
781.6265	0.029559
781.8622	0.029474
782.0978	0.029622
782.3335	0.029938
782.5691	0.028378
782.8048	0.030149
783.0405	0.027808
783.2761	0.029010
783.5118	0.030065
783.7475	0.030402
783.9832	0.029221
784.2190	0.026881
784.4547	0.026522
784.6904	0.023907
784.9262	0.024477
785.1619	0.023739
785.3977	0.025046
785.6335	0.023401
785.8692	0.023106
786.1050	0.024203
786.3408	0.024181
786.5766	0.025341
786.8124	0.022452
787.0483	0.022874
787.2841	0.025130
787.5199	0.024434
787.7558	0.026227
787.9917	0.025911
788.2275	0.025426
788.4634	0.026480
788.6993	0.024645
788.9352	0.026543
789.1711	0.027323
789.4070	0.025257
789.6429	0.023486
789.8789	0.023106
790.1148	0.022031
790.3507	0.022136
790.5867	0.022853
790.8227	0.019437
791.0586	0.018804
791.2946	0.020301
791.5306	0.020744
791.7666	0.018846
792.0026	0.020723
792.2387	0.019816
792.4747	0.018488
792.7107	0.017497
792.9468	0.017476
793.1828	0.018530
793.4189	0.016084
793.6550	0.019859
793.8910	0.020786
794.1271	0.024983
794.3632	0.024709
794.5993	0.026965
794.8355	0.027787
795.0716	0.025468
795.3077	0.030718
795.5439	0.025911
795.7800	0.026965
796.0162	0.023190
796.2523	0.021314
796.4885	0.020829
796.7247	0.019226
796.9609	0.018193
797.1971	0.017497
797.4333	0.018868
797.6695	0.019353
797.9058	0.020280
798.1420	0.019099
798.3783	0.020154
798.6145	0.019289
798.8508	0.020280
799.0871	0.020913
799.3233	0.017982
799.5596	0.018214
799.7959	0.017286
800.0322	0.016295
800.2686	0.017497
800.5049	0.014819
800.7412	0.017181
800.9776	0.016674
801.2139	0.017202
801.4503	0.017876
801.6867	0.016548
801.9230	0.015388
802.1594	0.015578
802.3958	0.013448
802.6322	0.014228
802.8686	0.014734
803.1051	0.015641
803.3415	0.015536
803.5779	0.015810
803.8144	0.013722
804.0508	0.015009
804.2873	0.015177
804.5238	0.015198
804.7603	0.014524
804.9968	0.016063
805.2333	0.013954
805.4698	0.015219
805.7063	0.014207
805.9428	0.018024
806.1794	0.017855
806.4159	0.020449
806.6525	0.020280
806.8890	0.019816
807.1256	0.019859
807.3622	0.019395
807.5988	0.019247
807.8354	0.019353
808.0720	0.018636
808.3086	0.019078
808.5452	0.018783
808.7818	0.018804
809.0185	0.018973
809.2551	0.018741
809.4918	0.016358
809.7284	0.017413
809.9651	0.018825
810.2018	0.015367
810.4385	0.016548
810.6752	0.015177
810.9119	0.016358
811.1486	0.015641
811.3853	0.014503
811.6221	0.015894
811.8588	0.014460
812.0956	0.013575
812.3323	0.013722
812.5691	0.012710
812.8059	0.010580
813.0427	0.012520
813.2795	0.012963
813.5163	0.012773
813.7531	0.013533
813.9899	0.014650
814.2267	0.017518
814.4636	0.017096
814.7004	0.015093
814.9373	0.014945
815.1742	0.014418
815.4110	0.013912
815.6479	0.013575
815.8848	0.011361
816.1217	0.012689
816.3586	0.010897
816.5955	0.012288
816.8324	0.010791
817.0694	0.012436
817.3063	0.011318
817.5433	0.012436
817.7802	0.012457
818.0172	0.013406
818.2542	0.011761
818.4912	0.013807
818.7282	0.012099
818.9652	0.011571
819.2022	0.009948
819.4392	0.009695
819.6762	0.010749
819.9133	0.010201
820.1503	0.011044
820.3874	0.011761
820.6244	0.011065
820.8615	0.014228
821.0986	0.014292
821.3357	0.013807
821.5727	0.011571
821.8099	0.011677
822.0470	0.011382
822.2841	0.011192
822.5212	0.010770
822.7584	0.011361
822.9955	0.010369
823.2327	0.010391
823.4698	0.009758
823.7070	0.009210
823.9442	0.008134
824.1814	0.008809
824.4186	0.009653
824.6558	0.008914
824.8930	0.009653
825.1302	0.010243
825.3675	0.008640
825.6047	0.011867
825.8419	0.012499
826.0792	0.010475
826.3165	0.011571
826.5537	0.010116
826.7910	0.010159
827.0283	0.010348
827.2656	0.011065
827.5029	0.011508
827.7402	0.012225
827.9776	0.011361
828.2149	0.010159
828.4522	0.010116
828.6896	0.008978
828.9270	0.011529
829.1643	0.012541
829.4017	0.010833
829.6391	0.010454
829.8765	0.010412
830.1139	0.009442
830.3513	0.008809
830.5887	0.009484
830.8261	0.007649
831.0636	0.008345
831.3010	0.007734
831.5385	0.007691
831.7759	0.007270
832.0134	0.009589
832.2509	0.006911
832.4884	0.007670
832.7259	0.006637
832.9634	0.008514
833.2009	0.007544
833.4384	0.007544
833.6759	0.008240
833.9135	0.009168
834.1510	0.009231
834.3886	0.011508
834.6261	0.011487
834.8637	0.007396
835.1013	0.008704
835.3389	0.007818
835.5765	0.009210
835.8141	0.008788
836.0517	0.008472
836.2893	0.006532
836.5269	0.007586
836.7646	0.005773
837.0022	0.006279
837.2399	0.005899
837.4775	0.006426
837.7152	0.006658
837.9529	0.008345
838.1906	0.007038
838.4283	0.006363
838.6660	0.005435
838.9037	0.006300
839.1414	0.005520
839.3791	0.007101
839.6169	0.007628
839.8546	0.006215
840.0924	0.005140
840.3302	0.005604
840.5679	0.006490
840.8057	0.005604
841.0435	0.005351
841.2813	0.006026
841.5191	0.005414
841.7569	0.006426
841.9947	0.006258
842.2326	0.004465
842.4704	0.005941
842.7082	0.005182
842.9461	0.005330
843.1840	0.004444
843.4218	0.003326
843.6597	0.004149
843.8976	0.004803
844.1355	0.004423
844.3734	0.004655
844.6113	0.004592
844.8492	0.005013
845.0872	0.003116
845.3251	0.004592
845.5631	0.004381
845.8010	0.004781
846.0390	0.005351
846.2770	0.005056
846.5149	0.004360
846.7529	0.003643
846.9909	0.005625
847.2289	0.003432
847.4669	0.004760
847.7050	0.004950
847.9430	0.003959
848.1810	0.003790
848.4191	0.004507
848.6571	0.003432
848.8952	0.004634
849.1333	0.004592
849.3713	0.004676
849.6094	0.003537
849.8475	0.004275
850.0856	0.003706
850.3237	0.004043
850.5619	0.003959
850.8000	0.003284
851.0381	0.003516
851.2763	0.004086
851.5144	0.006616
851.7526	0.003558
851.9908	0.004760
852.2289	0.005688
852.4671	0.006279
852.7053	0.007649
852.9435	0.008704
853.1817	0.011803
853.4200	0.011487
853.6582	0.012900
853.8964	0.010918
854.1347	0.012267
854.3729	0.010517
854.6112	0.014292
854.8495	0.012183
855.0877	0.012056
855.3260	0.011635
855.5643	0.011487
855.8026	0.010074
856.0409	0.011993
856.2792	0.010812
856.5176	0.009842
856.7559	0.009568
856.9942	0.010327
857.2326	0.008493
857.4710	0.009442
857.7093	0.007038
857.9477	0.009505
858.1861	0.008893
858.4245	0.008577
858.6629	0.007860
858.9013	0.009378
859.1397	0.008134
859.3781	0.007966
859.6166	0.008619
859.8550	0.007523
860.0935	0.005625
860.3319	0.008113
860.5704	0.006616
860.8089	0.006890
861.0473	0.007122
861.2858	0.005857
861.5243	0.005140
861.7628	0.004739
862.0013	0.005013
862.2399	0.005794
862.4784	0.004296
862.7169	0.006047
862.9555	0.006553
863.1940	0.005288
863.4326	0.004676
863.6712	0.006511
863.9098	0.006026
864.1483	0.004107
864.3869	0.004992
864.6255	0.005309
864.8642	0.004908
865.1028	0.005288
865.3414	0.004613
865.5800	0.004402
865.8187	0.003938
866.0573	0.004043
866.2960	0.001977
866.5347	0.004212
866.7733	0.006616
867.0120	0.005393
867.2507	0.003748
867.4894	0.003580
867.7281	0.004592
867.9669	0.004866
868.2056	0.006131
868.4443	0.005013
868.6831	0.003959
868.9218	0.005878
869.1606	0.004908
869.3993	0.005794
869.6381	0.004444
869.8769	0.004697
870.1157	0.004107
870.3545	0.003622
870.5933	0.003516
870.8321	0.005224
871.0709	0.005035
871.3097	0.005035
871.5486	0.005604
871.7874	0.004043
872.0263	0.004760
872.2651	0.005035
872.5040	0.003263
872.7429	0.004465
872.9818	0.003643
873.2207	0.004107
873.4596	0.002968
873.6985	0.004254
873.9374	0.003031
874.1763	0.005056
874.4153	0.005351
874.6542	0.005288
874.8932	0.004634
875.1321	0.005604
875.3711	0.003748
875.6101	0.005730
875.8491	0.005119
876.0880	0.003854
876.3270	0.005224
876.5661	0.003516
876.8051	0.006026
877.0441	0.005140
877.2831	0.005013
877.5222	0.004803
877.7612	0.007375
878.0003	0.004929
878.2393	0.005983
878.4784	0.005498
878.7175	0.005815
878.9566	0.006532
879.1957	0.006047
879.4348	0.006574
879.6739	0.006911
879.9130	0.005857
880.1521	0.007481
880.3913	0.006279
880.6304	0.008408
880.8696	0.006848
881.1087	0.005899
881.3479	0.005604
881.5871	0.006532
881.8262	0.006532
882.0654	0.004845
882.3046	0.005878
882.5438	0.006068
882.7831	0.006616
883.0223	0.005456
883.2615	0.004634
883.5007	0.004655
883.7400	0.003790
883.9792	0.005161
884.2185	0.005498
884.4578	0.005857
884.6971	0.006321
884.9363	0.005920
885.1756	0.005393
885.4149	0.005309
885.6542	0.006490
885.8936	0.005309
886.1329	0.007291
886.3722	0.005878
886.6116	0.004845
886.8509	0.005562
887.0903	0.003601
887.3296	0.004697
887.5690	0.005815
887.8084	0.004866
888.0478	0.003833
888.2872	0.007122
888.5266	0.004212
888.7660	0.004887
889.0054	0.004170
889.2448	0.003432
889.4843	0.004275
889.7237	0.003073
889.9632	0.003685
890.2026	0.003411
890.4421	0.003263
890.6816	0.004254
890.9211	0.002841
891.1606	0.005372
891.4001	0.003790
891.6396	0.004992
891.8791	0.004887
892.1186	0.004613
892.3581	0.004718
892.5977	0.005688
892.8372	0.004676
893.0768	0.004655
893.3163	0.004296
893.5559	0.004275
893.7955	0.005266
894.0351	0.003348
894.2747	0.004339
894.5143	0.005330
894.7539	0.004296
894.9935	0.004739
895.2331	0.003432
895.4727	0.003854
895.7124	0.004022
895.9520	0.005161
896.1917	0.004423
896.4314	0.004043
896.6710	0.004697
896.9107	0.004043
897.1504	0.005140
897.3901	0.004212
897.6298	0.003601
897.8695	0.005182
898.1092	0.003558
898.3489	0.004402
898.5887	0.004001
898.8284	0.003411
899.0682	0.004381
899.3079	0.004592
899.5477	0.003200
899.7875	0.004992
900.0272	0.005077
900.2670	0.004528
900.5068	0.005604
900.7466	0.004845
900.9864	0.003242
901.2263	0.003537
901.4661	0.004107
901.7059	0.003685
901.9458	0.003601
902.1856	0.006005
902.4255	0.003980
902.6654	0.003917
902.9052	0.003348
903.1451	0.002504
903.3850	0.003516
903.6249	0.003221
903.8648	0.004339
904.1047	0.003622
904.3446	0.004613
904.5846	0.005498
904.8245	0.003706
905.0644	0.004170
905.3044	0.006026
905.5444	0.003854
905.7843	0.003938
906.0243	0.004507
906.2643	0.004550
906.5043	0.004318
906.7443	0.005688
906.9843	0.004022
907.2243	0.004803
907.4643	0.005182
907.7043	0.004634
907.9444	0.004655
908.1844	0.003095
908.4245	0.003390
908.6645	0.002441
908.9046	0.003833
909.1447	0.003811
909.3847	0.002146
909.6248	0.001956
909.8649	0.002673
910.1050	0.003664
910.3452	0.002715
910.5853	0.003643
910.8254	0.001871
911.0655	0.003369
911.3057	0.005266
911.5458	0.004043
911.7860	0.003938
912.0262	0.003516
912.2663	0.004908
912.5065	0.003326
912.7467	0.003116
912.9869	0.003221
913.2271	0.003495
913.4673	0.003158
913.7075	0.002483
913.9478	0.004233
914.1880	0.004022
914.4283	0.002399
914.6685	0.002167
914.9088	0.002082
915.1490	0.003369
915.3893	0.002272
915.6296	0.002841
915.8699	0.002483
916.1102	0.004170
916.3505	0.003242
916.5908	0.003200
916.8311	0.002335
917.0714	0.003685
917.3118	0.003348
917.5521	0.003284
917.7925	0.004296
918.0328	0.004676
918.2732	0.003664
918.5136	0.002420
918.7539	0.004908
918.9943	0.003284
919.2347	0.003432
919.4751	0.003031
919.7155	0.002420
919.9560	0.003769
920.1964	0.003811
920.4368	0.004971
920.6773	0.003073
920.9177	0.003158
921.1582	0.002778
921.3986	0.001724
921.6391	0.002884
921.8796	0.002314
922.1201	0.002905
922.3606	0.002841
922.6011	0.002567
922.8416	0.003854
923.0821	0.003179
923.3226	0.003073
923.5631	0.001850
923.8037	0.002378
924.0442	0.002884
924.2848	0.003369
924.5254	0.002272
924.7659	0.003664
925.0065	0.001808
925.2471	0.002820
925.4877	0.002694
925.7283	0.003495
925.9689	0.001239
926.2095	0.002230
926.4501	0.002293
926.6908	0.002293
926.9314	0.002567
927.1720	0.003706
927.4127	0.002230
927.6533	0.002483
927.8940	0.002884
928.1347	0.003474
928.3754	0.002314
928.6161	0.003095
928.8568	0.001850
929.0975	0.003052
929.3382	0.001935
929.5789	0.003580
929.8196	0.002019
930.0604	0.002399
930.3011	0.002314
930.5419	0.001344
930.7826	0.002061
931.0234	0.003284
931.2642	0.002293
931.5049	0.002610
931.7457	0.002146
931.9865	0.001914
932.2273	0.001766
932.4681	0.001408
932.7089	0.003685
932.9498	0.002799
933.1906	0.000775
933.4314	0.003137
933.6723	0.001661
933.9131	0.003031
934.1540	0.002736
934.3949	0.002610
934.6358	0.001935
934.8766	0.001766
935.1175	0.002399
935.3584	0.001766
935.5993	0.003010
935.8403	0.002968
936.0812	0.001914
936.3221	0.002146
936.5630	0.000880
936.8040	0.001386
937.0449	0.001471
937.2859	0.001766
937.5269	0.001049
937.7678	0.001724
938.0088	0.001344
938.2498	0.000311
938.4908	0.001893
938.7318	0.001576
938.9728	0.001808
939.2138	0.000648
939.4549	0.000269
939.6959	0.002610
939.9369	0.001956
940.1780	0.000923
940.4190	0.001661
940.6601	0.001197
940.9012	0.001260
941.1422	0.001597
941.3833	0.001112
941.6244	0.001281
941.8655	0.001344
942.1066	0.001661
942.3477	0.002103
942.5889	0.001281
942.8300	0.000901
943.0711	0.000227
943.3123	0.000185
943.5534	0.000986
943.7946	0.001323
944.0357	0.000965
944.2769	0.001724
944.5181	0.001661
944.7593	0.001661
945.0005	0.001133
945.2417	0.002504
945.4829	0.001745
945.7241	0.000395
945.9653	0.000670
946.2066	-0.000132
946.4478	0.000880
946.6891	0.000670
946.9303	0.000733
947.1716	0.002061
947.4128	0.001745
947.6541	0.001871
947.8954	0.000459
948.1367	0.001597
948.3780	0.000733
948.6193	0.001956
948.8606	0.001239
949.1019	0.001218
949.3433	0.001576
949.5846	0.001070
949.8259	0.001176
950.0673	0.001935
950.3086	0.000058
950.5500	0.000564
950.7914	0.001091
951.0327	0.000248
951.2741	0.000585
951.5155	0.002610
951.7569	0.001745
951.9983	0.001998
952.2398	0.001386
952.4812	0.001155
952.7226	0.002947
952.9640	0.001724
953.2055	0.000248
953.4469	0.002504
953.6884	0.000374
953.9299	0.001935
954.1713	0.001724
954.4128	0.001829
954.6543	0.000606
954.8958	0.000374
955.1373	0.000733
955.3788	0.000880
955.6203	0.000944
955.8618	0.001365
956.1034	0.002103
956.3449	0.002209
956.5865	0.001808
956.8280	0.001386
957.0696	-0.000343
957.3111	0.001703
957.5527	-0.000849
957.7943	0.001155
958.0359	0.001112
958.2775	0.001176
958.5191	0.001197
958.7607	0.001365
959.0023	0.001534
959.2439	0.001302
959.4856	0.000543
959.7272	0.001618
959.9688	0.001471
960.2105	0.001682
960.4522	0.001661
960.6938	0.000142
960.9355	0.001365
961.1772	0.000016
961.4189	0.000121
961.6606	0.001871
961.9023	0.000374
962.1440	0.001956
962.3857	0.001049
962.6274	0.002230
962.8692	0.001070
963.1109	0.001935
963.3527	0.001218
963.5944	0.003137
963.8362	0.000712
964.0779	0.000880
964.3197	0.001386
964.5615	0.001155
964.8033	0.001007
965.0451	0.002483
965.2869	0.000269
965.5287	0.001281
965.7705	0.000522
966.0123	0.000733
966.2542	0.000522
966.4960	0.001850
966.7379	0.000248
966.9797	0.001513
967.2216	0.000796
967.4634	0.001640
967.7053	0.001070
967.9472	0.002694
968.1891	0.000395
968.4310	0.000121
968.6729	0.000374
968.9148	0.001070
969.1567	-0.000427
969.3987	0.001492
969.6406	0.001597
969.8825	0.001260
970.1245	0.001049
970.3664	0.001850
970.6084	0.000058
970.8504	0.002820
971.0923	0.001218
971.3343	0.000564
971.5763	0.000986
971.8183	0.001028
972.0603	0.002167
972.3023	0.001492
972.5443	0.000121
972.7864	0.000817
973.0284	-0.000132
973.2704	-0.000237
973.5125	0.000311
973.7545	0.001260
973.9966	0.000923
974.2387	0.001091
974.4807	0.000480
974.7228	0.000438
974.9649	-0.000448
975.2070	0.000058
975.4491	-0.000153
975.6912	0.002863
975.9333	0.001091
976.1755	0.000648
976.4176	0.001260
976.6597	0.000016
976.9019	0.001070
977.1440	0.000480
977.3862	0.000290
977.6283	0.000648
977.8705	-0.000047
978.1127	0.001028
978.3549	-0.000026
978.5971	0.000923
978.8393	0.001344
979.0815	0.002715
979.3237	0.000353
979.5659	0.001007
979.8082	0.001070
980.0504	0.000227
980.2926	0.000775
980.5349	0.000311
980.7771	0.000880
981.0194	0.001661
981.2617	-0.000069
981.5040	0.001176
981.7462	0.000480
981.9885	-0.000216
982.2308	0.001260
982.4731	0.002778
982.7155	-0.000300
982.9578	0.000986
983.2001	0.000923
983.4424	0.001998
983.6848	0.000712
983.9271	0.000817
984.1695	0.000290
984.4118	-0.000364
984.6542	0.000901
984.8966	0.001386
985.1390	0.000459
985.3814	0.001787
985.6238	-0.000153
985.8662	0.001956
986.1086	0.002420
986.3510	-0.000237
986.5934	-0.000216
986.8358	0.002293
987.0783	0.001682
987.3207	-0.000174
987.5632	0.000817
987.8056	0.000142
988.0481	0.000733
988.2906	0.000880
988.5331	0.001028
988.7756	0.000838
989.0180	0.000817
989.2605	0.000965
989.5031	0.001386
989.7456	0.000163
989.9881	0.000395
990.2306	0.000838
990.4732	-0.000216
990.7157	0.001893
990.9582	0.000796
991.2008	0.001471
991.4434	0.000290
991.6859	0.000880
991.9285	0.000501
992.1711	-0.000722
992.4137	0.000058
992.6563	0.000901
992.8989	-0.000111
993.1415	0.000606
993.3841	0.000986
993.6267	0.000775
993.8694	-0.001144
994.1120	0.001133
994.3547	0.000248
994.5973	-0.000743
994.8400	0.000163
995.0826	0.000691
995.3253	0.001450
995.5680	0.001302
995.8107	0.001155
996.0534	0.002525
996.2961	0.000480
996.5388	0.001155
996.7815	0.000416
997.0242	0.001661
997.2670	0.000163
997.5097	0.000438
997.7524	-0.000807
997.9952	0.000838
998.2379	-0.000743
998.4807	0.001429
998.7235	0.001703
998.9662	0.000100
999.2090	0.001176
999.4518	0.001513
999.6946	-0.000617
999.9374	-0.000300
1000.1802	0.000775
1000.4230	0.000880
1000.6659	0.000733
1000.9087	0.000395
1001.1515	0.001977
1001.3944	0.000564
1001.6372	0.000227
1001.8801	0.000142
1002.1230	-0.000469
1002.3658	0.001260
1002.6087	0.001893
1002.8516	0.000459
1003.0945	-0.000047
1003.3374	0.000923
1003.5803	0.002167
1003.8232	0.001112
1004.0661	0.000121
1004.3091	0.001281
1004.5520	0.000480
1004.7949	0.001091
1005.0379	0.000880
1005.2808	-0.000490
1005.5238	0.000648
1005.7667	0.000121
1006.0097	0.001091
1006.2527	0.000480
1006.4957	0.001344
1006.7387	0.000923
1006.9817	0.000838
1007.2247	0.000480
1007.4677	0.000965
1007.7107	0.000121
1007.9538	0.001450
1008.1968	0.001091
1008.4398	0.001724
1008.6829	0.001239
1008.9259	0.001070
1009.1690	0.001155
1009.4121	0.000648
1009.6551	0.001344
1009.8982	0.001070
1010.1413	0.000100
1010.3844	0.000796
1010.6275	0.000543
1010.8706	0.000206
1011.1137	0.000648
1011.3568	0.000923
1011.6000	0.000606
1011.8431	0.000880
1012.0863	0.000206
1012.3294	0.001555
1012.5726	0.000206
1012.8157	0.000923
1013.0589	0.000606
1013.3021	0.000648
1013.5452	0.000037
1013.7884	0.001661
1014.0316	0.001344
1014.2748	0.000670
1014.5180	0.000121
1014.7613	0.000901
1015.0045	-0.001060
1015.2477	0.000395
1015.4909	0.000901
1015.7342	0.000691
1015.9774	0.000670
1016.2207	0.000058
1016.4640	0.000016
1016.7072	0.000817
1016.9505	0.000501
1017.1938	0.000543
1017.4371	-0.000195
1017.6804	0.000543
1017.9237	-0.000216
1018.1670	0.001365
1018.4103	0.000859
1018.6536	0.000543
1018.8969	0.000606
1019.1403	0.000606
1019.3836	0.000543
1019.6270	0.000923
1019.8703	0.001112
1020.1137	0.001197
1020.3571	0.000353
1020.6004	-0.000111
1020.8438	-0.001502
1021.0872	0.001492
1021.3306	-0.000090
1021.5740	-0.001123
1021.8174	0.000712
1022.0608	0.000480
1022.3042	0.000332
1022.5477	0.000543
1022.7911	-0.000279
1023.0345	0.001408
