# Wavelength (nm)	Intensity (a.u.)
197.7802	0.000232
197.9842	0.000527
198.1882	0.000190
198.3922	0.000422
198.5963	0.002193
198.8003	0.000654
199.0044	0.000590
199.2085	0.000970
199.4126	0.002678
199.6168	0.000443
199.8209	0.000633
200.0251	-0.000928
200.2292	-0.000042
200.4334	-0.000063
200.6376	0.000443
200.8418	0.000590
201.0461	0.000759
201.2503	-0.000021
201.4546	-0.000105
201.6589	0.000169
201.8631	0.000675
202.0674	0.000464
202.2718	0.000169
202.4761	0.000422
202.6805	0.001392
202.8848	0.000042
203.0892	0.000907
203.2936	-0.000443
203.4980	0.000316
203.7024	-0.001181
203.9069	0.001919
204.1113	0.000506
204.3158	0.000865
204.5203	0.000063
204.7248	0.000675
204.9293	0.000021
205.1338	0.000358
205.3384	-0.000295
205.5430	-0.000148
205.7475	0.000422
205.9521	0.000970
206.1567	0.000717
206.3614	0.000042
206.5660	0.000949
206.7706	0.001265
206.9753	-0.000084
207.1800	0.001666
207.3847	-0.000548
207.5894	0.001033
207.7941	0.000337
207.9989	0.000042
208.2036	0.000780
208.4084	0.000443
208.6132	0.001286
208.8180	0.002045
209.0228	0.000464
209.2276	0.001434
209.4325	0.001581
209.6373	0.002319
209.8422	-0.000169
210.0471	-0.000105
210.2520	-0.001160
210.4569	0.001181
210.6618	0.000675
210.8668	0.000843
211.0718	0.000042
211.2767	0.000843
211.4817	0.000169
211.6867	0.000843
211.8918	0.000105
212.0968	0.001096
212.3018	0.000358
212.5069	0.000316
212.7120	0.001286
212.9171	0.000611
213.1222	-0.000843
213.3273	0.000949
213.5325	0.000590
213.7376	0.000654
213.9428	0.000169
214.1480	0.000780
214.3532	0.000422
214.5584	0.000886
214.7636	0.000169
214.9689	0.000063
215.1741	0.000886
215.3794	0.000654
215.5847	0.001455
215.7900	0.001160
215.9953	-0.000021
216.2007	0.002594
216.4060	0.000190
216.6114	0.001307
216.8168	-0.000274
217.0222	0.000148
217.2276	0.000253
217.4330	0.000780
217.6384	0.000527
217.8439	0.001202
218.0494	-0.000127
218.2548	-0.000232
218.4603	-0.000822
218.6659	0.000654
218.8714	-0.000253
219.0769	0.000401
219.2825	0.000190
219.4881	0.000865
219.6936	-0.000316
219.8992	0.001181
220.1049	-0.000042
220.3105	0.000232
220.5161	0.000422
220.7218	0.000506
220.9275	0.000464
221.1332	0.001750
221.3389	0.000295
221.5446	0.002319
221.7503	-0.000042
221.9561	0.001961
222.1618	0.000865
222.3676	0.000717
222.5734	-0.000654
222.7792	0.000696
222.9850	0.000127
223.1909	0.001539
223.3967	0.000928
223.6026	0.000232
223.8085	-0.000253
224.0144	0.000443
224.2203	0.000084
224.4262	-0.000211
224.6322	0.000169
224.8381	0.002340
225.0441	0.000274
225.2501	0.000970
225.4561	0.000190
225.6621	0.002109
225.8681	0.000485
226.0742	0.000717
226.2802	0.000401
226.4863	-0.000063
226.6924	0.000991
226.8985	0.000190
227.1046	0.000949
227.3107	0.000949
227.5169	-0.000042
227.7230	0.001602
227.9292	-0.000886
228.1354	0.001455
228.3416	0.001033
228.5478	0.001624
228.7541	0.000696
228.9603	0.001033
229.1666	-0.000443
229.3729	0.000084
229.5791	0.001118
229.7855	0.002277
229.9918	0.000843
230.1981	0.001096
230.4045	0.000822
230.6108	0.001033
230.8172	-0.000042
231.0236	-0.000696
231.2300	0.000380
231.4364	0.001223
231.6429	0.000485
231.8493	0.000675
232.0558	-0.001012
232.2623	0.001139
232.4688	0.000822
232.6753	0.001181
232.8818	0.000527
233.0884	0.001518
233.2949	0.001518
233.5015	0.001033
233.7081	-0.000717
233.9147	-0.000611
234.1213	0.000443
234.3279	0.000422
234.5346	0.000886
234.7413	0.001160
234.9479	0.000485
235.1546	-0.000422
235.3613	0.000422
235.5680	-0.000190
235.7748	0.000485
235.9815	0.000211
236.1883	0.001139
236.3951	0.002467
236.6018	0.001581
236.8087	0.000127
237.0155	-0.000485
237.2223	0.000127
237.4292	0.000865
237.6360	0.001181
237.8429	-0.000337
238.0498	0.002045
238.2567	-0.002509
238.4636	0.000527
238.6706	-0.000021
238.8775	0.000822
239.0845	0.000380
239.2915	0.000021
239.4985	0.001181
239.7055	0.000865
239.9125	0.000970
240.1195	0.000548
240.3266	0.001771
240.5337	0.000611
240.7407	0.000696
240.9478	0.001012
241.1549	0.000232
241.3621	0.000232
241.5692	0.000548
241.7764	0.000696
241.9835	0.000548
242.1907	-0.000169
242.3979	0.002340
242.6051	0.002214
242.8124	0.000148
243.0196	0.001328
243.2269	0.000253
243.4341	0.002340
243.6414	0.000000
243.8487	0.001371
244.0560	-0.000316
244.2634	0.000358
244.4707	0.000485
244.6781	0.001687
244.8854	-0.000127
245.0928	0.000654
245.3002	-0.000654
245.5076	0.001244
245.7151	0.000654
245.9225	0.001118
246.1300	-0.000232
246.3375	0.001560
246.5449	0.000907
246.7524	0.000337
246.9600	-0.000021
247.1675	0.001054
247.3750	0.001392
247.5826	-0.000021
247.7902	-0.000211
247.9978	0.001118
248.2054	-0.000611
248.4130	0.000295
248.6206	0.000865
248.8283	0.000970
249.0359	0.000738
249.2436	0.001223
249.4513	0.000253
249.6590	0.001349
249.8667	-0.000443
250.0745	0.000527
250.2822	-0.000506
250.4900	0.000380
250.6978	-0.000717
250.9056	0.000401
251.1134	0.000780
251.3212	0.000380
251.5290	-0.001075
251.7369	0.001792
251.9447	0.000316
252.1526	0.002214
252.3605	-0.000316
252.5684	0.000991
252.7763	0.000253
252.9843	0.001371
253.1922	-0.000295
253.4002	0.002256
253.6082	0.001307
253.8162	0.001834
254.0242	0.001792
254.2322	0.000443
254.4402	-0.000211
254.6483	0.001708
254.8564	0.000527
255.0644	0.000316
255.2725	0.001328
255.4806	-0.000316
255.6888	-0.000380
255.8969	0.000148
256.1051	0.001033
256.3132	0.001455
256.5214	-0.000801
256.7296	0.001434
256.9378	0.000063
257.1460	0.001371
257.3543	-0.000380
257.5625	0.001371
257.7708	-0.000654
257.9791	0.000337
258.1874	0.000569
258.3957	0.000717
258.6040	0.000654
258.8124	0.001075
259.0207	0.000654
259.2291	0.001328
259.4375	-0.000380
259.6459	-0.000042
259.8543	-0.000780
260.0627	0.000907
260.2711	0.000337
260.4796	0.001813
260.6881	0.000485
260.8965	0.000148
261.1050	0.000485
261.3135	0.000738
261.5221	-0.000169
261.7306	0.001392
261.9392	0.001265
262.1477	0.000422
262.3563	-0.001307
262.5649	0.000949
262.7735	0.000337
262.9822	0.002109
263.1908	0.000590
263.3995	0.002066
263.6081	-0.000316
263.8168	0.001581
264.0255	0.000759
264.2342	0.000380
264.4429	-0.000527
264.6517	0.001666
264.8604	-0.000337
265.0692	0.001118
265.2780	0.001581
265.4868	0.001033
265.6956	0.000696
265.9044	0.001096
266.1133	0.000127
266.3221	0.000548
266.5310	0.001033
266.7399	0.000759
266.9488	0.000780
267.1577	0.002172
267.3666	0.000759
267.5755	0.000611
267.7845	0.000527
267.9935	0.002256
268.2024	0.002235
268.4114	0.001307
268.6205	-0.000021
268.8295	0.001413
269.0385	-0.000211
269.2476	0.001813
269.4566	0.001054
269.6657	0.000569
269.8748	0.000717
270.0839	0.000738
270.2931	-0.000021
270.5022	0.002467
270.7114	0.000443
270.9205	0.000548
271.1297	0.000928
271.3389	0.000886
271.5481	0.000886
271.7573	0.001392
271.9666	0.000084
272.1758	-0.000063
272.3851	-0.000127
272.5944	0.000527
272.8037	0.000970
273.0130	0.002868
273.2223	0.000021
273.4316	0.002910
273.6410	0.000590
273.8504	0.001286
274.0597	-0.000801
274.2691	0.000780
274.4785	-0.001202
274.6880	0.000401
274.8974	0.000358
275.1069	-0.000274
275.3163	0.000928
275.5258	0.001581
275.7353	0.001476
275.9448	0.000843
276.1543	0.000485
276.3639	0.001118
276.5734	-0.000105
276.7830	0.002298
276.9926	0.000316
277.2022	0.002404
277.4118	-0.000190
277.6214	0.001834
277.8310	0.000105
278.0407	0.002636
278.2503	0.000801
278.4600	-0.000211
278.6697	0.000822
278.8794	-0.000675
279.0891	-0.000358
279.2989	0.001307
279.5086	-0.000633
279.7184	-0.000148
279.9281	0.001455
280.1379	0.001349
280.3477	0.000127
280.5576	0.000063
280.7674	0.000232
280.9772	0.001476
281.1871	-0.000042
281.3970	-0.000105
281.6069	0.000295
281.8168	0.000232
282.0267	0.001413
282.2366	0.001940
282.4466	0.001054
282.6565	0.001708
282.8665	0.000063
283.0765	0.001349
283.2865	0.001244
283.4965	0.000949
283.7065	0.001202
283.9166	0.001075
284.1266	-0.000991
284.3367	0.000569
284.5468	-0.000232
284.7569	0.000485
284.9670	0.000337
285.1771	0.001181
285.3873	0.000548
285.5974	0.000590
285.8076	0.001223
286.0178	0.000084
286.2280	0.000822
286.4382	0.000633
286.6484	0.002024
286.8587	0.000801
287.0689	0.000169
287.2792	0.001856
287.4895	-0.000337
287.6998	0.000211
287.9101	0.000865
288.1204	0.000611
288.3308	0.000295
288.5411	0.002362
288.7515	-0.000042
288.9619	0.001413
289.1723	-0.000907
289.3827	0.001518
289.5931	-0.000042
289.8035	0.001181
290.0140	0.000991
290.2245	0.001328
290.4349	0.001118
290.6454	-0.000211
290.8559	0.000949
291.0665	0.000949
291.2770	-0.000675
291.4875	0.001075
291.6981	0.000780
291.9087	-0.000443
292.1193	-0.000274
292.3299	0.001982
292.5405	0.000358
292.7511	0.000485
292.9618	0.000780
293.1724	0.000506
293.3831	0.000611
293.5938	0.000759
293.8045	0.001307
294.0152	0.001645
294.2260	0.000063
294.4367	0.000042
294.6475	-0.000401
294.8582	0.000633
295.0690	-0.000148
295.2798	0.000822
295.4906	0.000021
295.7015	0.001033
295.9123	-0.000527
296.1232	0.000527
296.3340	0.000548
296.5449	0.002383
296.7558	0.000295
296.9667	0.000696
297.1777	0.000759
297.3886	0.001455
297.5995	0.000506
297.8105	0.000696
298.0215	0.000401
298.2325	-0.000190
298.4435	0.000169
298.6545	-0.000042
298.8656	0.000780
299.0766	0.001181
299.2877	-0.000084
299.4988	0.001371
299.7099	0.001560
299.9210	0.000675
300.1321	-0.000401
300.3432	0.001096
300.5544	0.000295
300.7655	0.001202
300.9767	0.002087
301.1879	-0.000654
301.3991	0.000865
301.6103	0.000907
301.8215	-0.000105
302.0328	0.001139
302.2441	0.001118
302.4553	0.001497
302.6666	-0.000654
302.8779	0.002193
303.0892	-0.000738
303.3006	0.001075
303.5119	0.000527
303.7233	0.000211
303.9346	0.000654
304.1460	0.000759
304.3574	0.001645
304.5688	0.000801
304.7803	-0.000190
304.9917	-0.000696
305.2031	0.000295
305.4146	0.000590
305.6261	0.000190
305.8376	0.000464
306.0491	0.001602
306.2606	-0.000401
306.4722	0.000084
306.6837	0.000443
306.8953	0.000358
307.1069	0.000654
307.3184	0.001202
307.5301	-0.000042
307.7417	-0.000865
307.9533	0.000696
308.1650	0.001160
308.3766	0.002109
308.5883	-0.000148
308.8000	0.000590
309.0117	0.000506
309.2234	-0.000063
309.4351	0.001476
309.6469	0.000316
309.8586	0.001265
310.0704	0.000169
310.2822	0.000232
310.4940	0.000569
310.7058	-0.000506
310.9176	0.002509
311.1295	0.000380
311.3413	0.001139
311.5532	0.000337
311.7651	0.000991
311.9770	-0.000738
312.1889	0.000042
312.4008	0.000105
312.6127	0.002362
312.8247	-0.000232
313.0366	0.001455
313.2486	-0.000337
313.4606	0.000464
313.6726	0.000316
313.8846	0.000759
314.0967	0.000000
314.3087	0.000443
314.5208	0.000148
314.7328	-0.000127
314.9449	0.000295
315.1570	0.000464
315.3692	-0.001118
315.5813	0.001687
315.7934	0.000527
316.0056	0.000633
316.2177	0.000148
316.4299	0.001160
316.6421	0.000991
316.8543	0.000654
317.0666	0.000801
317.2788	0.001328
317.4911	0.000970
317.7033	0.000928
317.9156	0.000928
318.1279	0.000148
318.3402	-0.000127
318.5525	0.000527
318.7649	0.000190
318.9772	0.001328
319.1896	0.000295
319.4019	0.000590
319.6143	0.000443
319.8267	0.001033
320.0392	0.000569
320.2516	0.001455
320.4640	0.001244
320.6765	0.000211
320.8890	0.000907
321.1014	0.000295
321.3139	-0.001012
321.5265	0.001455
321.7390	0.001371
321.9515	0.000738
322.1641	-0.000169
322.3766	0.000211
322.5892	0.000991
322.8018	0.000274
323.0144	0.000063
323.2270	0.000569
323.4397	0.000148
323.6523	0.001476
323.8650	-0.000042
324.0777	0.000590
324.2904	0.000527
324.5031	0.000780
324.7158	0.000485
324.9285	-0.000443
325.1412	0.002024
325.3540	0.000274
325.5668	-0.000316
325.7796	0.001371
325.9924	0.000169
326.2052	0.001033
326.4180	0.000886
326.6308	0.001877
326.8437	0.000358
327.0566	0.000063
327.2694	0.000696
327.4823	0.000358
327.6952	0.000843
327.9082	0.001181
328.1211	0.000506
328.3340	0.000611
328.5470	0.002172
328.7600	0.001961
328.9730	-0.000063
329.1860	0.001581
329.3990	-0.000843
329.6120	0.000780
329.8251	0.000822
330.0381	0.000717
330.2512	0.000295
330.4643	0.000169
330.6774	0.000190
330.8905	0.002467
331.1036	0.000042
331.3167	0.001813
331.5299	-0.000253
331.7431	0.000717
331.9562	-0.000148
332.1694	0.000633
332.3826	0.000380
332.5959	0.000633
332.8091	0.000380
333.0223	0.001813
333.2356	-0.000211
333.4489	0.001371
333.6622	0.000548
333.8755	0.001413
334.0888	0.001244
334.3021	0.002446
334.5154	0.001139
334.7288	0.001539
334.9422	0.000759
335.1555	0.001075
335.3689	0.000316
335.5823	0.001708
335.7958	0.000675
336.0092	0.001244
336.2227	0.000506
336.4361	0.001033
336.6496	0.000822
336.8631	0.000590
337.0766	-0.000380
337.2901	0.001118
337.5036	0.001223
337.7172	0.001581
337.9307	0.001286
338.1443	0.000590
338.3579	0.000759
338.5715	0.001012
338.7851	0.000148
338.9987	0.002130
339.2124	0.000464
339.4260	0.002952
339.6397	-0.000548
339.8533	0.000822
340.0670	-0.001244
340.2807	0.000675
340.4945	-0.000232
340.7082	0.001033
340.9219	0.001202
341.1357	0.002066
341.3495	0.000042
341.5633	0.000316
341.7771	0.000527
341.9909	0.000886
342.2047	-0.000211
342.4185	0.000759
342.6324	0.000316
342.8463	0.000316
343.0601	0.001223
343.2740	0.001118
343.4879	0.000148
343.7019	0.000316
343.9158	0.000886
344.1297	-0.000105
344.3437	0.000105
344.5577	0.001096
344.7717	0.000822
344.9857	0.000358
345.1997	0.001560
345.4137	0.000443
345.6277	-0.000401
345.8418	0.001033
346.0559	-0.000380
346.2699	0.000738
346.4840	-0.000401
346.6981	0.000717
346.9123	0.000274
347.1264	0.001223
347.3406	-0.000485
347.5547	0.000654
347.7689	0.000358
347.9831	-0.000970
348.1973	0.001202
348.4115	0.000717
348.6257	0.000253
348.8400	0.000190
349.0542	-0.000970
349.2685	0.000611
349.4828	0.000232
349.6971	-0.000337
349.9114	0.001560
350.1257	0.000190
350.3400	0.000569
350.5544	0.001877
350.7687	0.000042
350.9831	0.001181
351.1975	0.000021
351.4119	0.002172
351.6263	0.000105
351.8407	0.001581
352.0552	-0.001371
352.2696	0.001497
352.4841	0.000105
352.6986	0.001075
352.9131	0.001139
353.1276	0.000506
353.3421	-0.000190
353.5566	0.001813
353.7712	0.000232
353.9858	0.001455
354.2003	0.002003
354.4149	-0.000611
354.6295	0.000063
354.8441	0.001919
355.0588	0.000105
355.2734	0.000738
355.4881	-0.000548
355.7027	0.001265
355.9174	0.001581
356.1321	0.001012
356.3468	0.000401
356.5615	0.000949
356.7763	0.000633
356.9910	-0.000485
357.2058	0.000084
357.4206	0.000127
357.6353	0.000274
357.8501	0.001602
358.0650	-0.000464
358.2798	-0.000295
358.4946	0.001792
358.7095	0.000759
358.9243	0.000527
359.1392	0.000759
359.3541	0.000611
359.5690	0.001729
359.7839	0.001560
359.9989	0.001497
360.2138	-0.001349
360.4288	0.001371
360.6438	0.000738
360.8587	0.002066
361.0737	-0.000527
361.2888	0.000949
361.5038	-0.001096
361.7188	0.001328
361.9339	0.000042
362.1489	-0.000696
362.3640	-0.000843
362.5791	0.000042
362.7942	0.001096
363.0093	0.000527
363.2245	0.000907
363.4396	0.001286
363.6548	-0.000211
363.8699	0.001244
364.0851	0.000548
364.3003	0.001244
364.5155	0.000928
364.7308	0.000105
364.9460	0.000485
365.1612	0.001624
365.3765	0.000865
365.5918	0.000759
365.8071	0.000991
366.0224	0.001413
366.2377	0.001328
366.4530	-0.001033
366.6684	0.000865
366.8837	0.001961
367.0991	0.001560
367.3145	0.000991
367.5299	-0.000084
367.7453	0.000464
367.9607	0.000042
368.1761	0.000295
368.3916	0.001434
368.6070	0.000527
368.8225	0.000316
369.0380	0.002045
369.2535	-0.000717
369.4690	0.001139
369.6845	0.001328
369.9001	0.000253
370.1156	0.000021
370.3312	0.000970
370.5468	-0.000021
370.7624	0.000527
370.9780	0.000590
371.1936	0.003015
371.4092	0.000380
371.6249	0.000527
371.8405	0.000886
372.0562	-0.000105
372.2719	0.000696
372.4876	-0.000127
372.7033	0.001771
372.9190	0.001012
373.1348	0.000316
373.3505	0.000822
373.5663	0.001919
373.7820	0.001645
373.9978	0.000843
374.2136	-0.000506
374.4294	0.001455
374.6453	0.000590
374.8611	0.001012
375.0770	0.000232
375.2928	0.001096
375.5087	-0.000148
375.7246	-0.000464
375.9405	0.000042
376.1564	0.001307
376.3724	0.001919
376.5883	0.000717
376.8043	0.001075
377.0203	0.000295
377.2362	0.000675
377.4522	0.000105
377.6682	0.000675
377.8843	0.000633
378.1003	0.001033
378.3164	-0.000696
378.5324	0.000590
378.7485	-0.001666
378.9646	0.001708
379.1807	0.000654
379.3968	0.001792
379.6129	0.000696
379.8291	0.000485
380.0452	0.001624
380.2614	0.000928
380.4776	0.001328
380.6938	0.001708
380.9100	0.000822
381.1262	0.000506
381.3424	0.001624
381.5587	0.001265
381.7749	0.002235
381.9912	0.001539
382.2075	-0.000548
382.4238	0.002193
382.6401	0.000401
382.8564	0.000274
383.0728	0.000316
383.2891	0.001645
383.5055	0.000696
383.7219	0.001771
383.9382	0.001729
384.1546	0.001560
384.3711	0.000548
384.5875	0.002615
384.8039	0.000464
385.0204	0.001096
385.2368	-0.000506
385.4533	0.001687
385.6698	0.001729
385.8863	0.001666
386.1028	0.001792
386.3194	0.000485
386.5359	0.000654
386.7525	0.001771
386.9690	0.001518
387.1856	0.000949
387.4022	0.001834
387.6188	0.001856
387.8355	0.001223
388.0521	0.001012
388.2687	0.002256
388.4854	0.001645
388.7021	0.002488
388.9188	0.003057
389.1355	0.003521
389.3522	0.002868
389.5689	0.001539
389.7856	0.002340
390.0024	0.001666
390.2192	0.005292
390.4359	0.002973
390.6527	0.004069
390.8695	0.003964
391.0863	0.003015
391.3032	0.003732
391.5200	0.004217
391.7369	0.004512
391.9537	0.004175
392.1706	0.004428
392.3875	0.004365
392.6044	0.004681
392.8213	0.006768
393.0383	0.005841
393.2552	0.006178
393.4722	0.006811
393.6891	0.006642
393.9061	0.006705
394.1231	0.006642
394.3401	0.007380
394.5572	0.007949
394.7742	0.006452
394.9912	0.008497
395.2083	0.007443
395.4254	0.008371
395.6425	0.006916
395.8596	0.008961
396.0767	0.009552
396.2938	0.009320
396.5109	0.008582
396.7281	0.009889
396.9453	0.010458
397.1624	0.009467
397.3796	0.009678
397.5968	0.011239
397.8140	0.010690
398.0313	0.010543
398.2485	0.012588
398.4658	0.013727
398.6830	0.013684
398.9003	0.014465
399.1176	0.013579
399.3349	0.012736
399.5522	0.011428
399.7696	0.013769
399.9869	0.013010
400.2043	0.014675
400.4216	0.012778
400.6390	0.014317
400.8564	0.013010
401.0738	0.013579
401.2912	0.013642
401.5087	0.015624
401.7261	0.014507
401.9436	0.013938
402.1610	0.015034
402.3785	0.016215
402.5960	0.016341
402.8135	0.017079
403.0310	0.017501
403.2486	0.016278
403.4661	0.015983
403.6837	0.016784
403.9013	0.014992
404.1189	0.017311
404.3365	0.017374
404.5541	0.017712
404.7717	0.017838
404.9893	0.018787
405.2070	0.018597
405.4246	0.019968
405.6423	0.020305
405.8600	0.020938
406.0777	0.020601
406.2954	0.019103
406.5131	0.019420
406.7309	0.019251
406.9486	0.018534
407.1664	0.020137
407.3842	0.019757
407.6020	0.019609
407.8198	0.018977
408.0376	0.018640
408.2554	0.020537
408.4733	0.019525
408.6911	0.021739
408.9090	0.020537
409.1269	0.022224
409.3448	0.021360
409.5627	0.022836
409.7806	0.020622
409.9985	0.022351
410.2165	0.020959
410.4344	0.019947
410.6524	0.021507
410.8704	0.019251
411.0884	0.021022
411.3064	0.021085
411.5244	0.020959
411.7424	0.019251
411.9605	0.019609
412.1785	0.021043
412.3966	0.022646
412.6147	0.021971
412.8328	0.023068
413.0509	0.022983
413.2690	0.021676
413.4871	0.023236
413.7053	0.023784
413.9234	0.022498
414.1416	0.022224
414.3598	0.022983
414.5780	0.024522
414.7962	0.022435
415.0144	0.022414
415.2326	0.020622
415.4509	0.024354
415.6692	0.022287
415.8874	0.021676
416.1057	0.022878
416.3240	0.021570
416.5423	0.021233
416.7606	0.022983
416.9790	0.021760
417.1973	0.022751
417.4157	0.021676
417.6341	0.023700
417.8524	0.024565
418.0708	0.024227
418.2893	0.023004
418.5077	0.022941
418.7261	0.022962
418.9446	0.022540
419.1630	0.021718
419.3815	0.024185
419.6000	0.025303
419.8185	0.023046
420.0370	0.025260
420.2555	0.025092
420.4741	0.025935
420.6926	0.024185
420.9112	0.024733
421.1298	0.026673
421.3483	0.025640
421.5669	0.026483
421.7856	0.028065
422.0042	0.029056
422.2228	0.029372
422.4415	0.028740
422.6601	0.026673
422.8788	0.026757
423.0975	0.028529
423.3162	0.026842
423.5349	0.026631
423.7536	0.028002
423.9724	0.027032
424.1911	0.028023
424.4099	0.026167
424.6287	0.026230
424.8475	0.025092
425.0663	0.026083
425.2851	0.025387
425.5039	0.025830
425.7228	0.025745
425.9416	0.025682
426.1605	0.023679
426.3793	0.022308
426.5982	0.022878
426.8171	0.022287
427.0361	0.022351
427.2550	0.025176
427.4739	0.026125
427.6929	0.025914
427.9118	0.026547
428.1308	0.024375
428.3498	0.024818
428.5688	0.025851
428.7878	0.024902
429.0068	0.022351
429.2259	0.024565
429.4449	0.025324
429.6640	0.024775
429.8831	0.025303
430.1022	0.028993
430.3213	0.027938
430.5404	0.028571
430.7595	0.028803
430.9787	0.029836
431.1978	0.027285
431.4170	0.027938
431.6362	0.026230
431.8553	0.025071
432.0745	0.024480
432.2938	0.022962
432.5130	0.024733
432.7322	0.022604
432.9515	0.022920
433.1707	0.021971
433.3900	0.021381
433.6093	0.023637
433.8286	0.025998
434.0479	0.028149
434.2673	0.030595
434.4866	0.027306
434.7059	0.026989
434.9253	0.023658
435.1447	0.025872
435.3641	0.023152
435.5835	0.025492
435.8029	0.024227
436.0223	0.023489
436.2418	0.023173
436.4612	0.022372
436.6807	0.025872
436.9001	0.024501
437.1196	0.023637
437.3391	0.024986
437.5586	0.025640
437.7782	0.025471
437.9977	0.023257
438.2173	0.022772
438.4368	0.023658
438.6564	0.025893
438.8760	0.025556
439.0956	0.025281
439.3152	0.024227
439.5348	0.024312
439.7545	0.025324
439.9741	0.024797
440.1938	0.021697
440.4135	0.023531
440.6331	0.021866
440.8528	0.022962
441.0725	0.025197
441.2923	0.024986
441.5120	0.025893
441.7318	0.028107
441.9515	0.029878
442.1713	0.027032
442.3911	0.027390
442.6109	0.028044
442.8307	0.025429
443.0505	0.027748
443.2703	0.026146
443.4902	0.027158
443.7101	0.026863
443.9299	0.026251
444.1498	0.026884
444.3697	0.027179
444.5896	0.026715
444.8095	0.023721
445.0295	0.025092
445.2494	0.026462
445.4694	0.024712
445.6894	0.024396
445.9093	0.025239
446.1293	0.023173
446.3493	0.023995
446.5694	0.025007
446.7894	0.023806
447.0094	0.023531
447.2295	0.024628
447.4496	0.025682
447.6696	0.021212
447.8897	0.023574
448.1098	0.023384
448.3300	0.024733
448.5501	0.022414
448.7702	0.020790
448.9904	0.021697
449.2106	0.022983
449.4307	0.023004
449.6509	0.022899
449.8711	0.023004
450.0914	0.022646
450.3116	0.022372
450.5318	0.022625
450.7521	0.021613
450.9724	0.020980
451.1926	0.019926
451.4129	0.020643
451.6332	0.019926
451.8535	0.020643
452.0739	0.020495
452.2942	0.019926
452.5146	0.020495
452.7349	0.019167
452.9553	0.017859
453.1757	0.018956
453.3961	0.019525
453.6165	0.020558
453.8369	0.015856
454.0574	0.018661
454.2778	0.017944
454.4983	0.019441
454.7188	0.017353
454.9393	0.017880
455.1597	0.016763
455.3803	0.017016
455.6008	0.016426
455.8213	0.020137
456.0419	0.018344
456.2624	0.018323
456.4830	0.017796
456.7036	0.017817
456.9242	0.017079
457.1448	0.017121
457.3654	0.014654
457.5860	0.017353
457.8067	0.017185
458.0274	0.017480
458.2480	0.017417
458.4687	0.017923
458.6894	0.017290
458.9101	0.017754
459.1308	0.017185
459.3516	0.016953
459.5723	0.015582
459.7931	0.017859
460.0138	0.016109
460.2346	0.015456
460.4554	0.015456
460.6762	0.016468
460.8970	0.014612
461.1178	0.014064
461.3387	0.014633
461.5595	0.014401
461.7804	0.017417
462.0013	0.015730
462.2222	0.014001
462.4431	0.014549
462.6640	0.012862
462.8849	0.013326
463.1059	0.012103
463.3268	0.014992
463.5478	0.014401
463.7687	0.014950
463.9897	0.013537
464.2107	0.013263
464.4317	0.014380
464.6528	0.014444
464.8738	0.014528
465.0948	0.014401
465.3159	0.014549
465.5370	0.014296
465.7581	0.013284
465.9792	0.015329
466.2003	0.015603
466.4214	0.012736
466.6425	0.013684
466.8637	0.011070
467.0848	0.013136
467.3060	0.011745
467.5272	0.010775
467.7484	0.010437
467.9696	0.011618
468.1908	0.011365
468.4120	0.012208
468.6333	0.012293
468.8545	0.010016
469.0758	0.009594
469.2970	0.010416
469.5183	0.009763
469.7396	0.009720
469.9610	0.008982
470.1823	0.009847
470.4036	0.009573
470.6250	0.009889
470.8463	0.008793
471.0677	0.007443
471.2891	0.006600
471.5105	0.008814
471.7319	0.007949
471.9533	0.008772
472.1748	0.009130
472.3962	0.009235
472.6177	0.007738
472.8391	0.008961
473.0606	0.009678
473.2821	0.009299
473.5036	0.007359
473.7251	0.008497
473.9467	0.007970
474.1682	0.007928
474.3898	0.006389
474.6113	0.009235
474.8329	0.006979
475.0545	0.007401
475.2761	0.008413
475.4977	0.007991
475.7193	0.007970
475.9410	0.007612
476.1626	0.007485
476.3843	0.008919
476.6060	0.008540
476.8277	0.008898
477.0494	0.007549
477.2711	0.008118
477.4928	0.007928
477.7145	0.006600
477.9363	0.006515
478.1580	0.007759
478.3798	0.007359
478.6016	0.006726
478.8234	0.007274
479.0452	0.006937
479.2670	0.005777
479.4888	0.006874
479.7107	0.006178
479.9325	0.007717
480.1544	0.005883
480.3763	0.007232
480.5982	0.007232
480.8201	0.005862
481.0420	0.006052
481.2639	0.008413
481.4859	0.006094
481.7078	0.007021
481.9298	0.004786
482.1517	0.007570
482.3737	0.006853
482.5957	0.006663
482.8177	0.005672
483.0398	0.006600
483.2618	0.006452
483.4838	0.005672
483.7059	0.004723
483.9280	0.006115
484.1501	0.006262
484.3721	0.005777
484.5943	0.005820
484.8164	0.007232
485.0385	0.006895
485.2606	0.004175
485.4828	0.006874
485.7050	0.006768
485.9271	0.012208
486.1493	0.017754
486.3715	0.017627
486.5937	0.013832
486.8160	0.012061
487.0382	0.009805
487.2605	0.010248
487.4827	0.007380
487.7050	0.006916
487.9273	0.006220
488.1496	0.004850
488.3719	0.006009
488.5942	0.004365
488.8165	0.004533
489.0389	0.004512
489.2612	0.005545
489.4836	0.004786
489.7060	0.004048
489.9284	0.004470
490.1508	0.005335
490.3732	0.005166
490.5956	0.004533
490.8180	0.004006
491.0405	0.004449
491.2630	0.004428
491.4854	0.004597
491.7079	0.004112
491.9304	0.003627
492.1529	0.003711
492.3755	0.004323
492.5980	0.004238
492.8205	0.004154
493.0431	0.003479
493.2657	0.005018
493.4882	0.003353
493.7108	0.005609
493.9334	0.003247
494.1561	0.003753
494.3787	0.004765
494.6013	0.003943
494.8240	0.003332
495.0466	0.003838
495.2693	0.004576
495.4920	0.004091
495.7147	0.002256
495.9374	0.003121
496.1601	0.003943
496.3829	0.004112
496.6056	0.003816
496.8284	0.004428
497.0511	0.002952
497.2739	0.003310
497.4967	0.004238
497.7195	0.003964
497.9423	0.002910
498.1652	0.004323
498.3880	0.003943
498.6109	0.004344
498.8337	0.002720
499.0566	0.002657
499.2795	0.002467
499.5024	0.003985
499.7253	0.002678
499.9482	0.003163
500.1712	0.003226
500.3941	0.002383
500.6171	0.003353
500.8400	0.003353
501.0630	0.003711
501.2860	0.002910
501.5090	0.004112
501.7320	0.004323
501.9551	0.003627
502.1781	0.004449
502.4012	0.002762
502.6242	0.005588
502.8473	0.002594
503.0704	0.004027
503.2935	0.004238
503.5166	0.003816
503.7397	0.003859
503.9628	0.003901
504.1860	0.004027
504.4092	0.002825
504.6323	0.003521
504.8555	0.004323
505.0787	0.001476
505.3019	0.003310
505.5251	0.001687
505.7483	0.002594
505.9716	0.003289
506.1948	0.002404
506.4181	0.002657
506.6414	0.002804
506.8647	0.003268
507.0880	0.002720
507.3113	0.003374
507.5346	0.002952
507.7579	0.001666
507.9813	0.001834
508.2046	0.004238
508.4280	0.002425
508.6514	0.003648
508.8748	0.004301
509.0982	0.002488
509.3216	0.001919
509.5450	0.002931
509.7685	0.003353
509.9919	0.002825
510.2154	0.002003
510.4388	0.001919
510.6623	0.002678
510.8858	0.003648
511.1093	0.001518
511.3329	0.002973
511.5564	0.004618
511.7799	0.002298
512.0035	0.003036
512.2270	0.004913
512.4506	0.001856
512.6742	0.002362
512.8978	0.003416
513.1214	0.002931
513.3451	0.002256
513.5687	0.003395
513.7923	0.002804
514.0160	0.002214
514.2397	0.003121
514.4634	0.003163
514.6871	0.004006
514.9108	0.001223
515.1345	0.001645
515.3582	0.003690
515.5819	0.003479
515.8057	0.002151
516.0295	0.002678
516.2532	0.002530
516.4770	0.004386
516.7008	0.003353
516.9246	0.002383
517.1485	0.002109
517.3723	0.002720
517.5961	0.003353
517.8200	0.003395
518.0439	0.002636
518.2677	0.003669
518.4916	0.002847
518.7155	0.001961
518.9395	0.002172
519.1634	0.002193
519.3873	0.004069
519.6113	0.003774
519.8352	0.002172
520.0592	0.002636
520.2832	0.002530
520.5072	0.001750
520.7312	0.003838
520.9552	0.003437
521.1792	0.002678
521.4033	0.002636
521.6273	0.003015
521.8514	0.003289
522.0755	0.004027
522.2996	0.004048
522.5237	0.004027
522.7478	0.002130
522.9719	0.003648
523.1960	0.002720
523.4202	0.002973
523.6443	0.003289
523.8685	0.003901
524.0927	0.004112
524.3169	0.004428
524.5411	0.001792
524.7653	0.004238
524.9895	0.004428
525.2138	0.003711
525.4380	0.002678
525.6623	0.002087
525.8865	0.004955
526.1108	0.003289
526.3351	0.003078
526.5594	0.004238
526.7837	0.004323
527.0081	0.003922
527.2324	0.004259
527.4568	0.004512
527.6811	0.003268
527.9055	0.004323
528.1299	0.003774
528.3543	0.004871
528.5787	0.004323
528.8031	0.004702
529.0276	0.003901
529.2520	0.004154
529.4765	0.004913
529.7009	0.003711
529.9254	0.004175
530.1499	0.002488
530.3744	0.004470
530.5989	0.004091
530.8234	0.004407
531.0480	0.003774
531.2725	0.004597
531.4971	0.004533
531.7217	0.004850
531.9462	0.005904
532.1708	0.004829
532.3954	0.006220
532.6200	0.005567
532.8447	0.004681
533.0693	0.004786
533.2940	0.004681
533.5186	0.005862
533.7433	0.006874
533.9680	0.006874
534.1927	0.006494
534.4174	0.005841
534.6421	0.005672
534.8668	0.006579
535.0916	0.007696
535.3163	0.006853
535.5411	0.007064
535.7659	0.007865
535.9907	0.006410
536.2155	0.007317
536.4403	0.007232
536.6651	0.005714
536.8899	0.006621
537.1148	0.006368
537.3396	0.007886
537.5645	0.007274
537.7894	0.006494
538.0143	0.007106
538.2392	0.007865
538.4641	0.008160
538.6890	0.007401
538.9139	0.009025
539.1389	0.010395
539.3638	0.008392
539.5888	0.007865
539.8138	0.008940
540.0388	0.008160
540.2638	0.008961
540.4888	0.010648
540.7138	0.009510
540.9389	0.008076
541.1639	0.009046
541.3890	0.009109
541.6140	0.010838
541.8391	0.009868
542.0642	0.010690
542.2893	0.009995
542.5144	0.010353
542.7396	0.011850
542.9647	0.011871
543.1899	0.011618
543.4150	0.013094
543.6402	0.010290
543.8654	0.011871
544.0906	0.012504
544.3158	0.010437
544.5410	0.012946
544.7662	0.012166
544.9915	0.013242
545.2167	0.013031
545.4420	0.014043
545.6673	0.011618
545.8926	0.012672
546.1179	0.013959
546.3432	0.013453
546.5685	0.013410
546.7938	0.012968
547.0192	0.012230
547.2445	0.013200
547.4699	0.014191
547.6953	0.014444
547.9206	0.016236
548.1460	0.014971
548.3715	0.015941
548.5969	0.016763
548.8223	0.016236
549.0478	0.016573
549.2732	0.015751
549.4987	0.015814
549.7242	0.017585
549.9496	0.016405
550.1751	0.016742
550.4007	0.017480
550.6262	0.016130
550.8517	0.015962
551.0773	0.015076
551.3028	0.014254
551.5284	0.016194
551.7540	0.015456
551.9796	0.016468
552.2052	0.016552
552.4308	0.018597
552.6564	0.019103
552.8820	0.020284
553.1077	0.019293
553.3333	0.017606
553.5590	0.020832
553.7847	0.020094
554.0104	0.019841
554.2361	0.019609
554.4618	0.020305
554.6875	0.019778
554.9132	0.018977
555.1390	0.018260
555.3648	0.019609
555.5905	0.018956
555.8163	0.022161
556.0421	0.020706
556.2679	0.021823
556.4937	0.023911
556.7195	0.022330
556.9454	0.021423
557.1712	0.020643
557.3971	0.020917
557.6230	0.021107
557.8488	0.022013
558.0747	0.022287
558.3006	0.021950
558.5266	0.022540
558.7525	0.020959
558.9784	0.020643
559.2044	0.021781
559.4303	0.022161
559.6563	0.022034
559.8823	0.021845
560.1083	0.022793
560.3343	0.023384
560.5603	0.025661
560.7863	0.027706
561.0124	0.027833
561.2384	0.028065
561.4645	0.028824
561.6905	0.030574
561.9166	0.029224
562.1427	0.028465
562.3688	0.029140
562.5949	0.028824
562.8211	0.026779
563.0472	0.027643
563.2733	0.027980
563.4995	0.029309
563.7257	0.027980
563.9519	0.031565
564.1781	0.031080
564.4043	0.033589
564.6305	0.032493
564.8567	0.034665
565.0829	0.034095
565.3092	0.034559
565.5355	0.033505
565.7617	0.035023
565.9880	0.033863
566.2143	0.035002
566.4406	0.034011
566.6669	0.034580
566.8932	0.034137
567.1196	0.036309
567.3459	0.039577
567.5723	0.042361
567.7987	0.046135
568.0250	0.047611
568.2514	0.048518
568.4778	0.051048
568.7043	0.051090
568.9307	0.054021
569.1571	0.056952
569.3836	0.059883
569.6100	0.066504
569.8365	0.072281
570.0630	0.076709
570.2895	0.084890
570.5160	0.088179
570.7425	0.089424
570.9690	0.091153
571.1956	0.091785
571.4221	0.101864
571.6487	0.107156
571.8752	0.105659
572.1018	0.110045
572.3284	0.116413
572.5550	0.111858
572.7816	0.104036
573.0082	0.099418
573.2349	0.096867
573.4615	0.101948
573.6882	0.116603
573.9149	0.128579
574.1415	0.129402
574.3682	0.130076
574.5949	0.138932
574.8216	0.145785
575.0484	0.145869
575.2751	0.148927
575.5018	0.150993
575.7286	0.147008
575.9554	0.142517
576.1821	0.131953
576.4089	0.132860
576.6357	0.135980
576.8626	0.147704
577.0894	0.149939
577.3162	0.152701
577.5431	0.157509
577.7699	0.163349
577.9968	0.203707
578.2237	0.213533
578.4505	0.201535
578.6774	0.191646
578.9044	0.177645
579.1313	0.170054
579.3582	0.161979
579.5851	0.164741
579.8121	0.166976
580.0391	0.173091
580.2660	0.173302
580.4930	0.173955
580.7200	0.170919
580.9470	0.166639
581.1741	0.175621
581.4011	0.205710
581.6281	0.248303
581.8552	0.266542
582.0822	0.269325
582.3093	0.263590
582.5364	0.260321
582.7635	0.239088
582.9906	0.213153
583.2177	0.198667
583.4449	0.188293
583.6720	0.170750
583.8991	0.159617
584.1263	0.153144
584.3535	0.157192
584.5807	0.162674
584.8079	0.166175
585.0351	0.173133
585.2623	0.186923
585.4895	0.195905
585.7167	0.197845
585.9440	0.195167
586.1713	0.187281
586.3985	0.180175
586.6258	0.168663
586.8531	0.162316
587.0804	0.168389
587.3077	0.177919
587.5350	0.185995
587.7624	0.187977
587.9897	0.190423
588.2171	0.179416
588.4445	0.172058
588.6718	0.164066
588.8992	0.162611
589.1266	0.157572
589.3540	0.148168
589.5815	0.137330
589.8089	0.136128
590.0363	0.136444
590.2638	0.132607
590.4913	0.128474
590.7187	0.125248
590.9462	0.122422
591.1737	0.116624
591.4012	0.110825
591.6288	0.107093
591.8563	0.108843
592.0838	0.112196
592.3114	0.105807
592.5389	0.108126
592.7665	0.128031
592.9941	0.152279
593.2217	0.169042
593.4493	0.172416
593.6769	0.166849
593.9046	0.169569
594.1322	0.163138
594.3598	0.153249
594.5875	0.142538
594.8152	0.139712
595.0429	0.152195
595.2705	0.158521
595.4983	0.161726
595.7260	0.158837
595.9537	0.149644
596.1814	0.143487
596.4092	0.132839
596.6369	0.125416
596.8647	0.118100
597.0925	0.117446
597.3203	0.119365
597.5481	0.121052
597.7759	0.125606
598.0037	0.124931
598.2315	0.117320
598.4594	0.112322
598.6872	0.118015
598.9151	0.128179
599.1430	0.145216
599.3709	0.156686
599.5988	0.152849
599.8267	0.148210
600.0546	0.147704
600.2825	0.153481
600.5105	0.153797
600.7384	0.154514
600.9664	0.149117
601.1944	0.156159
601.4223	0.158521
601.6503	0.152764
601.8783	0.145764
602.1064	0.144246
602.3344	0.140387
602.5624	0.137941
602.7905	0.137583
603.0185	0.141273
603.2466	0.145912
603.4747	0.151288
603.7028	0.160439
603.9309	0.157340
604.1590	0.154282
604.3871	0.147177
604.6152	0.138215
604.8434	0.130730
605.0715	0.130561
605.2997	0.130667
605.5279	0.127251
605.7561	0.136191
605.9843	0.140387
606.2125	0.144604
606.4407	0.141020
606.6689	0.138257
606.8972	0.127609
607.1254	0.132480
607.3537	0.129718
607.5819	0.130013
607.8102	0.133555
608.0385	0.131447
608.2668	0.127082
608.4951	0.124784
608.7235	0.120525
608.9518	0.119534
609.1801	0.120841
609.4085	0.115738
609.6369	0.109961
609.8653	0.108780
610.0936	0.115844
610.3220	0.124130
610.5505	0.126703
610.7789	0.121263
611.0073	0.119976
611.2357	0.115338
611.4642	0.114579
611.6927	0.115211
611.9211	0.113292
612.1496	0.116181
612.3781	0.110889
612.6066	0.107431
612.8351	0.107388
613.0637	0.106271
613.2922	0.108991
613.5208	0.109434
613.7493	0.104015
613.9779	0.105238
614.2065	0.108780
614.4351	0.106756
614.6637	0.107979
614.8923	0.105575
615.1209	0.103108
615.3495	0.101569
615.5782	0.106165
615.8068	0.104816
616.0355	0.110846
616.2642	0.104605
616.4929	0.100578
616.7216	0.096698
616.9503	0.093388
617.1790	0.091764
617.4077	0.090098
617.6365	0.090773
617.8652	0.089845
618.0940	0.090056
618.3227	0.092544
618.5515	0.086408
618.7803	0.085080
619.0091	0.083878
619.2379	0.075191
619.4667	0.074727
619.6956	0.076097
619.9244	0.072724
620.1533	0.077447
620.3821	0.082065
620.6110	0.079809
620.8399	0.079766
621.0688	0.072260
621.2977	0.066925
621.5266	0.063130
621.7556	0.060368
621.9845	0.065597
622.2135	0.066714
622.4424	0.068612
622.6714	0.068148
622.9004	0.068760
623.1294	0.072155
623.3584	0.074685
623.5874	0.074938
623.8164	0.076561
624.0454	0.072703
624.2745	0.071796
624.5035	0.073082
624.7326	0.073947
624.9617	0.075591
625.1908	0.076878
625.4199	0.073673
625.6490	0.070700
625.8781	0.066904
626.1072	0.066862
626.3364	0.064353
626.5655	0.062265
626.7947	0.059967
627.0238	0.058744
627.2530	0.056446
627.4822	0.058828
627.7114	0.059271
627.9406	0.057289
628.1698	0.056087
628.3991	0.052756
628.6283	0.049952
628.8576	0.048792
629.0868	0.048939
629.3161	0.052123
629.5454	0.052334
629.7747	0.054843
630.0040	0.050542
630.2333	0.052545
630.4626	0.047948
630.6920	0.048792
630.9213	0.047084
631.1507	0.048370
631.3801	0.044912
631.6094	0.043120
631.8388	0.043035
632.0682	0.044448
632.2976	0.046240
632.5271	0.041728
632.7565	0.041117
632.9859	0.037385
633.2154	0.041180
633.4448	0.037743
633.6743	0.037026
633.9038	0.035107
634.1333	0.038755
634.3628	0.038144
634.5923	0.035107
634.8218	0.036752
635.0514	0.034180
635.2809	0.033652
635.5105	0.034854
635.7400	0.035297
635.9696	0.036204
636.1992	0.036119
636.4288	0.038312
636.6584	0.037195
636.8880	0.039767
637.1177	0.037321
637.3473	0.035613
637.5770	0.033716
637.8066	0.035592
638.0363	0.033695
638.2660	0.035318
638.4957	0.035930
638.7254	0.035044
638.9551	0.035719
639.1848	0.035634
639.4145	0.033695
639.6443	0.033789
639.8740	0.033616
640.1038	0.031173
640.3336	0.030224
640.5633	0.032839
640.7931	0.031581
641.0229	0.030216
641.2528	0.028933
641.4826	0.029344
641.7124	0.029862
641.9423	0.028692
642.1721	0.026106
642.4020	0.026840
642.6319	0.024265
642.8617	0.025423
643.0916	0.024663
643.3216	0.025989
643.5515	0.024818
643.7814	0.025684
644.0113	0.026572
644.2413	0.024227
644.4712	0.024466
644.7012	0.023164
644.9312	0.022191
645.1612	0.022113
645.3912	0.023064
645.6212	0.022980
645.8512	0.020448
646.0812	0.024243
646.3113	0.024247
646.5413	0.024053
646.7714	0.022087
647.0015	0.020078
647.2316	0.020766
647.4616	0.020175
647.6918	0.021079
647.9219	0.022213
648.1520	0.023096
648.3821	0.024984
648.6123	0.025821
648.8424	0.026254
649.0726	0.027313
649.3028	0.030079
649.5329	0.028089
649.7631	0.029374
649.9933	0.026295
650.2236	0.027596
650.4538	0.024738
650.6840	0.025845
650.9143	0.024811
651.1445	0.025210
651.3748	0.023906
651.6051	0.024438
651.8354	0.023992
652.0657	0.024231
652.2960	0.025994
652.5263	0.027245
652.7566	0.024946
652.9870	0.027013
653.2173	0.026229
653.4477	0.028058
653.6780	0.026665
653.9084	0.027079
654.1388	0.026140
654.3692	0.027690
654.5996	0.029926
654.8300	0.029293
655.0605	0.033967
655.2909	0.047797
655.5213	0.134197
655.7518	0.398105
655.9823	0.796402
656.2128	1.000000
656.4433	1.000000
656.6738	1.000000
656.9043	1.000000
657.1348	0.896265
657.3653	0.728714
657.5959	0.588130
657.8264	0.500219
658.0570	0.436831
658.2875	0.395674
658.5181	0.362609
658.7487	0.330833
658.9793	0.307847
659.2099	0.294089
659.4406	0.239898
659.6712	0.164668
659.9018	0.098892
660.1325	0.057409
660.3632	0.039472
660.5938	0.026766
660.8245	0.023937
661.0552	0.020934
661.2859	0.019716
661.5166	0.018828
661.7474	0.017795
661.9781	0.017489
662.2088	0.019744
662.4396	0.018047
662.6704	0.017752
662.9011	0.017591
663.1319	0.019156
663.3627	0.020393
663.5935	0.018152
663.8243	0.016767
664.0552	0.020433
664.2860	0.017484
664.5168	0.018415
664.7477	0.020381
664.9786	0.019839
665.2094	0.018405
665.4403	0.020143
665.6712	0.021405
665.9021	0.020394
666.1330	0.020409
666.3640	0.021361
666.5949	0.018068
666.8259	0.017014
667.0568	0.019491
667.2878	0.018445
667.5188	0.018580
667.7497	0.016809
667.9807	0.017526
668.2117	0.017611
668.4428	0.016868
668.6738	0.017543
668.9048	0.016257
669.1359	0.017627
669.3669	0.018218
669.5980	0.018155
669.8291	0.016679
670.0602	0.017016
670.2913	0.017923
670.5224	0.019525
670.7535	0.019188
670.9846	0.020052
671.2157	0.016742
671.4469	0.020601
671.6781	0.021317
671.9092	0.022625
672.1404	0.025260
672.3716	0.026715
672.6028	0.027200
672.8340	0.030595
673.0652	0.028297
673.2964	0.029499
673.5277	0.026230
673.7589	0.026568
673.9902	0.026019
674.2214	0.024375
674.4527	0.025155
674.6840	0.024417
674.9153	0.022372
675.1466	0.020369
675.3779	0.022393
675.6093	0.022076
675.8406	0.021064
676.0719	0.022393
676.3033	0.022245
676.5347	0.022182
676.7661	0.021360
676.9974	0.019314
677.2288	0.020052
677.4602	0.019799
677.6917	0.021085
677.9231	0.023447
678.1545	0.024206
678.3860	0.025239
678.6174	0.024480
678.8489	0.026188
679.0804	0.024923
679.3119	0.025324
679.5434	0.025745
679.7749	0.029077
680.0064	0.028276
680.2379	0.031438
680.4694	0.027812
680.7010	0.030848
680.9325	0.028107
681.1641	0.027032
681.3957	0.026399
681.6273	0.028571
681.8589	0.029393
682.0905	0.028697
682.3221	0.028929
682.5537	0.026399
682.7854	0.027748
683.0170	0.025619
683.2487	0.025260
683.4803	0.026441
683.7120	0.025788
683.9437	0.025745
684.1754	0.025577
684.4071	0.028761
684.6388	0.029583
684.8705	0.030131
685.1023	0.034369
685.3340	0.034896
685.5658	0.037279
685.7975	0.038333
686.0293	0.038186
686.2611	0.036183
686.4929	0.034896
686.7247	0.037659
686.9565	0.035318
687.1883	0.035381
687.4202	0.036647
687.6520	0.037553
687.8838	0.037427
688.1157	0.035023
688.3476	0.034011
688.5795	0.033927
688.8114	0.032113
689.0433	0.029984
689.2752	0.031375
689.5071	0.031122
689.7390	0.032514
689.9710	0.029583
690.2029	0.028444
690.4349	0.029351
690.6669	0.027538
690.8988	0.028655
691.1308	0.028276
691.3628	0.032134
691.5948	0.031586
691.8269	0.032219
692.0589	0.030785
692.2909	0.032682
692.5230	0.031860
692.7550	0.031228
692.9871	0.032008
693.2192	0.030764
693.4513	0.033252
693.6834	0.033842
693.9155	0.030152
694.1476	0.031417
694.3797	0.029309
694.6119	0.029456
694.8440	0.028529
695.0762	0.028971
695.3083	0.029583
695.5405	0.028276
695.7727	0.028318
696.0049	0.025513
696.2371	0.025260
696.4693	0.024607
696.7016	0.023890
696.9338	0.029562
697.1660	0.032345
697.3983	0.034939
697.6306	0.033315
697.8628	0.033442
698.0951	0.032661
698.3274	0.031776
698.5597	0.033315
698.7920	0.031713
699.0243	0.032113
699.2567	0.030258
699.4890	0.029393
699.7214	0.028107
699.9537	0.028360
700.1861	0.028065
700.4185	0.027095
700.6509	0.026273
700.8833	0.025745
701.1157	0.026125
701.3481	0.022351
701.5806	0.024101
701.8130	0.023131
702.0454	0.023236
702.2779	0.025408
702.5104	0.024670
702.7429	0.025956
702.9753	0.024607
703.2078	0.025640
703.4403	0.023531
703.6729	0.023089
703.9054	0.024944
704.1379	0.022772
704.3705	0.023468
704.6030	0.023679
704.8356	0.021233
705.0682	0.022393
705.3008	0.019694
705.5334	0.019673
705.7660	0.020685
705.9986	0.019125
706.2312	0.021781
706.4638	0.024860
706.6965	0.026631
706.9291	0.029077
707.1618	0.028212
707.3945	0.031523
707.6272	0.033020
707.8599	0.030300
708.0926	0.031797
708.3253	0.032851
708.5580	0.032282
708.7907	0.030574
709.0235	0.032767
709.2562	0.030005
709.4890	0.027369
709.7217	0.029393
709.9545	0.028655
710.1873	0.028044
710.4201	0.029351
710.6529	0.029267
710.8857	0.028845
711.1186	0.030764
711.3514	0.029393
711.5842	0.025429
711.8171	0.025682
712.0500	0.024628
712.2828	0.025682
712.5157	0.021128
712.7486	0.024501
712.9815	0.023510
713.2144	0.021655
713.4474	0.023679
713.6803	0.027411
713.9132	0.028212
714.1462	0.027643
714.3791	0.028929
714.6121	0.029224
714.8451	0.030173
715.0781	0.027896
715.3111	0.028233
715.5441	0.029309
715.7771	0.029625
716.0102	0.027137
716.2432	0.026610
716.4762	0.025324
716.7093	0.025092
716.9424	0.023299
717.1754	0.025071
717.4085	0.023911
717.6416	0.024080
717.8747	0.022814
718.1078	0.022266
718.3410	0.023131
718.5741	0.025197
718.8072	0.023173
719.0404	0.023510
719.2736	0.024522
719.5067	0.024248
719.7399	0.024185
719.9731	0.023046
720.2063	0.021992
720.4395	0.025218
720.6727	0.022161
720.9060	0.025092
721.1392	0.025071
721.3725	0.024986
721.6057	0.024480
721.8390	0.025303
722.0723	0.025535
722.3055	0.025998
722.5388	0.024754
722.7721	0.025450
723.0055	0.023046
723.2388	0.021739
723.4721	0.021085
723.7055	0.021570
723.9388	0.025113
724.1722	0.024691
724.4056	0.022055
724.6389	0.021634
724.8723	0.023278
725.1057	0.024670
725.3391	0.025682
725.5726	0.027770
725.8060	0.027875
726.0394	0.028655
726.2729	0.029372
726.5063	0.029246
726.7398	0.029246
726.9733	0.026167
727.2068	0.027432
727.4403	0.026694
727.6738	0.027854
727.9073	0.028803
728.1408	0.026863
728.3743	0.028360
728.6079	0.027559
728.8414	0.029203
729.0750	0.027770
729.3086	0.028508
729.5421	0.026800
729.7757	0.031249
730.0093	0.030890
730.2429	0.029583
730.4766	0.029288
730.7102	0.030595
730.9438	0.034939
731.1775	0.035951
731.4111	0.035023
731.6448	0.035613
731.8785	0.037427
732.1122	0.037490
732.3458	0.037279
732.5795	0.034812
732.8133	0.035318
733.0470	0.034960
733.2807	0.035887
733.5145	0.033442
733.7482	0.034896
733.9820	0.034791
734.2157	0.039282
734.4495	0.044301
734.6833	0.044343
734.9171	0.042825
735.1509	0.038671
735.3847	0.039641
735.6185	0.042445
735.8524	0.038502
736.0862	0.042129
736.3201	0.041749
736.5539	0.039767
736.7878	0.040126
737.0217	0.040695
737.2556	0.040547
737.4895	0.040843
737.7234	0.040864
737.9573	0.035403
738.1912	0.035065
738.4252	0.034833
738.6591	0.032957
738.8931	0.031734
739.1271	0.034854
739.3610	0.037195
739.5950	0.037785
739.8290	0.035993
740.0630	0.040020
740.2970	0.035866
740.5310	0.033905
740.7651	0.033568
740.9991	0.033674
741.2332	0.030890
741.4672	0.031038
741.7013	0.028191
741.9354	0.029541
742.1695	0.026779
742.4036	0.027770
742.6377	0.028634
742.8718	0.028318
743.1059	0.028381
743.3400	0.028887
743.5742	0.025788
743.8083	0.026315
744.0425	0.026441
744.2767	0.025556
744.5108	0.026146
744.7450	0.023827
744.9792	0.025239
745.2134	0.025408
745.4477	0.023278
745.6819	0.025113
745.9161	0.025324
746.1504	0.023637
746.3846	0.024101
746.6189	0.023763
746.8532	0.022076
747.0874	0.021992
747.3217	0.023110
747.5560	0.026019
747.7903	0.025661
748.0247	0.026083
748.2590	0.025218
748.4933	0.025830
748.7277	0.025766
748.9620	0.025324
749.1964	0.022351
749.4308	0.024818
749.6652	0.026736
749.8995	0.029161
750.1339	0.030700
750.3684	0.032324
750.6028	0.032851
750.8372	0.033420
751.0717	0.032936
751.3061	0.032788
751.5406	0.031755
751.7750	0.033083
752.0095	0.033948
752.2440	0.034812
752.4785	0.033863
752.7130	0.032113
752.9475	0.030215
753.1820	0.031080
753.4166	0.030722
753.6511	0.031670
753.8856	0.034918
754.1202	0.037764
754.3548	0.035951
754.5894	0.035234
754.8239	0.033252
755.0585	0.031544
755.2931	0.031059
755.5278	0.033336
755.7624	0.033526
755.9970	0.037595
756.2317	0.039388
756.4663	0.037996
756.7010	0.038165
756.9356	0.041201
757.1703	0.042087
757.4050	0.044090
757.6397	0.047379
757.8744	0.049572
758.1091	0.052250
758.3438	0.049930
758.5786	0.046430
758.8133	0.045228
759.0481	0.044069
759.2828	0.046430
759.5176	0.046915
759.7524	0.047590
759.9872	0.050668
760.2220	0.048201
760.4568	0.051006
760.6916	0.053178
760.9264	0.052988
761.1613	0.052229
761.3961	0.051659
761.6310	0.049298
761.8658	0.049804
762.1007	0.044216
762.3356	0.041538
762.5705	0.039873
762.8054	0.039978
763.0403	0.040716
763.2752	0.040821
763.5101	0.043499
763.7450	0.041328
763.9800	0.042382
764.2149	0.041433
764.4499	0.042993
764.6849	0.047253
764.9198	0.047948
765.1548	0.048939
765.3898	0.047906
765.6248	0.047991
765.8599	0.046262
766.0949	0.045144
766.3299	0.040442
766.5650	0.037342
766.8000	0.036478
767.0351	0.034517
767.2701	0.033779
767.5052	0.033484
767.7403	0.030279
767.9754	0.031417
768.2105	0.032682
768.4456	0.037216
768.6808	0.036647
768.9159	0.037996
769.1510	0.039725
769.3862	0.040821
769.6214	0.037068
769.8565	0.037659
770.0917	0.038207
770.3269	0.038017
770.5621	0.035318
770.7973	0.036963
771.0325	0.037722
771.2677	0.038671
771.5030	0.038439
771.7382	0.038734
771.9735	0.039156
772.2087	0.035866
772.4440	0.034517
772.6793	0.035909
772.9146	0.035951
773.1499	0.033399
773.3852	0.032493
773.6205	0.031818
773.8558	0.031417
774.0911	0.030848
774.3265	0.030637
774.5618	0.030005
774.7972	0.027854
775.0326	0.027116
775.2679	0.026336
775.5033	0.025324
775.7387	0.024775
775.9741	0.022793
776.2095	0.022604
776.4450	0.024164
776.6804	0.022688
776.9158	0.022962
777.1513	0.020790
777.3868	0.021929
777.6222	0.020326
777.8577	0.020010
778.0932	0.019863
778.3287	0.021191
778.5642	0.020558
778.7997	0.022456
779.0352	0.023890
779.2707	0.024396
779.5063	0.026062
779.7418	0.026462
779.9774	0.028065
780.2130	0.025387
780.4485	0.023299
780.6841	0.023552
780.9197	0.021866
781.1553	0.025956
781.3909	0.027369
781.6265	0.031649
781.8622	0.029182
782.0978	0.030300
782.3335	0.028718
782.5691	0.030279
782.8048	0.028444
783.0405	0.031017
783.2761	0.028950
783.5118	0.026251
783.7475	0.028318
783.9832	0.029646
784.2190	0.028423
784.4547	0.027706
784.6904	0.025640
784.9262	0.025661
785.1619	0.023784
785.3977	0.025619
785.6335	0.024143
785.8692	0.024965
786.1050	0.023552
786.3408	0.023152
786.5766	0.022456
786.8124	0.023468
787.0483	0.022836
787.2841	0.023447
787.5199	0.021718
787.7558	0.022688
787.9917	0.024565
788.2275	0.023468
788.4634	0.025977
788.6993	0.023468
788.9352	0.026378
789.1711	0.028782
789.4070	0.028086
789.6429	0.024712
789.8789	0.024185
790.1148	0.024459
790.3507	0.023152
790.5867	0.019694
790.8227	0.022456
791.0586	0.021444
791.2946	0.020305
791.5306	0.020221
791.7666	0.020094
792.0026	0.020221
792.2387	0.019799
792.4747	0.021022
792.7107	0.018176
792.9468	0.018450
793.1828	0.017121
793.4189	0.019125
793.6550	0.019125
793.8910	0.017817
794.1271	0.022962
794.3632	0.025471
794.5993	0.026167
794.8355	0.028529
795.0716	0.028128
795.3077	0.027432
795.5439	0.026336
795.7800	0.026083
796.0162	0.024522
796.2523	0.024839
796.4885	0.021528
796.7247	0.021444
796.9609	0.020664
797.1971	0.018682
797.4333	0.017100
797.6695	0.018745
797.9058	0.020537
798.1420	0.020727
798.3783	0.019588
798.6145	0.017796
798.8508	0.019125
799.0871	0.019272
799.3233	0.019947
799.5596	0.018703
799.7959	0.017606
800.0322	0.017585
800.2686	0.017691
800.5049	0.015329
800.7412	0.014971
800.9776	0.015160
801.2139	0.014570
801.4503	0.016278
801.6867	0.016299
801.9230	0.016151
802.1594	0.013621
802.3958	0.015266
802.6322	0.014233
802.8686	0.014844
803.1051	0.014085
803.3415	0.013811
803.5779	0.017691
803.8144	0.015160
804.0508	0.016320
804.2873	0.015962
804.5238	0.014697
804.7603	0.014043
804.9968	0.014718
805.2333	0.013115
805.4698	0.014950
805.7063	0.016130
805.9428	0.014380
806.1794	0.016236
806.4159	0.018387
806.6525	0.019631
806.8890	0.020094
807.1256	0.020116
807.3622	0.018408
807.5988	0.020326
807.8354	0.019567
808.0720	0.019272
808.3086	0.018745
808.5452	0.020495
808.7818	0.016510
809.0185	0.019272
809.2551	0.019251
809.4918	0.019799
809.7284	0.018091
809.9651	0.016995
810.2018	0.018070
810.4385	0.017501
810.6752	0.015877
810.9119	0.017396
811.1486	0.015456
811.3853	0.016173
811.6221	0.015435
811.8588	0.015203
812.0956	0.013790
812.3323	0.014001
812.5691	0.014148
812.8059	0.012483
813.0427	0.012103
813.2795	0.011724
813.5163	0.013305
813.7531	0.014212
813.9899	0.014191
814.2267	0.017627
814.4636	0.015709
814.7004	0.015097
814.9373	0.014971
815.1742	0.015076
815.4110	0.014844
815.6479	0.011618
815.8848	0.011702
816.1217	0.014296
816.3586	0.013178
816.5955	0.010606
816.8324	0.013221
817.0694	0.011196
817.3063	0.011386
817.5433	0.013495
817.7802	0.011618
818.0172	0.012187
818.2542	0.011428
818.4912	0.012440
818.7282	0.011323
818.9652	0.012293
819.2022	0.012187
819.4392	0.010922
819.6762	0.011576
819.9133	0.011028
820.1503	0.012314
820.3874	0.011028
820.6244	0.011702
820.8615	0.013368
821.0986	0.014950
821.3357	0.012398
821.5727	0.013242
821.8099	0.012124
822.0470	0.012462
822.2841	0.012567
822.5212	0.012082
822.7584	0.011281
822.9955	0.009446
823.2327	0.008540
823.4698	0.010775
823.7070	0.009910
823.9442	0.010416
824.1814	0.009488
824.4186	0.010564
824.6558	0.009657
824.8930	0.009868
825.1302	0.010311
825.3675	0.010248
825.6047	0.011492
825.8419	0.013347
826.0792	0.009573
826.3165	0.011555
826.5537	0.010964
826.7910	0.011428
827.0283	0.011955
827.2656	0.010796
827.5029	0.010754
827.7402	0.011934
827.9776	0.011850
828.2149	0.011913
828.4522	0.008877
828.6896	0.010037
828.9270	0.010205
829.1643	0.010332
829.4017	0.009868
829.6391	0.009488
829.8765	0.010458
830.1139	0.011175
830.3513	0.008919
830.5887	0.009868
830.8261	0.010037
831.0636	0.008455
831.3010	0.008012
831.5385	0.005967
831.7759	0.006811
832.0134	0.006199
832.2509	0.006515
832.4884	0.006410
832.7259	0.006283
832.9634	0.009383
833.2009	0.009931
833.4384	0.009425
833.6759	0.006790
833.9135	0.008540
834.1510	0.007485
834.3886	0.008540
834.6261	0.008856
834.8637	0.009299
835.1013	0.009320
835.3389	0.008772
835.5765	0.007464
835.8141	0.008772
836.0517	0.008582
836.2893	0.008413
836.5269	0.007464
836.7646	0.007717
837.0022	0.007949
837.2399	0.008287
837.4775	0.005588
837.7152	0.007485
837.9529	0.006684
838.1906	0.006874
838.4283	0.005799
838.6660	0.006199
838.9037	0.006178
839.1414	0.006199
839.3791	0.005271
839.6169	0.005820
839.8546	0.007190
840.0924	0.006916
840.3302	0.006811
840.5679	0.006431
840.8057	0.007380
841.0435	0.006536
841.2813	0.006368
841.5191	0.005524
841.7569	0.005377
841.9947	0.005567
842.2326	0.004512
842.4704	0.005335
842.7082	0.005124
842.9461	0.006052
843.1840	0.005377
843.4218	0.006220
843.6597	0.006178
843.8976	0.005356
844.1355	0.005756
844.3734	0.005271
844.6113	0.006241
844.8492	0.004533
845.0872	0.004829
845.3251	0.004618
845.5631	0.003901
845.8010	0.005651
846.0390	0.004576
846.2770	0.005103
846.5149	0.004449
846.7529	0.003184
846.9909	0.005588
847.2289	0.004913
847.4669	0.004259
847.7050	0.004280
847.9430	0.004871
848.1810	0.004470
848.4191	0.003838
848.6571	0.004554
848.8952	0.004027
849.1333	0.005714
849.3713	0.005082
849.6094	0.005166
849.8475	0.004829
850.0856	0.006009
850.3237	0.005777
850.5619	0.003901
850.8000	0.004744
851.0381	0.004344
851.2763	0.004512
851.5144	0.003985
851.7526	0.005335
851.9908	0.004386
852.2289	0.005082
852.4671	0.004786
852.7053	0.007085
852.9435	0.007949
853.1817	0.008308
853.4200	0.009320
853.6582	0.010374
853.8964	0.012419
854.1347	0.010775
854.3729	0.011513
854.6112	0.011892
854.8495	0.011787
855.0877	0.011618
855.3260	0.011702
855.5643	0.009004
855.8026	0.011513
856.0409	0.010690
856.2792	0.010733
856.5176	0.009910
856.7559	0.011112
856.9942	0.010226
857.2326	0.010775
857.4710	0.009404
857.7093	0.010437
857.9477	0.008413
858.1861	0.009046
858.4245	0.008645
858.6629	0.009257
858.9013	0.007148
859.1397	0.006726
859.3781	0.008160
859.6166	0.007422
859.8550	0.007738
860.0935	0.008118
860.3319	0.007317
860.5704	0.008350
860.8089	0.005377
861.0473	0.006073
861.2858	0.004744
861.5243	0.007570
861.7628	0.004576
862.0013	0.006747
862.2399	0.004744
862.4784	0.006241
862.7169	0.006473
862.9555	0.004723
863.1940	0.006073
863.4326	0.005777
863.6712	0.005735
863.9098	0.005609
864.1483	0.006726
864.3869	0.005904
864.6255	0.004618
864.8642	0.006916
865.1028	0.005166
865.3414	0.005988
865.5800	0.004344
865.8187	0.004069
866.0573	0.004470
866.2960	0.005335
866.5347	0.003332
866.7733	0.005061
867.0120	0.004554
867.2507	0.005229
867.4894	0.004365
867.7281	0.003606
867.9669	0.004850
868.2056	0.005061
868.4443	0.005651
868.6831	0.004597
868.9218	0.004344
869.1606	0.003964
869.3993	0.004154
869.6381	0.005419
869.8769	0.005039
870.1157	0.005103
870.3545	0.004639
870.5933	0.004280
870.8321	0.004091
871.0709	0.004154
871.3097	0.003711
871.5486	0.005925
871.7874	0.004006
872.0263	0.003985
872.2651	0.004217
872.5040	0.004702
872.7429	0.003437
872.9818	0.006030
873.2207	0.005018
873.4596	0.005292
873.6985	0.003964
873.9374	0.005250
874.1763	0.003163
874.4153	0.004723
874.6542	0.004365
874.8932	0.004597
875.1321	0.004913
875.3711	0.004850
875.6101	0.004006
875.8491	0.006410
876.0880	0.003416
876.3270	0.005799
876.5661	0.005377
876.8051	0.005082
877.0441	0.004027
877.2831	0.005039
877.5222	0.005292
877.7612	0.004681
878.0003	0.005988
878.2393	0.005250
878.4784	0.006220
878.7175	0.006790
878.9566	0.006368
879.1957	0.006305
879.4348	0.005862
879.6739	0.006958
879.9130	0.007274
880.1521	0.005967
880.3913	0.007949
880.6304	0.007443
880.8696	0.007844
881.1087	0.006790
881.3479	0.007781
881.5871	0.007528
881.8262	0.006684
882.0654	0.005482
882.3046	0.006536
882.5438	0.005841
882.7831	0.005841
883.0223	0.005630
883.2615	0.005799
883.5007	0.007296
883.7400	0.006052
883.9792	0.005588
884.2185	0.005672
884.4578	0.005271
884.6971	0.005609
884.9363	0.004259
885.1756	0.004892
885.4149	0.007127
885.6542	0.005419
885.8936	0.005314
886.1329	0.006326
886.3722	0.007169
886.6116	0.005672
886.8509	0.004955
887.0903	0.005714
887.3296	0.006705
887.5690	0.004681
887.8084	0.003922
888.0478	0.004618
888.2872	0.004323
888.5266	0.004955
888.7660	0.003901
889.0054	0.005883
889.2448	0.005229
889.4843	0.003416
889.7237	0.004491
889.9632	0.005208
890.2026	0.005082
890.4421	0.003015
890.6816	0.004660
890.9211	0.003774
891.1606	0.003859
891.4001	0.004091
891.6396	0.003964
891.8791	0.006030
892.1186	0.003922
892.3581	0.005208
892.5977	0.005271
892.8372	0.004470
893.0768	0.005103
893.3163	0.005609
893.5559	0.005271
893.7955	0.004449
894.0351	0.002973
894.2747	0.002804
894.5143	0.004323
894.7539	0.004597
894.9935	0.002889
895.2331	0.004976
895.4727	0.002741
895.7124	0.004765
895.9520	0.004365
896.1917	0.004407
896.4314	0.002699
896.6710	0.004955
896.9107	0.005314
897.1504	0.005061
897.3901	0.004660
897.6298	0.005187
897.8695	0.005187
898.1092	0.005609
898.3489	0.003859
898.5887	0.004280
898.8284	0.004301
899.0682	0.005630
899.3079	0.004154
899.5477	0.006136
899.7875	0.003268
900.0272	0.004344
900.2670	0.002910
900.5068	0.004639
900.7466	0.004217
900.9864	0.004639
901.2263	0.005398
901.4661	0.004829
901.7059	0.004175
901.9458	0.004069
902.1856	0.003142
902.4255	0.004512
902.6654	0.004407
902.9052	0.004112
903.1451	0.002825
903.3850	0.002151
903.6249	0.004027
903.8648	0.003395
904.1047	0.002994
904.3446	0.003816
904.5846	0.004112
904.8245	0.006621
905.0644	0.004238
905.3044	0.003690
905.5444	0.004069
905.7843	0.004723
906.0243	0.004660
906.2643	0.004681
906.5043	0.004238
906.7443	0.004597
906.9843	0.004386
907.2243	0.004850
907.4643	0.004639
907.7043	0.004323
907.9444	0.003374
908.1844	0.003985
908.4245	0.003247
908.6645	0.003774
908.9046	0.004238
909.1447	0.001813
909.3847	0.003838
909.6248	0.003057
909.8649	0.003901
910.1050	0.004428
910.3452	0.002657
910.5853	0.003901
910.8254	0.004323
911.0655	0.002952
911.3057	0.002615
911.5458	0.002594
911.7860	0.003985
912.0262	0.004491
912.2663	0.003268
912.5065	0.004154
912.7467	0.003859
912.9869	0.004491
913.2271	0.002066
913.4673	0.003310
913.7075	0.003247
913.9478	0.003121
914.1880	0.002868
914.4283	0.003732
914.6685	0.001033
914.9088	0.003289
915.1490	0.003964
915.3893	0.003310
915.6296	0.002488
915.8699	0.003458
916.1102	0.002720
916.3505	0.004217
916.5908	0.002087
916.8311	0.003816
917.0714	0.002657
917.3118	0.003268
917.5521	0.004681
917.7925	0.004470
918.0328	0.003205
918.2732	0.005061
918.5136	0.002889
918.7539	0.003310
918.9943	0.004112
919.2347	0.005588
919.4751	0.003606
919.7155	0.004597
919.9560	0.003121
920.1964	0.003816
920.4368	0.003901
920.6773	0.003542
920.9177	0.003563
921.1582	0.003015
921.3986	0.002277
921.6391	0.002741
921.8796	0.002994
922.1201	0.002994
922.3606	0.002383
922.6011	0.002130
922.8416	0.002362
923.0821	0.002678
923.3226	0.002594
923.5631	0.003690
923.8037	0.002615
924.0442	0.004048
924.2848	0.003310
924.5254	0.003753
924.7659	0.001813
925.0065	0.002678
925.2471	0.003606
925.4877	0.004407
925.7283	0.002319
925.9689	0.001581
926.2095	0.001961
926.4501	0.003416
926.6908	0.001982
926.9314	0.002488
927.1720	0.001434
927.4127	0.002783
927.6533	0.002404
927.8940	0.002003
928.1347	0.002151
928.3754	0.002636
928.6161	0.002973
928.8568	0.002741
929.0975	0.002404
929.3382	0.003711
929.5789	0.002720
929.8196	0.002804
930.0604	0.003100
930.3011	0.002214
930.5419	0.002340
930.7826	0.003036
931.0234	0.001708
931.2642	0.002973
931.5049	0.003753
931.7457	0.004323
931.9865	0.002657
932.2273	0.002087
932.4681	0.002172
932.7089	0.002973
932.9498	0.001940
933.1906	0.001602
933.4314	0.002783
933.6723	0.002509
933.9131	0.002319
934.1540	0.003184
934.3949	0.001919
934.6358	0.004091
934.8766	0.002087
935.1175	0.002678
935.3584	0.001581
935.5993	0.002572
935.8403	0.002488
936.0812	0.002973
936.3221	0.002383
936.5630	0.002130
936.8040	0.002973
937.0449	0.002952
937.2859	0.002699
937.5269	0.002678
937.7678	0.001602
938.0088	0.001792
938.2498	0.000822
938.4908	0.001096
938.7318	0.002087
938.9728	0.001708
939.2138	0.002467
939.4549	0.002003
939.6959	0.003163
939.9369	0.001687
940.1780	0.001877
940.4190	0.000274
940.6601	0.001223
940.9012	0.001792
941.1422	0.002003
941.3833	0.000801
941.6244	0.002404
941.8655	0.002340
942.1066	0.001560
942.3477	0.000928
942.5889	0.001708
942.8300	0.000105
943.0711	0.001476
943.3123	0.001982
943.5534	0.001434
943.7946	0.001645
944.0357	0.000527
944.2769	0.003057
944.5181	0.001834
944.7593	0.000548
945.0005	0.002214
945.2417	0.001181
945.4829	0.002868
945.7241	0.001877
945.9653	0.002298
946.2066	0.001371
946.4478	0.000443
946.6891	0.001328
946.9303	0.001666
947.1716	0.001054
947.4128	0.001940
947.6541	0.000822
947.8954	0.003226
948.1367	0.000886
948.3780	0.000865
948.6193	0.001033
948.8606	0.001096
949.1019	0.000822
949.3433	0.002298
949.5846	0.001118
949.8259	0.000590
950.0673	0.001392
950.3086	0.002256
950.5500	0.002087
950.7914	0.000949
951.0327	0.000949
951.2741	0.000907
951.5155	0.002087
951.7569	0.002804
951.9983	0.002193
952.2398	0.001708
952.4812	0.001244
952.7226	0.001581
952.9640	0.000190
953.2055	0.001286
953.4469	0.000084
953.6884	0.002130
953.9299	0.001054
954.1713	0.001729
954.4128	0.001645
954.6543	0.002172
954.8958	0.000759
955.1373	0.001244
955.3788	0.000886
955.6203	0.002298
955.8618	0.002087
956.1034	0.002509
956.3449	0.002657
956.5865	0.001328
956.8280	0.001877
957.0696	0.002172
957.3111	0.000401
957.5527	0.001856
957.7943	-0.000084
958.0359	0.001054
958.2775	0.002594
958.5191	0.002066
958.7607	-0.000611
959.0023	0.000801
959.2439	-0.000654
959.4856	0.001476
959.7272	0.001181
959.9688	0.001244
960.2105	0.000780
960.4522	0.000717
960.6938	0.001054
960.9355	0.000401
961.1772	-0.000358
961.4189	0.001307
961.6606	0.000611
961.9023	0.001602
962.1440	0.001265
962.3857	0.000822
962.6274	0.000780
962.8692	0.001160
963.1109	-0.001139
963.3527	-0.000485
963.5944	-0.000316
963.8362	0.001898
964.0779	-0.000907
964.3197	0.001476
964.5615	0.000042
964.8033	0.001750
965.0451	0.000274
965.2869	-0.000042
965.5287	0.001307
965.7705	0.001139
966.0123	0.001371
966.2542	0.001919
966.4960	0.003100
966.7379	0.000654
966.9797	0.000000
967.2216	0.001645
967.4634	0.001202
967.7053	0.001877
967.9472	0.001371
968.1891	0.001729
968.4310	0.001286
968.6729	0.000401
968.9148	0.000063
969.1567	0.001054
969.3987	0.000822
969.6406	0.002383
969.8825	0.001708
970.1245	0.000907
970.3664	0.000991
970.6084	0.001265
970.8504	-0.000253
971.0923	0.000358
971.3343	-0.000105
971.5763	0.001476
971.8183	-0.000316
972.0603	0.001223
972.3023	0.002003
972.5443	0.002214
972.7864	0.000970
973.0284	0.001392
973.2704	0.000105
973.5125	0.000717
973.7545	0.001771
973.9966	0.002847
974.2387	-0.000127
974.4807	0.001096
974.7228	0.000211
974.9649	0.001307
975.2070	0.001054
975.4491	0.000780
975.6912	0.000380
975.9333	0.000886
976.1755	0.000295
976.4176	0.001075
976.6597	0.000401
976.9019	0.001075
977.1440	0.001434
977.3862	0.000865
977.6283	0.001476
977.8705	0.000464
978.1127	0.000316
978.3549	0.001687
978.5971	0.002024
978.8393	0.001455
979.0815	0.001645
979.3237	0.002256
979.5659	0.001012
979.8082	0.000337
980.0504	-0.000063
980.2926	0.001602
980.5349	0.001181
980.7771	0.000358
981.0194	0.000084
981.2617	0.000928
981.5040	-0.000148
981.7462	0.001497
981.9885	0.002214
982.2308	0.000675
982.4731	0.001096
982.7155	0.000886
982.9578	0.000590
983.2001	0.002024
983.4424	0.000717
983.6848	0.000569
983.9271	0.000780
984.1695	0.000928
984.4118	0.000190
984.6542	0.001118
984.8966	0.000021
985.1390	0.000295
985.3814	0.000801
985.6238	0.000928
985.8662	0.000358
986.1086	-0.000042
986.3510	0.000991
986.5934	0.001645
986.8358	0.000991
987.0783	0.000801
987.3207	0.000548
987.5632	-0.001434
987.8056	0.000907
988.0481	0.000717
988.2906	0.001392
988.5331	0.000148
988.7756	-0.000928
989.0180	0.001581
989.2605	0.000527
989.5031	0.001054
989.7456	-0.000105
989.9881	0.000949
990.2306	-0.000717
990.4732	0.000337
990.7157	-0.000148
990.9582	0.000084
991.2008	0.000865
991.4434	-0.000316
991.6859	0.000190
991.9285	0.001497
992.1711	0.001139
992.4137	0.001075
992.6563	0.001518
992.8989	0.001223
993.1415	0.001560
993.3841	0.000611
993.6267	0.000443
993.8694	0.002172
994.1120	-0.000211
994.3547	0.000232
994.5973	0.001265
994.8400	0.001961
995.0826	0.000295
995.3253	0.001392
995.5680	0.001075
995.8107	0.000822
996.0534	0.000380
996.2961	0.000548
996.5388	0.000358
996.7815	0.000148
997.0242	0.000148
997.2670	0.000380
997.5097	-0.001328
997.7524	0.000928
997.9952	0.001286
998.2379	0.001328
998.4807	-0.000991
998.7235	0.000801
998.9662	-0.000105
999.2090	0.003247
999.4518	0.000464
999.6946	0.000485
999.9374	0.001581
1000.1802	0.000148
1000.4230	0.001012
1000.6659	-0.000105
1000.9087	0.000696
1001.1515	0.000148
1001.3944	0.000443
1001.6372	-0.000780
1001.8801	0.000675
1002.1230	0.000886
1002.3658	0.001054
1002.6087	-0.000380
1002.8516	0.001033
1003.0945	0.001265
1003.3374	0.000422
1003.5803	0.000717
1003.8232	0.000633
1004.0661	0.000169
1004.3091	0.000443
1004.5520	0.001075
1004.7949	-0.000232
1005.0379	0.001033
1005.2808	0.001307
1005.5238	-0.000443
1005.7667	0.001286
1006.0097	0.001434
1006.2527	0.001307
1006.4957	-0.000105
1006.7387	0.000380
1006.9817	0.000970
1007.2247	0.000506
1007.4677	-0.000337
1007.7107	-0.000358
1007.9538	0.001708
1008.1968	0.000274
1008.4398	0.000148
1008.6829	0.001054
1008.9259	0.001455
1009.1690	0.001877
1009.4121	-0.000422
1009.6551	0.001856
1009.8982	0.001307
1010.1413	0.000633
1010.3844	0.002066
1010.6275	0.001223
1010.8706	0.000148
1011.1137	0.001033
1011.3568	0.000169
1011.6000	0.001139
1011.8431	0.001160
1012.0863	0.000759
1012.3294	0.000148
1012.5726	0.000485
1012.8157	-0.001244
1013.0589	0.000886
1013.3021	0.001539
1013.5452	-0.000464
1013.7884	0.000443
1014.0316	-0.000190
1014.2748	0.000105
1014.5180	0.000949
1014.7613	0.000822
1015.0045	-0.000401
1015.2477	0.000485
1015.4909	-0.000970
1015.7342	-0.000822
1015.9774	0.000148
1016.2207	0.001139
1016.4640	0.000970
1016.7072	-0.000042
1016.9505	0.000865
1017.1938	0.000780
1017.4371	0.000337
1017.6804	0.000380
1017.9237	0.001666
1018.1670	0.000675
1018.4103	0.001792
1018.6536	0.000105
1018.8969	0.000127
1019.1403	0.001624
1019.3836	0.000696
1019.6270	0.001160
1019.8703	0.000801
1020.1137	-0.001813
1020.3571	0.000358
1020.6004	0.000675
1020.8438	0.002151
1021.0872	-0.001497
1021.3306	0.000865
1021.5740	0.000548
1021.8174	-0.000843
1022.0608	-0.000506
1022.3042	0.001244
1022.5477	-0.000295
1022.7911	-0.000401
1023.0345	0.000928
