# Wavelength (nm)	Intensity (a.u.)
197.7802	0.000158
197.9842	0.000601
198.1882	0.000685
198.3922	-0.000475
198.5963	0.002204
198.8003	0.000221
199.0044	0.001023
199.2085	0.000327
199.4126	0.000685
199.6168	0.000453
199.8209	-0.001128
200.0251	-0.000981
200.2292	-0.000306
200.4334	0.000685
200.6376	0.001107
200.8418	0.000074
201.0461	-0.000074
201.2503	0.000496
201.4546	0.000327
201.6589	-0.000917
201.8631	0.000285
202.0674	-0.000475
202.2718	0.000432
202.4761	-0.000285
202.6805	0.000981
202.8848	-0.000728
203.0892	-0.000475
203.2936	-0.000011
203.4980	0.001023
203.7024	-0.000685
203.9069	0.000875
204.1113	-0.000011
204.3158	0.001044
204.5203	-0.001044
204.7248	-0.000601
204.9293	0.001613
205.1338	0.001149
205.3384	0.000917
205.5430	0.000707
205.7475	-0.000116
205.9521	0.001255
206.1567	-0.000369
206.3614	-0.000981
206.5660	0.000032
206.7706	0.000728
206.9753	-0.000685
207.1800	0.000221
207.3847	0.000770
207.5894	0.001761
207.7941	0.000791
207.9989	0.000791
208.2036	0.000369
208.4084	-0.001234
208.6132	0.000032
208.8180	0.000685
209.0228	-0.000221
209.2276	0.000200
209.4325	0.000475
209.6373	0.002647
209.8422	0.001044
210.0471	0.000200
210.2520	-0.000538
210.4569	0.000601
210.6618	-0.000011
210.8668	0.000854
211.0718	-0.000791
211.2767	0.001888
211.4817	-0.000411
211.6867	-0.001023
211.8918	0.000221
212.0968	0.001487
212.3018	0.000475
212.5069	-0.000074
212.7120	-0.000981
212.9171	0.001824
213.1222	-0.000348
213.3273	0.000200
213.5325	0.000601
213.7376	0.000538
213.9428	0.000538
214.1480	-0.000580
214.3532	0.000095
214.5584	0.000200
214.7636	-0.000137
214.9689	0.001002
215.1741	0.001128
215.3794	0.000285
215.5847	0.000116
215.7900	-0.000664
215.9953	0.000453
216.2007	0.001803
216.4060	0.000875
216.6114	0.000707
216.8168	0.000306
217.0222	0.001192
217.2276	0.000812
217.4330	0.000960
217.6384	0.000770
217.8439	-0.000074
218.0494	0.000243
218.2548	-0.000833
218.4603	0.001086
218.6659	0.001171
218.8714	0.000411
219.0769	-0.000432
219.2825	0.000411
219.4881	-0.001192
219.6936	-0.000622
219.8992	-0.000095
220.1049	-0.000896
220.3105	0.000348
220.5161	0.000306
220.7218	0.000453
220.9275	-0.000137
221.1332	0.000559
221.3389	-0.000917
221.5446	0.001803
221.7503	0.000158
221.9561	0.000179
222.1618	0.000306
222.3676	0.000200
222.5734	0.000981
222.7792	-0.000179
222.9850	0.001930
223.1909	-0.000243
223.3967	0.000517
223.6026	-0.000411
223.8085	-0.000601
224.0144	-0.000285
224.2203	0.000074
224.4262	0.000728
224.6322	0.001613
224.8381	-0.000559
225.0441	-0.000833
225.2501	0.001635
225.4561	0.000685
225.6621	0.000643
225.8681	-0.000517
226.0742	0.000622
226.2802	-0.000243
226.4863	0.000179
226.6924	0.000390
226.8985	0.000559
227.1046	0.001234
227.3107	0.002120
227.5169	-0.000032
227.7230	0.001297
227.9292	-0.001403
228.1354	0.001107
228.3416	0.000854
228.5478	0.001213
228.7541	0.002288
228.9603	0.001930
229.1666	-0.000643
229.3729	0.000728
229.5791	0.000369
229.7855	0.001128
229.9918	0.000243
230.1981	-0.000116
230.4045	0.000770
230.6108	-0.001065
230.8172	-0.000496
231.0236	0.000981
231.2300	-0.000664
231.4364	0.001234
231.6429	0.001445
231.8493	0.000432
232.0558	0.000812
232.2623	0.001023
232.4688	0.001128
232.6753	0.000411
232.8818	0.001107
233.0884	-0.001297
233.2949	0.000369
233.5015	0.001002
233.7081	0.001466
233.9147	0.001529
234.1213	0.000812
234.3279	0.001255
234.5346	0.001002
234.7413	0.000411
234.9479	-0.000116
235.1546	-0.000264
235.3613	0.000306
235.5680	0.001023
235.7748	0.001128
235.9815	0.001171
236.1883	-0.000348
236.3951	0.000032
236.6018	-0.000432
236.8087	0.000243
237.0155	0.002288
237.2223	0.000643
237.4292	-0.000158
237.6360	-0.000221
237.8429	0.000538
238.0498	0.000095
238.2567	0.000137
238.4636	0.001508
238.6706	0.001255
238.8775	0.001002
239.0845	0.000369
239.2915	0.001909
239.4985	0.000601
239.7055	0.000095
239.9125	0.000791
240.1195	-0.000053
240.3266	0.001171
240.5337	-0.000137
240.7407	-0.000580
240.9478	-0.000475
241.1549	0.000580
241.3621	0.000580
241.5692	-0.000306
241.7764	0.000896
241.9835	-0.000538
242.1907	0.001086
242.3979	-0.000243
242.6051	0.000960
242.8124	-0.000559
243.0196	0.001234
243.2269	0.000243
243.4341	0.000095
243.6414	0.000432
243.8487	0.000559
244.0560	-0.001381
244.2634	0.000453
244.4707	-0.000011
244.6781	0.000622
244.8854	0.001213
245.0928	-0.000791
245.3002	0.000601
245.5076	0.001276
245.7151	-0.000390
245.9225	-0.001171
246.1300	0.000221
246.3375	0.000517
246.5449	0.000685
246.7524	0.000601
246.9600	-0.000917
247.1675	0.001656
247.3750	0.000854
247.5826	0.001276
247.7902	-0.000032
247.9978	-0.000538
248.2054	-0.000095
248.4130	0.000116
248.6206	0.000390
248.8283	0.001424
249.0359	0.000812
249.2436	-0.000158
249.4513	0.000348
249.6590	0.000601
249.8667	-0.000728
250.0745	0.001360
250.2822	-0.001255
250.4900	0.001297
250.6978	-0.000601
250.9056	0.001171
251.1134	0.001023
251.3212	-0.000074
251.5290	-0.000327
251.7369	-0.000032
251.9447	0.000559
252.1526	0.001171
252.3605	0.000221
252.5684	0.000200
252.7763	0.000622
252.9843	0.000074
253.1922	-0.000327
253.4002	-0.000411
253.6082	0.000390
253.8162	0.000264
254.0242	-0.000095
254.2322	-0.000812
254.4402	-0.001403
254.6483	-0.000243
254.8564	0.000200
255.0644	0.002689
255.2725	0.000116
255.4806	0.000917
255.6888	0.002478
255.8969	0.001698
256.1051	0.000116
256.3132	0.000580
256.5214	-0.000348
256.7296	0.001529
256.9378	0.000011
257.1460	0.001192
257.3543	0.000285
257.5625	-0.000622
257.7708	0.000369
257.9791	0.000728
258.1874	0.000285
258.3957	0.000960
258.6040	-0.000179
258.8124	0.000369
259.0207	-0.000475
259.2291	0.001128
259.4375	-0.001065
259.6459	0.000685
259.8543	0.000116
260.0627	0.000517
260.2711	-0.000179
260.4796	0.001276
260.6881	0.000833
260.8965	0.000728
261.1050	0.001445
261.3135	0.000179
261.5221	-0.000475
261.7306	0.001656
261.9392	0.000179
262.1477	0.001128
262.3563	-0.000032
262.5649	0.000770
262.7735	-0.000390
262.9822	0.000496
263.1908	0.000749
263.3995	0.001255
263.6081	-0.000200
263.8168	0.000095
264.0255	0.000453
264.2342	0.000622
264.4429	0.000453
264.6517	-0.000116
264.8604	0.000875
265.0692	0.001930
265.2780	-0.000285
265.4868	0.000833
265.6956	-0.000032
265.9044	0.000559
266.1133	0.001192
266.3221	0.000306
266.5310	0.001107
266.7399	0.000179
266.9488	0.000243
267.1577	-0.000243
267.3666	0.000833
267.5755	0.000622
267.7845	-0.000896
267.9935	-0.000664
268.2024	-0.000137
268.4114	0.000432
268.6205	-0.000749
268.8295	0.001234
269.0385	0.000327
269.2476	0.002204
269.4566	0.000960
269.6657	0.001508
269.8748	0.001086
270.0839	-0.000179
270.2931	0.000622
270.5022	0.000643
270.7114	0.000559
270.9205	0.001339
271.1297	-0.000517
271.3389	0.000622
271.5481	-0.000285
271.7573	0.000348
271.9666	0.000538
272.1758	0.000770
272.3851	-0.000369
272.5944	0.000095
272.8037	-0.000348
273.0130	0.000981
273.2223	-0.000158
273.4316	-0.000116
273.6410	0.000432
273.8504	0.000685
274.0597	-0.000137
274.2691	-0.000812
274.4785	0.000369
274.6880	0.000601
274.8974	0.000475
275.1069	0.000538
275.3163	0.000264
275.5258	0.000369
275.7353	-0.000221
275.9448	-0.001171
276.1543	0.001086
276.3639	0.001803
276.5734	0.000728
276.7830	0.000179
276.9926	0.000643
277.2022	0.001466
277.4118	0.000074
277.6214	0.000559
277.8310	0.000475
278.0407	0.000475
278.2503	0.000601
278.4600	-0.000812
278.6697	0.001023
278.8794	0.001613
279.0891	0.000348
279.2989	0.000685
279.5086	-0.000707
279.7184	0.000264
279.9281	0.001128
280.1379	-0.000390
280.3477	-0.000580
280.5576	-0.000390
280.7674	0.000453
280.9772	0.000875
281.1871	0.000453
281.3970	0.000559
281.6069	-0.001128
281.8168	0.000179
282.0267	0.001571
282.2366	0.001360
282.4466	0.000264
282.6565	-0.000348
282.8665	-0.000749
283.0765	0.000348
283.2865	0.000179
283.4965	0.000264
283.7065	0.000432
283.9166	-0.000622
284.1266	-0.000432
284.3367	0.001276
284.5468	0.000137
284.7569	-0.000074
284.9670	0.000960
285.1771	0.000939
285.3873	-0.000580
285.5974	0.000158
285.8076	0.000285
286.0178	0.002331
286.2280	0.001635
286.4382	0.001107
286.6484	-0.000601
286.8587	0.002288
287.0689	-0.000432
287.2792	-0.000264
287.4895	0.000939
287.6998	0.000327
287.9101	0.000475
288.1204	0.000264
288.3308	0.000032
288.5411	-0.000158
288.7515	-0.000348
288.9619	0.000095
289.1723	0.000896
289.3827	0.000179
289.5931	0.000243
289.8035	0.001128
290.0140	0.000095
290.2245	-0.000854
290.4349	0.001297
290.6454	0.000749
290.8559	-0.000580
291.0665	0.001107
291.2770	0.000791
291.4875	0.000981
291.6981	0.000179
291.9087	0.001993
292.1193	0.000221
292.3299	0.000285
292.5405	0.000095
292.7511	-0.000981
292.9618	-0.000200
293.1724	0.000517
293.3831	0.000200
293.5938	0.000200
293.8045	0.000200
294.0152	0.001044
294.2260	0.000496
294.4367	0.000728
294.6475	0.000601
294.8582	-0.001023
295.0690	-0.000158
295.2798	0.000791
295.4906	-0.000200
295.7015	-0.000917
295.9123	0.000158
296.1232	0.002331
296.3340	-0.000179
296.5449	-0.000580
296.7558	0.000179
296.9667	0.000749
297.1777	-0.000432
297.3886	0.000243
297.5995	0.000664
297.8105	-0.000896
298.0215	0.001107
298.2325	0.001381
298.4435	-0.000411
298.6545	0.000285
298.8656	-0.000559
299.0766	0.000074
299.2877	0.000158
299.4988	0.000496
299.7099	0.000074
299.9210	0.000538
300.1321	0.000432
300.3432	0.000939
300.5544	-0.000074
300.7655	0.001192
300.9767	0.000622
301.1879	-0.000032
301.3991	-0.000981
301.6103	0.001107
301.8215	0.000285
302.0328	-0.000306
302.2441	-0.000327
302.4553	-0.000453
302.6666	0.000749
302.8779	0.000896
303.0892	0.000622
303.3006	0.000432
303.5119	-0.000074
303.7233	0.000770
303.9346	0.000137
304.1460	0.001740
304.3574	0.000475
304.5688	0.001445
304.7803	-0.000685
304.9917	-0.000137
305.2031	0.000243
305.4146	-0.000411
305.6261	-0.000875
305.8376	-0.000390
306.0491	0.000264
306.2606	0.000960
306.4722	0.000306
306.6837	0.001360
306.8953	0.000833
307.1069	0.000559
307.3184	-0.000011
307.5301	-0.000285
307.7417	0.000390
307.9533	0.000390
308.1650	-0.000179
308.3766	-0.000791
308.5883	-0.000580
308.8000	0.001234
309.0117	-0.000685
309.2234	0.001255
309.4351	0.000517
309.6469	0.000939
309.8586	-0.000960
310.0704	0.000559
310.2822	-0.000011
310.4940	-0.000622
310.7058	0.001487
310.9176	-0.000074
311.1295	-0.000411
311.3413	0.000939
311.5532	0.001234
311.7651	0.000517
311.9770	0.001529
312.1889	0.000896
312.4008	0.002457
312.6127	0.001930
312.8247	0.000432
313.0366	0.001149
313.2486	0.000285
313.4606	0.000559
313.6726	-0.001592
313.8846	0.000981
314.0967	0.001044
314.3087	0.002014
314.5208	0.000348
314.7328	0.001487
314.9449	-0.001276
315.1570	0.001403
315.3692	0.001002
315.5813	0.000285
315.7934	-0.000116
316.0056	-0.000032
316.2177	-0.000285
316.4299	-0.001255
316.6421	-0.000032
316.8543	0.000411
317.0666	-0.000348
317.2788	-0.000243
317.4911	0.000243
317.7033	0.000685
317.9156	0.002014
318.1279	-0.000053
318.3402	0.000622
318.5525	0.001360
318.7649	0.001508
318.9772	0.000939
319.1896	-0.000116
319.4019	0.000981
319.6143	-0.000137
319.8267	0.001171
320.0392	0.000580
320.2516	0.000854
320.4640	0.000601
320.6765	-0.000348
320.8890	0.000264
321.1014	0.000475
321.3139	0.000707
321.5265	0.000791
321.7390	-0.000116
321.9515	0.001192
322.1641	0.000685
322.3766	0.001213
322.5892	0.000011
322.8018	-0.000411
323.0144	-0.000369
323.2270	0.001381
323.4397	0.001149
323.6523	-0.000243
323.8650	0.001318
324.0777	0.000517
324.2904	0.001234
324.5031	0.000812
324.7158	0.000517
324.9285	0.000517
325.1412	0.000875
325.3540	0.000243
325.5668	0.000791
325.7796	0.001023
325.9924	0.000601
326.2052	0.000432
326.4180	0.001466
326.6308	0.002942
326.8437	0.001845
327.0566	0.000116
327.2694	0.001023
327.4823	0.000981
327.6952	0.000200
327.9082	-0.000601
328.1211	-0.000285
328.3340	0.001740
328.5470	-0.001107
328.7600	0.001803
328.9730	-0.000749
329.1860	0.001424
329.3990	0.000770
329.6120	0.000179
329.8251	-0.000095
330.0381	0.000643
330.2512	0.001107
330.4643	0.000517
330.6774	-0.000643
330.8905	0.000559
331.1036	0.000580
331.3167	0.000011
331.5299	-0.000200
331.7431	0.000517
331.9562	0.000517
332.1694	0.001487
332.3826	0.000285
332.5959	-0.000053
332.8091	-0.000179
333.0223	0.000875
333.2356	-0.000285
333.4489	0.000432
333.6622	0.000411
333.8755	0.001192
334.0888	0.000833
334.3021	-0.000306
334.5154	0.000369
334.7288	0.000453
334.9422	0.000369
335.1555	0.000728
335.3689	0.000601
335.5823	0.000390
335.7958	0.001276
336.0092	0.001297
336.2227	-0.001065
336.4361	0.000369
336.6496	0.000707
336.8631	0.000158
337.0766	0.000728
337.2901	0.000538
337.5036	0.001023
337.7172	0.000116
337.9307	-0.000496
338.1443	-0.000264
338.3579	0.000622
338.5715	0.000517
338.7851	-0.000243
338.9987	0.001339
339.2124	-0.000032
339.4260	0.001065
339.6397	0.000390
339.8533	0.000264
340.0670	0.000791
340.2807	0.000812
340.4945	0.000011
340.7082	0.000960
340.9219	0.000348
341.1357	0.000158
341.3495	-0.001656
341.5633	0.000475
341.7771	0.000601
341.9909	0.001192
342.2047	-0.001360
342.4185	0.000791
342.6324	0.000643
342.8463	0.001297
343.0601	0.000369
343.2740	0.000601
343.4879	0.000369
343.7019	-0.001128
343.9158	0.000243
344.1297	0.000664
344.3437	0.000981
344.5577	0.000011
344.7717	0.000559
344.9857	-0.000158
345.1997	0.000053
345.4137	-0.000390
345.6277	0.001698
345.8418	0.000348
346.0559	-0.001234
346.2699	0.000032
346.4840	-0.000137
346.6981	0.001677
346.9123	-0.000348
347.1264	-0.000053
347.3406	-0.000664
347.5547	0.000538
347.7689	-0.000517
347.9831	0.002499
348.1973	-0.000390
348.4115	-0.000728
348.6257	-0.000517
348.8400	0.000643
349.0542	0.001761
349.2685	0.000116
349.4828	-0.000264
349.6971	0.002056
349.9114	-0.000643
350.1257	0.000264
350.3400	-0.000200
350.5544	0.000960
350.7687	-0.000453
350.9831	0.001845
351.1975	0.000453
351.4119	0.001824
351.6263	0.000601
351.8407	0.001107
352.0552	0.000179
352.2696	0.000728
352.4841	0.001592
352.6986	-0.000179
352.9131	0.000622
353.1276	0.001255
353.3421	0.000917
353.5566	0.001065
353.7712	0.001487
353.9858	0.000601
354.2003	0.000559
354.4149	0.001592
354.6295	0.000390
354.8441	0.000411
355.0588	0.000601
355.2734	0.000496
355.4881	0.000306
355.7027	0.001065
355.9174	0.000622
356.1321	0.001761
356.3468	0.001867
356.5615	0.000896
356.7763	-0.000011
356.9910	0.001381
357.2058	0.001255
357.4206	0.002099
357.6353	-0.000664
357.8501	0.000538
358.0650	0.000896
358.2798	0.000580
358.4946	0.000200
358.7095	0.000939
358.9243	0.001128
359.1392	0.000622
359.3541	-0.000285
359.5690	0.001149
359.7839	0.001107
359.9989	0.000200
360.2138	-0.000011
360.4288	0.000011
360.6438	0.000580
360.8587	0.000707
361.0737	0.000875
361.2888	0.001149
361.5038	0.000411
361.7188	0.000939
361.9339	0.000896
362.1489	0.001107
362.3640	-0.000749
362.5791	0.001065
362.7942	-0.000032
363.0093	0.001128
363.2245	-0.000411
363.4396	0.001571
363.6548	0.001318
363.8699	0.000580
364.0851	0.000685
364.3003	0.001360
364.5155	0.000833
364.7308	0.001128
364.9460	-0.000707
365.1612	0.001023
365.3765	0.000411
365.5918	0.000664
365.8071	0.000664
366.0224	0.001993
366.2377	0.001656
366.4530	0.000833
366.6684	-0.000032
366.8837	0.001803
367.0991	0.001635
367.3145	0.000095
367.5299	0.000200
367.7453	0.000939
367.9607	0.001192
368.1761	0.000053
368.3916	-0.000538
368.6070	0.001318
368.8225	-0.000369
369.0380	0.000960
369.2535	0.000981
369.4690	0.000538
369.6845	-0.000137
369.9001	0.000917
370.1156	-0.000200
370.3312	-0.001360
370.5468	0.000749
370.7624	0.002056
370.9780	-0.001487
371.1936	-0.001023
371.4092	-0.000116
371.6249	-0.000179
371.8405	0.000496
372.0562	0.000622
372.2719	-0.000369
372.4876	0.000917
372.7033	0.000517
372.9190	0.000875
373.1348	0.000032
373.3505	0.000685
373.5663	0.000538
373.7820	0.000685
373.9978	0.000095
374.2136	0.001888
374.4294	-0.000285
374.6453	-0.000011
374.8611	-0.000158
375.0770	0.001044
375.2928	-0.000179
375.5087	0.000011
375.7246	0.002541
375.9405	-0.000032
376.1564	0.000812
376.3724	-0.000095
376.5883	0.000032
376.8043	-0.000517
377.0203	-0.000348
377.2362	0.001698
377.4522	0.000116
377.6682	0.001951
377.8843	0.001381
378.1003	0.000939
378.3164	0.001023
378.5324	-0.000137
378.7485	-0.000053
378.9646	0.000601
379.1807	-0.000960
379.3968	0.000432
379.6129	-0.000538
379.8291	0.000960
380.0452	0.000158
380.2614	0.001255
380.4776	0.001487
380.6938	0.002309
380.9100	0.000095
381.1262	-0.000369
381.3424	-0.000221
381.5587	-0.000074
381.7749	0.001213
381.9912	0.001845
382.2075	0.000432
382.4238	0.001677
382.6401	-0.000327
382.8564	0.000622
383.0728	0.000664
383.2891	0.000833
383.5055	0.000896
383.7219	-0.000390
383.9382	0.000221
384.1546	-0.000496
384.3711	-0.000053
384.5875	0.000601
384.8039	-0.000411
385.0204	0.000158
385.2368	-0.000306
385.4533	0.000812
385.6698	0.000749
385.8863	0.002099
386.1028	-0.000200
386.3194	-0.000095
386.5359	0.000411
386.7525	0.001740
386.9690	0.001803
387.1856	0.001381
387.4022	0.001550
387.6188	0.001803
387.8355	0.001782
388.0521	0.001803
388.2687	0.001888
388.4854	0.002478
388.7021	0.003237
388.9188	0.002689
389.1355	0.000369
389.3522	0.002541
389.5689	0.002499
389.7856	0.002963
390.0024	0.003469
390.2192	0.002120
390.4359	0.003027
390.6527	0.003912
390.8695	0.002689
391.0863	0.003132
391.3032	0.004039
391.5200	0.003849
391.7369	0.002626
391.9537	0.005157
392.1706	0.005811
392.3875	0.003891
392.6044	0.003786
392.8213	0.006823
393.0383	0.004292
393.2552	0.005916
393.4722	0.004904
393.6891	0.007013
393.9061	0.006043
394.1231	0.005726
394.3401	0.006232
394.5572	0.008110
394.7742	0.006232
394.9912	0.005832
395.2083	0.007224
395.4254	0.006549
395.6425	0.007856
395.8596	0.005347
396.0767	0.008215
396.2938	0.007414
396.5109	0.008489
396.7281	0.008700
396.9453	0.009438
397.1624	0.009227
397.3796	0.009396
397.5968	0.009248
397.8140	0.010915
398.0313	0.009417
398.2485	0.012454
398.4658	0.012686
398.6830	0.011906
398.9003	0.013214
399.1176	0.013424
399.3349	0.013214
399.5522	0.012686
399.7696	0.013678
399.9869	0.012454
400.2043	0.013530
400.4216	0.012518
400.6390	0.011885
400.8564	0.013699
401.0738	0.015217
401.2912	0.014395
401.5087	0.012918
401.7261	0.013572
401.9436	0.015660
402.1610	0.013108
402.3785	0.014120
402.5960	0.016061
402.8135	0.014690
403.0310	0.015618
403.2486	0.014774
403.4661	0.013846
403.6837	0.015871
403.9013	0.016208
404.1189	0.016398
404.3365	0.017094
404.5541	0.015259
404.7717	0.017031
404.9893	0.018318
405.2070	0.017579
405.4246	0.016968
405.6423	0.017221
405.8600	0.018381
406.0777	0.019815
406.2954	0.018128
406.5131	0.018022
406.7309	0.017284
406.9486	0.017305
407.1664	0.017938
407.3842	0.015576
407.6020	0.018170
407.8198	0.017094
408.0376	0.017326
408.2554	0.016525
408.4733	0.019203
408.6911	0.019077
408.9090	0.019541
409.1269	0.018929
409.3448	0.017537
409.5627	0.019014
409.7806	0.020996
409.9985	0.019541
410.2165	0.019330
410.4344	0.020891
410.6524	0.020722
410.8704	0.019499
411.0884	0.020047
411.3064	0.018613
411.5244	0.021418
411.7424	0.019224
411.9605	0.018550
412.1785	0.020321
412.3966	0.020110
412.6147	0.022051
412.8328	0.021587
413.0509	0.019963
413.2690	0.021629
413.4871	0.022008
413.7053	0.020047
413.9234	0.020089
414.1416	0.022705
414.3598	0.020427
414.5780	0.022620
414.7962	0.019731
415.0144	0.021882
415.2326	0.021439
415.4509	0.020448
415.6692	0.023105
415.8874	0.023886
416.1057	0.020743
416.3240	0.021692
416.5423	0.020912
416.7606	0.021903
416.9790	0.020490
417.1973	0.022388
417.4157	0.022346
417.6341	0.022789
417.8524	0.021798
418.0708	0.023084
418.2893	0.019794
418.5077	0.021798
418.7261	0.021713
418.9446	0.020743
419.1630	0.022451
419.3815	0.022156
419.6000	0.023211
419.8185	0.022747
420.0370	0.024877
420.2555	0.021861
420.4741	0.023801
420.6926	0.022241
420.9112	0.025826
421.1298	0.025995
421.3483	0.024033
421.5669	0.027007
421.7856	0.027682
422.0042	0.030550
422.2228	0.026754
422.4415	0.028715
422.6601	0.027724
422.8788	0.027281
423.0975	0.025130
423.3162	0.026670
423.5349	0.026859
423.7536	0.027218
423.9724	0.025172
424.1911	0.026248
424.4099	0.025742
424.6287	0.024518
424.8475	0.025489
425.0663	0.026121
425.2851	0.025931
425.5039	0.024687
425.7228	0.025235
425.9416	0.023126
426.1605	0.022620
426.3793	0.023105
426.5982	0.022979
426.8171	0.023527
427.0361	0.022810
427.2550	0.023611
427.4739	0.025404
427.6929	0.024413
427.9118	0.025974
428.1308	0.023211
428.3498	0.024265
428.5688	0.024518
428.7878	0.022747
429.0068	0.023063
429.2259	0.024307
429.4449	0.024413
429.6640	0.024856
429.8831	0.026754
430.1022	0.026374
430.3213	0.026775
430.5404	0.026353
430.7595	0.028589
430.9787	0.027323
431.1978	0.027619
431.4170	0.025046
431.6362	0.024982
431.8553	0.024033
432.0745	0.023084
432.2938	0.022747
432.5130	0.021755
432.7322	0.022494
432.9515	0.020912
433.1707	0.020722
433.3900	0.022198
433.6093	0.022578
433.8286	0.022241
434.0479	0.025088
434.2673	0.025404
434.4866	0.025320
434.7059	0.024286
434.9253	0.024582
435.1447	0.024434
435.3641	0.024160
435.5835	0.025257
435.8029	0.022768
436.0223	0.024054
436.2418	0.020532
436.4612	0.023633
436.6807	0.024793
436.9001	0.024139
437.1196	0.026163
437.3391	0.024708
437.5586	0.022008
437.7782	0.023822
437.9977	0.020722
438.2173	0.022747
438.4368	0.022030
438.6564	0.025067
438.8760	0.025151
439.0956	0.022430
439.3152	0.023211
439.5348	0.023886
439.7545	0.024097
439.9741	0.024392
440.1938	0.023717
440.4135	0.023633
440.6331	0.024434
440.8528	0.021987
441.0725	0.023464
441.2923	0.027007
441.5120	0.027577
441.7318	0.028230
441.9515	0.027387
442.1713	0.027113
442.3911	0.027745
442.6109	0.025130
442.8307	0.024202
443.0505	0.025172
443.2703	0.024012
443.4902	0.024476
443.7101	0.024961
443.9299	0.026838
444.1498	0.027513
444.3697	0.026522
444.5896	0.024244
444.8095	0.025025
445.0295	0.023548
445.2494	0.026606
445.4694	0.023126
445.6894	0.024329
445.9093	0.025046
446.1293	0.023126
446.3493	0.023970
446.5694	0.026501
446.7894	0.026796
447.0094	0.023822
447.2295	0.024476
447.4496	0.023295
447.6696	0.024244
447.8897	0.022008
448.1098	0.023843
448.3300	0.023232
448.5501	0.022578
448.7702	0.023232
448.9904	0.021418
449.2106	0.022367
449.4307	0.021713
449.6509	0.022620
449.8711	0.021966
450.0914	0.021017
450.3116	0.020659
450.5318	0.022683
450.7521	0.020764
450.9724	0.020764
451.1926	0.018971
451.4129	0.021376
451.6332	0.019119
451.8535	0.021207
452.0739	0.019562
452.2942	0.020026
452.5146	0.019794
452.7349	0.019667
452.9553	0.018950
453.1757	0.017558
453.3961	0.017790
453.6165	0.017558
453.8369	0.019246
454.0574	0.019119
454.2778	0.016609
454.4983	0.017347
454.7188	0.018233
454.9393	0.017115
455.1597	0.017242
455.3803	0.015787
455.6008	0.017980
455.8213	0.018507
456.0419	0.018339
456.2624	0.017411
456.4830	0.018254
456.7036	0.015386
456.9242	0.014584
457.1448	0.015808
457.3654	0.014859
457.5860	0.017664
457.8067	0.015091
458.0274	0.017748
458.2480	0.016609
458.4687	0.017453
458.6894	0.016314
458.9101	0.018571
459.1308	0.017347
459.3516	0.013825
459.5723	0.015070
459.7931	0.016672
460.0138	0.016904
460.2346	0.016820
460.4554	0.015744
460.6762	0.016567
460.8970	0.015070
461.1178	0.016672
461.3387	0.015934
461.5595	0.015027
461.7804	0.015112
462.0013	0.014142
462.2222	0.012982
462.4431	0.013256
462.6640	0.012939
462.8849	0.012138
463.1059	0.013678
463.3268	0.011020
463.5478	0.011653
463.7687	0.012075
463.9897	0.013256
464.2107	0.012834
464.4317	0.013530
464.6528	0.012602
464.8738	0.014859
465.0948	0.013446
465.3159	0.013678
465.5370	0.014753
465.7581	0.013973
465.9792	0.014859
466.2003	0.014142
466.4214	0.012686
466.6425	0.012581
466.8637	0.012117
467.0848	0.010915
467.3060	0.009333
467.5272	0.012201
467.7484	0.012243
467.9696	0.011273
468.1908	0.010430
468.4120	0.010598
468.6333	0.011547
468.8545	0.011062
469.0758	0.009966
469.2970	0.010577
469.5183	0.009164
469.7396	0.009755
469.9610	0.008004
470.1823	0.009480
470.4036	0.009354
470.6250	0.009712
470.8463	0.008447
471.0677	0.008869
471.2891	0.007920
471.5105	0.007772
471.7319	0.007245
471.9533	0.009248
472.1748	0.007118
472.3962	0.008616
472.6177	0.007329
472.8391	0.007688
473.0606	0.007392
473.2821	0.007646
473.5036	0.008447
473.7251	0.007582
473.9467	0.008426
474.1682	0.008215
474.3898	0.007245
474.6113	0.009417
474.8329	0.005958
475.0545	0.008848
475.2761	0.008574
475.4977	0.008194
475.7193	0.008278
475.9410	0.008088
476.1626	0.008088
476.3843	0.007688
476.6060	0.006464
476.8277	0.007709
477.0494	0.006886
477.2711	0.006886
477.4928	0.007941
477.7145	0.007392
477.9363	0.005347
478.1580	0.007160
478.3798	0.007266
478.6016	0.007624
478.8234	0.007266
479.0452	0.006949
479.2670	0.006528
479.4888	0.007498
479.7107	0.006253
479.9325	0.008110
480.1544	0.005220
480.3763	0.007097
480.5982	0.005937
480.8201	0.007477
481.0420	0.006127
481.2639	0.006064
481.4859	0.006000
481.7078	0.007055
481.9298	0.005832
482.1517	0.005325
482.3737	0.006802
482.5957	0.004840
482.8177	0.006802
483.0398	0.006169
483.2618	0.007160
483.4838	0.006739
483.7059	0.005157
483.9280	0.006169
484.1501	0.003912
484.3721	0.004651
484.5943	0.005747
484.8164	0.006464
485.0385	0.006422
485.2606	0.005853
485.4828	0.004861
485.7050	0.007245
485.9271	0.011906
486.1493	0.017664
486.3715	0.017558
486.5937	0.014627
486.8160	0.012918
487.0382	0.008721
487.2605	0.008004
487.4827	0.008215
487.7050	0.007561
487.9273	0.005452
488.1496	0.004524
488.3719	0.006021
488.5942	0.004629
488.8165	0.005093
489.0389	0.003997
489.2612	0.005494
489.4836	0.004440
489.7060	0.003005
489.9284	0.004988
490.1508	0.003301
490.3732	0.004397
490.5956	0.004693
490.8180	0.003343
491.0405	0.004545
491.2630	0.003069
491.4854	0.003870
491.7079	0.003364
491.9304	0.003976
492.1529	0.005030
492.3755	0.003617
492.5980	0.003301
492.8205	0.005136
493.0431	0.004144
493.2657	0.004397
493.4882	0.003870
493.7108	0.003280
493.9334	0.003638
494.1561	0.003533
494.3787	0.003723
494.6013	0.004144
494.8240	0.004651
495.0466	0.004123
495.2693	0.004735
495.4920	0.003069
495.7147	0.002584
495.9374	0.004883
496.1601	0.001592
496.3829	0.002056
496.6056	0.004925
496.8284	0.004313
497.0511	0.003069
497.2739	0.004165
497.4967	0.002710
497.7195	0.002710
497.9423	0.003385
498.1652	0.003427
498.3880	0.001909
498.6109	0.005009
498.8337	0.003828
499.0566	0.003301
499.2795	0.004081
499.5024	0.002942
499.7253	0.002415
499.9482	0.002773
500.1712	0.002879
500.3941	0.003765
500.6171	0.002942
500.8400	0.002647
501.0630	0.003385
501.2860	0.002647
501.5090	0.002605
501.7320	0.003659
501.9551	0.002752
502.1781	0.003533
502.4012	0.001192
502.6242	0.003406
502.8473	0.004355
503.0704	0.002373
503.2935	0.003849
503.5166	0.003280
503.7397	0.003216
503.9628	0.001803
504.1860	0.003364
504.4092	0.002309
504.6323	0.001487
504.8555	0.001930
505.0787	0.001529
505.3019	0.003554
505.5251	0.004566
505.7483	0.002984
505.9716	0.002626
506.1948	0.001951
506.4181	0.001023
506.6414	0.002689
506.8647	0.003048
507.0880	0.003343
507.3113	0.002436
507.5346	0.002837
507.7579	0.002352
507.9813	0.000875
508.2046	0.001761
508.4280	0.001867
508.6514	0.003807
508.8748	0.003090
509.0982	0.001318
509.3216	0.003807
509.5450	0.002077
509.7685	0.003575
509.9919	0.002837
510.2154	0.003575
510.4388	0.004060
510.6623	0.003132
510.8858	0.001635
511.1093	0.002331
511.3329	0.002752
511.5564	0.002963
511.7799	0.001656
512.0035	0.002225
512.2270	0.001719
512.4506	0.003027
512.6742	0.001951
512.8978	0.002710
513.1214	0.001677
513.3451	0.003322
513.5687	0.001845
513.7923	0.002246
514.0160	0.003322
514.2397	0.002415
514.4634	0.002752
514.6871	0.002984
514.9108	0.001803
515.1345	0.003280
515.3582	0.001782
515.5819	0.002204
515.8057	0.001951
516.0295	0.001698
516.2532	0.001909
516.4770	0.002626
516.7008	0.001403
516.9246	0.003237
517.1485	0.003469
517.3723	0.003385
517.5961	0.003765
517.8200	0.003912
518.0439	0.001466
518.2677	0.001318
518.4916	0.002478
518.7155	0.002689
518.9395	0.001909
519.1634	0.002837
519.3873	0.004292
519.6113	0.002963
519.8352	0.001909
520.0592	0.000179
520.2832	0.002816
520.5072	0.002563
520.7312	0.002478
520.9552	0.001571
521.1792	0.002584
521.4033	0.002647
521.6273	0.004144
521.8514	0.002373
522.0755	0.003322
522.2996	0.002288
522.5237	0.003427
522.7478	0.002816
522.9719	0.003406
523.1960	0.003786
523.4202	0.003955
523.6443	0.001276
523.8685	0.001719
524.0927	0.002120
524.3169	0.003301
524.5411	0.003933
524.7653	0.003680
524.9895	0.003828
525.2138	0.003554
525.4380	0.003322
525.6623	0.003280
525.8865	0.004250
526.1108	0.002541
526.3351	0.003596
526.5594	0.003891
526.7837	0.002710
527.0081	0.004756
527.2324	0.002077
527.4568	0.003659
527.6811	0.004165
527.9055	0.003448
528.1299	0.004102
528.3543	0.004376
528.5787	0.004482
528.8031	0.004777
529.0276	0.003870
529.2520	0.005072
529.4765	0.003512
529.7009	0.004798
529.9254	0.002309
530.1499	0.004608
530.3744	0.004629
530.5989	0.003090
530.8234	0.004756
531.0480	0.003807
531.2725	0.002773
531.4971	0.003343
531.7217	0.004461
531.9462	0.004229
532.1708	0.004798
532.3954	0.005178
532.6200	0.003786
532.8447	0.006296
533.0693	0.004819
533.2940	0.005515
533.5186	0.005389
533.7433	0.004524
533.9680	0.007266
534.1927	0.006380
534.4174	0.007392
534.6421	0.006570
534.8668	0.006865
535.0916	0.006253
535.3163	0.005832
535.5411	0.008320
535.7659	0.006633
535.9907	0.007013
536.2155	0.005368
536.4403	0.006675
536.6651	0.006232
536.8899	0.005811
537.1148	0.006633
537.3396	0.007878
537.5645	0.006422
537.7894	0.006464
538.0143	0.007899
538.2392	0.007435
538.4641	0.006844
538.6890	0.008257
538.9139	0.006549
539.1389	0.009248
539.3638	0.008342
539.5888	0.008869
539.8138	0.010176
540.0388	0.010451
540.2638	0.009080
540.4888	0.010113
540.7138	0.008363
540.9389	0.008531
541.1639	0.009333
541.3890	0.009016
541.6140	0.009712
541.8391	0.010746
542.0642	0.010851
542.2893	0.010894
542.5144	0.009143
542.7396	0.011126
542.9647	0.009291
543.1899	0.011400
543.4150	0.010493
543.6402	0.011484
543.8654	0.011864
544.0906	0.011927
544.3158	0.011379
544.5410	0.012665
544.7662	0.012075
544.9915	0.012728
545.2167	0.011969
545.4420	0.013888
545.6673	0.011083
545.8926	0.012982
546.1179	0.011695
546.3432	0.011379
546.5685	0.011252
546.7938	0.011779
547.0192	0.012496
547.2445	0.011526
547.4699	0.011948
547.6953	0.013382
547.9206	0.015491
548.1460	0.016567
548.3715	0.017031
548.5969	0.017769
548.8223	0.016609
549.0478	0.018296
549.2732	0.016462
549.4987	0.014057
549.7242	0.015913
549.9496	0.014057
550.1751	0.015998
550.4007	0.017136
550.6262	0.015365
550.8517	0.013825
551.0773	0.015555
551.3028	0.015048
551.5284	0.013192
551.7540	0.015702
551.9796	0.015913
552.2052	0.018170
552.4308	0.018634
552.6564	0.017917
552.8820	0.016483
553.1077	0.018992
553.3333	0.018782
553.5590	0.019288
553.7847	0.018613
554.0104	0.020511
554.2361	0.020406
554.4618	0.018866
554.6875	0.019604
554.9132	0.020427
555.1390	0.018149
555.3648	0.018191
555.5905	0.020258
555.8163	0.020005
556.0421	0.021734
556.2679	0.020954
556.4937	0.020722
556.7195	0.021481
556.9454	0.020047
557.1712	0.021629
557.3971	0.022451
557.6230	0.020300
557.8488	0.020785
558.0747	0.022430
558.3006	0.023506
558.5266	0.022831
558.7525	0.021861
558.9784	0.020891
559.2044	0.021017
559.4303	0.022051
559.6563	0.022683
559.8823	0.022557
560.1083	0.022515
560.3343	0.025067
560.5603	0.026796
560.7863	0.024624
561.0124	0.026564
561.2384	0.027598
561.4645	0.030107
561.6905	0.030086
561.9166	0.029053
562.1427	0.029411
562.3688	0.028842
562.5949	0.027809
562.8211	0.027640
563.0472	0.028251
563.2733	0.028104
563.4995	0.028589
563.7257	0.028863
563.9519	0.028715
564.1781	0.031267
564.4043	0.032638
564.6305	0.033229
564.8567	0.031162
565.0829	0.032744
565.3092	0.033798
565.5355	0.034895
565.7617	0.034895
565.9880	0.032533
566.2143	0.033988
566.4406	0.033566
566.6669	0.036287
566.8932	0.035886
567.1196	0.037953
567.3459	0.036477
567.5723	0.042404
567.7987	0.046200
568.0250	0.046769
568.2514	0.045420
568.4778	0.049532
568.7043	0.049089
568.9307	0.053455
569.1571	0.057273
569.3836	0.060943
569.6100	0.064507
569.8365	0.068535
570.0630	0.078996
570.2895	0.085324
570.5160	0.084459
570.7425	0.087306
570.9690	0.088677
571.1956	0.091145
571.4221	0.100847
571.6487	0.104960
571.8752	0.105866
572.1018	0.109452
572.3284	0.115147
572.5550	0.113881
572.7816	0.106457
573.0082	0.098759
573.2349	0.095637
573.4615	0.102850
573.6882	0.118289
573.9149	0.124975
574.1415	0.130416
574.3682	0.130691
574.5949	0.139085
574.8216	0.138389
575.0484	0.144273
575.2751	0.148154
575.5018	0.149419
575.7286	0.144189
575.9554	0.138621
576.1821	0.130733
576.4089	0.129193
576.6357	0.134571
576.8626	0.141531
577.0894	0.147985
577.3162	0.156253
577.5431	0.155156
577.7699	0.160049
577.9968	0.201303
578.2237	0.209128
578.4505	0.205205
578.6774	0.190083
578.9044	0.182216
579.1313	0.168085
579.3582	0.156084
579.5851	0.160260
579.8121	0.166419
580.0391	0.168570
580.2660	0.171797
580.4930	0.174476
580.7200	0.169688
580.9470	0.165491
581.1741	0.174138
581.4011	0.201578
581.6281	0.244751
581.8552	0.267023
582.0822	0.271853
582.3093	0.264851
582.5364	0.254094
582.7635	0.234859
582.9906	0.217501
583.2177	0.194765
583.4449	0.181942
583.6720	0.170721
583.8991	0.156380
584.1263	0.151971
584.3535	0.153258
584.5807	0.156337
584.8079	0.162496
585.0351	0.175615
585.2623	0.185759
585.4895	0.195820
585.7167	0.195967
585.9440	0.194660
586.1713	0.185844
586.3985	0.180318
586.6258	0.166777
586.8531	0.163846
587.0804	0.165196
587.3077	0.176880
587.5350	0.184304
587.7624	0.183587
587.9897	0.187320
588.2171	0.176036
588.4445	0.169688
588.6718	0.162918
588.8992	0.162833
589.1266	0.152878
589.3540	0.144358
589.5815	0.138895
589.8089	0.133348
590.0363	0.135689
590.2638	0.130923
590.4913	0.124384
590.7187	0.122613
590.9462	0.117867
591.1737	0.111456
591.4012	0.108882
591.6288	0.107617
591.8563	0.107554
592.0838	0.109621
592.3114	0.105234
592.5389	0.108503
592.7665	0.126958
592.9941	0.146572
593.2217	0.166313
593.4493	0.166651
593.6769	0.167094
593.9046	0.167136
594.1322	0.160534
594.3598	0.150622
594.5875	0.141595
594.8152	0.139486
595.0429	0.148934
595.2705	0.160260
595.4983	0.160956
595.7260	0.158510
595.9537	0.151402
596.1814	0.143451
596.4092	0.134424
596.6369	0.126156
596.8647	0.115463
597.0925	0.114556
597.3203	0.118141
597.5481	0.123520
597.7759	0.122718
598.0037	0.120103
598.2315	0.116960
598.4594	0.113354
598.6872	0.115379
598.9151	0.126240
599.1430	0.145265
599.3709	0.157919
599.5988	0.154608
599.8267	0.149082
600.0546	0.148576
600.2825	0.148344
600.5105	0.152921
600.7384	0.151022
600.9664	0.149040
601.1944	0.148850
601.4223	0.153827
601.6503	0.147859
601.8783	0.143767
602.1064	0.135246
602.3344	0.138832
602.5624	0.133664
602.7905	0.138684
603.0185	0.138326
603.2466	0.145159
603.4747	0.147753
603.7028	0.157223
603.9309	0.154502
604.1590	0.150938
604.3871	0.141257
604.6152	0.140835
604.8434	0.134002
605.0715	0.126852
605.2997	0.124384
605.5279	0.131640
605.7561	0.135035
605.9843	0.140857
606.2125	0.142185
606.4407	0.137714
606.6689	0.133643
606.8972	0.126704
607.1254	0.127907
607.3537	0.125312
607.5819	0.131387
607.8102	0.128877
608.0385	0.131091
608.2668	0.125291
608.4951	0.119618
608.7235	0.116496
608.9518	0.118331
609.1801	0.114809
609.4085	0.109705
609.6369	0.108777
609.8653	0.107364
610.0936	0.115273
610.3220	0.122423
610.5505	0.125144
610.7789	0.118542
611.0073	0.117024
611.2357	0.111645
611.4642	0.112215
611.6927	0.112025
611.9211	0.116349
612.1496	0.114324
612.3781	0.108545
612.6066	0.106225
612.8351	0.107237
613.0637	0.105276
613.2922	0.107406
613.5208	0.108334
613.7493	0.102471
613.9779	0.103040
614.2065	0.104306
614.4351	0.104875
614.6637	0.103652
614.8923	0.101796
615.1209	0.103357
615.3495	0.101480
615.5782	0.104896
615.8068	0.110591
616.0355	0.108587
616.2642	0.106056
616.4929	0.097704
616.7216	0.094161
616.9503	0.089162
617.1790	0.091356
617.4077	0.090111
617.6365	0.092537
617.8652	0.092685
618.0940	0.090533
618.3227	0.091314
618.5515	0.087834
618.7803	0.084480
619.0091	0.079228
619.2379	0.075854
619.4667	0.076740
619.6956	0.074631
619.9244	0.071973
620.1533	0.074926
620.3821	0.080768
620.6110	0.079798
620.8399	0.077225
621.0688	0.072817
621.2977	0.064148
621.5266	0.058243
621.7556	0.060521
621.9845	0.062482
622.2135	0.064908
622.4424	0.069231
622.6714	0.070434
622.9004	0.068852
623.1294	0.070117
623.3584	0.072986
623.5874	0.073450
623.8164	0.073787
624.0454	0.074146
624.2745	0.068936
624.5035	0.070286
624.7326	0.072374
624.9617	0.074335
625.1908	0.076023
625.4199	0.072290
625.6490	0.067312
625.8781	0.066447
626.1072	0.065351
626.3364	0.060605
626.5655	0.064655
626.7947	0.061807
627.0238	0.057020
627.2530	0.057526
627.4822	0.056977
627.7114	0.059255
627.9406	0.058475
628.1698	0.055691
628.3991	0.052759
628.6283	0.048689
628.8576	0.047592
629.0868	0.045673
629.3161	0.053223
629.5454	0.052148
629.7747	0.053033
630.0040	0.053139
630.2333	0.051452
630.4626	0.050376
630.6920	0.050207
630.9213	0.046010
631.1507	0.046348
631.3801	0.045694
631.6094	0.043880
631.8388	0.041117
632.0682	0.044112
632.2976	0.042825
632.5271	0.042214
632.7565	0.038059
632.9859	0.039345
633.2154	0.037616
633.4448	0.036203
633.6743	0.035633
633.9038	0.037131
634.1333	0.036034
634.3628	0.035507
634.5923	0.036308
634.8218	0.035612
635.0514	0.032427
635.2809	0.032470
635.5105	0.030297
635.7400	0.033587
635.9696	0.035675
636.1992	0.033904
636.4288	0.037447
636.6584	0.037405
636.8880	0.036793
637.1177	0.037426
637.3473	0.036013
637.5770	0.034241
637.8066	0.033334
638.0363	0.034073
638.2660	0.034705
638.4957	0.034305
638.7254	0.032997
638.9551	0.035317
639.1848	0.035760
639.4145	0.036266
639.6443	0.033239
639.8740	0.032361
640.1038	0.028845
640.3336	0.032665
640.5633	0.031412
640.7931	0.032047
641.0229	0.029165
641.2528	0.028338
641.4826	0.027879
641.7124	0.027757
641.9423	0.026443
642.1721	0.026846
642.4020	0.023802
642.6319	0.023735
642.8617	0.025229
643.0916	0.024638
643.3216	0.026179
643.5515	0.025568
643.7814	0.025634
644.0113	0.025893
644.2413	0.021947
644.4712	0.021656
644.7012	0.023516
644.9312	0.022230
645.1612	0.024013
645.3912	0.021515
645.6212	0.022597
645.8512	0.021766
646.0812	0.022257
646.3113	0.022528
646.5413	0.020109
646.7714	0.020150
647.0015	0.020916
647.2316	0.020451
647.4616	0.021233
647.6918	0.022318
647.9219	0.020397
648.1520	0.024100
648.3821	0.022769
648.6123	0.025070
648.8424	0.025727
649.0726	0.027826
649.3028	0.028821
649.5329	0.026311
649.7631	0.027027
649.9933	0.026588
650.2236	0.027425
650.4538	0.024397
650.6840	0.024318
650.9143	0.024064
651.1445	0.022759
651.3748	0.022858
651.6051	0.021132
651.8354	0.023245
652.0657	0.025330
652.2960	0.025758
652.5263	0.024465
652.7566	0.026562
652.9870	0.025923
653.2173	0.026372
653.4477	0.027906
653.6780	0.026983
653.9084	0.023957
654.1388	0.026221
654.3692	0.028597
654.5996	0.027341
654.8300	0.031339
655.0605	0.033432
655.2909	0.047863
655.5213	0.132352
655.7518	0.388934
655.9823	0.784888
656.2128	1.000000
656.4433	1.000000
656.6738	1.000000
656.9043	1.000000
657.1348	0.885060
657.3653	0.721249
657.5959	0.585705
657.8264	0.493867
658.0570	0.431761
658.2875	0.395388
658.5181	0.355249
658.7487	0.324225
658.9793	0.304033
659.2099	0.284900
659.4406	0.233979
659.6712	0.162003
659.9018	0.097174
660.1325	0.059747
660.3632	0.037468
660.5938	0.027732
660.8245	0.022896
661.0552	0.021266
661.2859	0.020450
661.5166	0.020106
661.7474	0.018022
661.9781	0.018054
662.2088	0.016757
662.4396	0.019022
662.6704	0.018128
662.9011	0.017818
663.1319	0.016143
663.3627	0.019208
663.5935	0.017749
663.8243	0.019253
664.0552	0.017912
664.2860	0.017334
664.5168	0.018725
664.7477	0.016559
664.9786	0.020867
665.2094	0.018252
665.4403	0.020055
665.6712	0.020249
665.9021	0.021076
666.1330	0.020761
666.3640	0.020536
666.5949	0.017619
666.8259	0.018502
667.0568	0.016352
667.2878	0.016028
667.5188	0.018026
667.7497	0.017645
667.9807	0.019164
668.2117	0.017082
668.4428	0.015070
668.6738	0.017094
668.9048	0.018064
669.1359	0.016672
669.3669	0.017558
669.5980	0.019246
669.8291	0.018275
670.0602	0.018212
670.2913	0.017537
670.5224	0.018275
670.7535	0.018275
670.9846	0.017326
671.2157	0.017158
671.4469	0.021734
671.6781	0.021945
671.9092	0.023548
672.1404	0.025552
672.3716	0.028230
672.6028	0.029369
672.8340	0.028842
673.0652	0.028947
673.2964	0.027661
673.5277	0.025151
673.7589	0.025109
673.9902	0.023717
674.2214	0.023738
674.4527	0.023696
674.6840	0.023422
674.9153	0.022578
675.1466	0.020722
675.3779	0.021102
675.6093	0.021924
675.8406	0.021734
676.0719	0.021755
676.3033	0.019330
676.5347	0.021102
676.7661	0.019414
676.9974	0.020574
677.2288	0.019246
677.4602	0.019794
677.6917	0.018212
677.9231	0.023084
678.1545	0.023843
678.3860	0.023063
678.6174	0.025109
678.8489	0.025235
679.0804	0.025299
679.3119	0.024582
679.5434	0.026374
679.7749	0.028547
680.0064	0.030339
680.2379	0.030698
680.4694	0.027830
680.7010	0.027429
680.9325	0.028273
681.1641	0.027703
681.3957	0.028041
681.6273	0.029074
681.8589	0.028589
682.0905	0.028737
682.3221	0.026733
682.5537	0.027049
682.7854	0.024118
683.0170	0.025046
683.2487	0.025510
683.4803	0.023654
683.7120	0.024307
683.9437	0.025489
684.1754	0.028547
684.4071	0.028399
684.6388	0.029369
684.8705	0.030656
685.1023	0.030972
685.3340	0.032702
685.5658	0.035022
685.7975	0.036730
686.0293	0.035443
686.2611	0.035233
686.4929	0.037700
686.7247	0.036266
686.9565	0.036983
687.1883	0.038565
687.4202	0.036814
687.6520	0.037131
687.8838	0.036899
688.1157	0.035148
688.3476	0.032470
688.5795	0.032027
688.8114	0.031162
689.0433	0.030550
689.2752	0.030150
689.5071	0.030107
689.7390	0.029285
689.9710	0.028167
690.2029	0.029348
690.4349	0.029137
690.6669	0.029369
690.8988	0.028483
691.1308	0.026859
691.3628	0.030361
691.5948	0.032449
691.8269	0.032512
692.0589	0.032090
692.2909	0.030761
692.5230	0.029454
692.7550	0.031331
692.9871	0.030635
693.2192	0.029812
693.4513	0.032364
693.6834	0.031900
693.9155	0.029960
694.1476	0.029749
694.3797	0.028589
694.6119	0.028568
694.8440	0.027176
695.0762	0.028800
695.3083	0.028230
695.5405	0.028273
695.7727	0.027239
696.0049	0.026986
696.2371	0.023253
696.4693	0.024729
696.7016	0.025910
696.9338	0.030044
697.1660	0.032470
697.3983	0.033946
697.6306	0.032934
697.8628	0.033102
698.0951	0.032006
698.3274	0.032027
698.5597	0.032934
698.7920	0.033313
699.0243	0.030656
699.2567	0.028926
699.4890	0.027640
699.7214	0.027197
699.9537	0.028062
700.1861	0.027998
700.4185	0.027745
700.6509	0.025025
700.8833	0.026206
701.1157	0.024666
701.3481	0.023675
701.5806	0.022536
701.8130	0.022768
702.0454	0.023000
702.2779	0.024434
702.5104	0.023506
702.7429	0.025046
702.9753	0.023358
703.2078	0.026079
703.4403	0.024539
703.6729	0.023337
703.9054	0.024097
704.1379	0.024350
704.3705	0.022979
704.6030	0.023084
704.8356	0.022747
705.0682	0.022430
705.3008	0.019203
705.5334	0.018528
705.7660	0.019372
705.9986	0.018613
706.2312	0.021038
706.4638	0.022599
706.6965	0.024518
706.9291	0.027113
707.1618	0.028483
707.3945	0.032322
707.6272	0.031267
707.8599	0.030677
708.0926	0.029749
708.3253	0.031289
708.5580	0.028104
708.7907	0.032195
709.0235	0.030867
709.2562	0.028188
709.4890	0.029053
709.7217	0.026796
709.9545	0.026459
710.1873	0.027387
710.4201	0.028230
710.6529	0.029749
710.8857	0.030508
711.1186	0.028188
711.3514	0.025573
711.5842	0.025868
711.8171	0.025025
712.0500	0.023886
712.2828	0.024075
712.5157	0.024603
712.7486	0.023063
712.9815	0.025109
713.2144	0.024392
713.4474	0.024434
713.6803	0.026227
713.9132	0.027534
714.1462	0.026016
714.3791	0.029158
714.6121	0.030593
714.8451	0.026606
715.0781	0.027471
715.3111	0.027345
715.5441	0.028926
715.7771	0.029960
716.0102	0.027345
716.2432	0.026986
716.4762	0.026058
716.7093	0.023611
716.9424	0.023928
717.1754	0.022979
717.4085	0.023232
717.6416	0.023147
717.8747	0.019414
718.1078	0.021481
718.3410	0.024223
718.5741	0.023379
718.8072	0.022051
719.0404	0.022494
719.2736	0.021566
719.5067	0.025531
719.7399	0.024202
719.9731	0.022852
720.2063	0.021376
720.4395	0.022451
720.6727	0.022156
720.9060	0.024223
721.1392	0.022873
721.3725	0.025257
721.6057	0.024455
721.8390	0.026037
722.0723	0.024392
722.3055	0.024729
722.5388	0.024582
722.7721	0.024350
723.0055	0.021713
723.2388	0.023633
723.4721	0.021481
723.7055	0.022726
723.9388	0.022789
724.1722	0.024877
724.4056	0.022241
724.6389	0.021713
724.8723	0.023865
725.1057	0.022114
725.3391	0.024919
725.5726	0.026691
725.8060	0.027091
726.0394	0.027429
726.2729	0.027598
726.5063	0.026522
726.7398	0.028969
726.9733	0.026754
727.2068	0.025552
727.4403	0.027091
727.6738	0.026121
727.9073	0.026417
728.1408	0.028969
728.3743	0.028568
728.6079	0.026522
728.8414	0.029897
729.0750	0.029411
729.3086	0.027049
729.5421	0.028505
729.7757	0.028526
730.0093	0.029643
730.2429	0.030086
730.4766	0.029243
730.7102	0.030129
730.9438	0.033440
731.1775	0.035380
731.4111	0.033630
731.6448	0.035823
731.8785	0.036878
732.1122	0.037363
732.3458	0.033208
732.5795	0.035275
732.8133	0.034769
733.0470	0.032217
733.2807	0.037131
733.5145	0.032596
733.7482	0.036034
733.9820	0.033925
734.2157	0.038354
734.4495	0.041708
734.6833	0.044639
734.9171	0.042804
735.1509	0.040400
735.3847	0.039366
735.6185	0.038460
735.8524	0.039577
736.0862	0.040273
736.3201	0.040864
736.5539	0.040231
736.7878	0.041497
737.0217	0.040126
737.2556	0.038755
737.4895	0.040231
737.7234	0.037658
737.9573	0.037300
738.1912	0.036751
738.4252	0.031563
738.6591	0.035022
738.8931	0.034832
739.1271	0.034199
739.3610	0.035254
739.5950	0.039514
739.8290	0.038291
740.0630	0.036941
740.2970	0.034136
740.5310	0.035211
740.7651	0.033208
740.9991	0.031626
741.2332	0.030466
741.4672	0.029833
741.7013	0.030571
741.9354	0.030044
742.1695	0.027113
742.4036	0.028462
742.6377	0.028062
742.8718	0.028969
743.1059	0.028863
743.3400	0.027028
743.5742	0.026332
743.8083	0.026269
744.0425	0.024455
744.2767	0.026121
744.5108	0.023801
744.7450	0.022620
744.9792	0.024666
745.2134	0.024329
745.4477	0.024075
745.6819	0.024793
745.9161	0.025003
746.1504	0.022283
746.3846	0.022894
746.6189	0.023675
746.8532	0.023253
747.0874	0.021355
747.3217	0.024835
747.5560	0.026037
747.7903	0.026121
748.0247	0.025636
748.2590	0.024582
748.4933	0.023907
748.7277	0.022979
748.9620	0.024244
749.1964	0.023485
749.4308	0.025003
749.6652	0.026248
749.8995	0.028462
750.1339	0.030276
750.3684	0.031436
750.6028	0.033334
750.8372	0.033166
751.0717	0.033482
751.3061	0.032891
751.5406	0.032006
751.7750	0.031078
752.0095	0.032174
752.2440	0.033798
752.4785	0.031900
752.7130	0.032891
752.9475	0.031078
753.1820	0.030361
753.4166	0.027914
753.6511	0.030445
753.8856	0.033524
754.1202	0.035422
754.3548	0.034431
754.5894	0.033988
754.8239	0.034262
755.0585	0.035064
755.2931	0.031647
755.5278	0.034326
755.7624	0.034874
755.9970	0.033693
756.2317	0.034537
756.4663	0.036625
756.7010	0.037974
756.9356	0.039830
757.1703	0.042024
757.4050	0.043226
757.6397	0.047592
757.8744	0.048056
758.1091	0.047676
758.3438	0.047170
758.5786	0.048499
758.8133	0.045145
759.0481	0.042762
759.2828	0.044576
759.5176	0.045103
759.7524	0.050313
759.9872	0.050207
760.2220	0.050650
760.4568	0.051388
760.6916	0.053033
760.9264	0.053919
761.1613	0.051852
761.3961	0.050123
761.6310	0.049174
761.8658	0.045272
762.1007	0.042530
762.3356	0.041201
762.5705	0.038143
762.8054	0.039430
763.0403	0.038185
763.2752	0.038565
763.5101	0.042404
763.7450	0.043690
763.9800	0.040780
764.2149	0.041476
764.4499	0.041897
764.6849	0.046010
764.9198	0.047655
765.1548	0.049722
765.3898	0.046685
765.6248	0.045420
765.8599	0.043332
766.0949	0.043732
766.3299	0.042298
766.5650	0.039156
766.8000	0.035465
767.0351	0.033946
767.2701	0.032006
767.5052	0.031436
767.7403	0.031078
767.9754	0.031858
768.2105	0.034009
768.4456	0.033334
768.6808	0.037890
768.9159	0.038460
769.1510	0.038670
769.3862	0.040864
769.6214	0.039704
769.8565	0.038649
770.0917	0.036519
770.3269	0.035697
770.5621	0.036878
770.7973	0.038797
771.0325	0.038333
771.2677	0.038565
771.5030	0.042150
771.7382	0.039620
771.9735	0.037911
772.2087	0.033714
772.4440	0.034663
772.6793	0.034600
772.9146	0.033334
773.1499	0.033377
773.3852	0.033862
773.6205	0.032153
773.8558	0.030002
774.0911	0.031542
774.3265	0.030192
774.5618	0.028062
774.7972	0.027302
775.0326	0.025699
775.2679	0.026016
775.5033	0.025046
775.7387	0.023843
775.9741	0.024350
776.2095	0.023886
776.4450	0.022135
776.6804	0.020321
776.9158	0.020595
777.1513	0.019393
777.3868	0.021038
777.6222	0.021376
777.8577	0.020638
778.0932	0.020321
778.3287	0.022388
778.5642	0.021249
778.7997	0.021587
779.0352	0.023042
779.2707	0.024497
779.5063	0.025889
779.7418	0.025046
779.9774	0.023464
780.2130	0.023886
780.4485	0.024223
780.6841	0.023928
780.9197	0.021186
781.1553	0.024413
781.3909	0.026838
781.6265	0.029243
781.8622	0.027893
782.0978	0.031267
782.3335	0.028083
782.5691	0.027830
782.8048	0.028589
783.0405	0.027977
783.2761	0.028315
783.5118	0.029833
783.7475	0.026248
783.9832	0.029475
784.2190	0.027724
784.4547	0.028378
784.6904	0.024223
784.9262	0.024476
785.1619	0.021439
785.3977	0.022198
785.6335	0.023633
785.8692	0.022705
786.1050	0.023865
786.3408	0.023822
786.5766	0.024075
786.8124	0.023738
787.0483	0.021861
787.2841	0.020870
787.5199	0.023822
787.7558	0.024244
787.9917	0.023970
788.2275	0.025531
788.4634	0.024603
788.6993	0.024497
788.9352	0.025678
789.1711	0.026058
789.4070	0.025193
789.6429	0.023569
789.8789	0.025931
790.1148	0.023063
790.3507	0.023295
790.5867	0.021713
790.8227	0.021397
791.0586	0.021017
791.2946	0.020195
791.5306	0.019878
791.7666	0.020469
792.0026	0.021059
792.2387	0.019056
792.4747	0.018402
792.7107	0.015829
792.9468	0.018992
793.1828	0.017221
793.4189	0.017537
793.6550	0.018845
793.8910	0.018550
794.1271	0.022304
794.3632	0.024075
794.5993	0.025341
794.8355	0.027935
795.0716	0.025995
795.3077	0.027577
795.5439	0.025594
795.7800	0.026163
796.0162	0.024919
796.2523	0.023759
796.4885	0.020996
796.7247	0.021692
796.9609	0.017263
797.1971	0.018465
797.4333	0.018318
797.6695	0.019899
797.9058	0.019246
798.1420	0.021123
798.3783	0.018528
798.6145	0.020258
798.8508	0.019393
799.0871	0.019984
799.3233	0.018824
799.5596	0.018275
799.7959	0.018971
800.0322	0.018803
800.2686	0.015407
800.5049	0.015808
800.7412	0.015829
800.9776	0.016630
801.2139	0.014964
801.4503	0.016588
801.6867	0.016672
801.9230	0.015871
802.1594	0.015006
802.3958	0.014859
802.6322	0.011484
802.8686	0.014226
803.1051	0.014331
803.3415	0.014036
803.5779	0.015133
803.8144	0.016293
804.0508	0.014416
804.2873	0.014120
804.5238	0.013656
804.7603	0.014036
804.9968	0.013931
805.2333	0.014880
805.4698	0.013846
805.7063	0.014015
805.9428	0.013846
806.1794	0.015323
806.4159	0.018318
806.6525	0.018128
806.8890	0.021144
807.1256	0.019688
807.3622	0.020448
807.5988	0.021080
807.8354	0.017706
808.0720	0.019583
808.3086	0.017980
808.5452	0.020068
808.7818	0.020005
809.0185	0.018191
809.2551	0.018908
809.4918	0.019077
809.7284	0.016672
809.9651	0.015217
810.2018	0.015787
810.4385	0.015808
810.6752	0.016208
810.9119	0.015133
811.1486	0.015829
811.3853	0.015470
811.6221	0.015365
811.8588	0.014395
812.0956	0.014479
812.3323	0.012792
812.5691	0.011864
812.8059	0.010261
813.0427	0.011463
813.2795	0.011695
813.5163	0.012370
813.7531	0.013656
813.9899	0.015639
814.2267	0.014985
814.4636	0.015766
814.7004	0.015048
814.9373	0.013931
815.1742	0.012792
815.4110	0.014120
815.6479	0.012496
815.8848	0.012771
816.1217	0.011315
816.3586	0.012939
816.5955	0.011779
816.8324	0.010176
817.0694	0.012054
817.3063	0.012792
817.5433	0.011927
817.7802	0.013614
818.0172	0.013129
818.2542	0.012328
818.4912	0.011758
818.7282	0.012560
818.9652	0.011758
819.2022	0.011632
819.4392	0.009628
819.6762	0.011336
819.9133	0.009691
820.1503	0.010387
820.3874	0.011758
820.6244	0.012307
820.8615	0.011716
821.0986	0.013340
821.3357	0.011737
821.5727	0.012855
821.8099	0.011547
822.0470	0.013256
822.2841	0.012264
822.5212	0.011864
822.7584	0.012328
822.9955	0.010894
823.2327	0.009649
823.4698	0.008974
823.7070	0.009607
823.9442	0.010387
824.1814	0.009987
824.4186	0.009628
824.6558	0.009143
824.8930	0.008299
825.1302	0.008869
825.3675	0.010240
825.6047	0.011779
825.8419	0.010472
826.0792	0.010957
826.3165	0.010556
826.5537	0.009333
826.7910	0.012602
827.0283	0.009248
827.2656	0.009565
827.5029	0.011231
827.7402	0.009459
827.9776	0.011231
828.2149	0.011273
828.4522	0.009649
828.6896	0.011147
828.9270	0.010556
829.1643	0.010113
829.4017	0.009966
829.6391	0.009881
829.8765	0.009860
830.1139	0.010198
830.3513	0.009480
830.5887	0.009860
830.8261	0.009966
831.0636	0.007688
831.3010	0.007118
831.5385	0.008025
831.7759	0.006211
832.0134	0.006317
832.2509	0.006612
832.4884	0.007414
832.7259	0.006781
832.9634	0.006190
833.2009	0.007751
833.4384	0.010092
833.6759	0.007730
833.9135	0.007308
834.1510	0.007688
834.3886	0.007456
834.6261	0.008616
834.8637	0.009987
835.1013	0.009227
835.3389	0.009248
835.5765	0.008658
835.8141	0.008510
836.0517	0.007582
836.2893	0.007013
836.5269	0.008721
836.7646	0.005705
837.0022	0.006043
837.2399	0.006507
837.4775	0.005663
837.7152	0.005220
837.9529	0.006169
838.1906	0.007013
838.4283	0.005304
838.6660	0.006275
838.9037	0.006549
839.1414	0.005410
839.3791	0.005684
839.6169	0.007076
839.8546	0.007181
840.0924	0.006422
840.3302	0.006928
840.5679	0.006401
840.8057	0.005684
841.0435	0.006612
841.2813	0.005368
841.5191	0.005874
841.7569	0.004566
841.9947	0.006169
842.2326	0.005072
842.4704	0.005410
842.7082	0.004798
842.9461	0.004777
843.1840	0.003849
843.4218	0.004861
843.6597	0.004250
843.8976	0.003870
844.1355	0.003554
844.3734	0.007013
844.6113	0.005789
844.8492	0.006338
845.0872	0.004271
845.3251	0.005494
845.5631	0.004587
845.8010	0.004819
846.0390	0.005009
846.2770	0.005747
846.5149	0.004756
846.7529	0.006296
846.9909	0.004313
847.2289	0.002752
847.4669	0.003448
847.7050	0.005009
847.9430	0.004419
848.1810	0.005283
848.4191	0.003491
848.6571	0.004925
848.8952	0.002984
849.1333	0.003427
849.3713	0.003343
849.6094	0.004208
849.8475	0.003343
850.0856	0.003765
850.3237	0.004018
850.5619	0.004587
850.8000	0.003744
851.0381	0.005431
851.2763	0.003786
851.5144	0.002816
851.7526	0.004334
851.9908	0.004229
852.2289	0.004018
852.4671	0.005853
852.7053	0.004566
852.9435	0.007097
853.1817	0.008004
853.4200	0.010134
853.6582	0.010451
853.8964	0.011189
854.1347	0.011674
854.3729	0.012433
854.6112	0.010915
854.8495	0.013340
855.0877	0.011948
855.3260	0.011568
855.5643	0.010282
855.8026	0.010767
856.0409	0.009607
856.2792	0.010134
856.5176	0.007920
856.7559	0.011041
856.9942	0.009206
857.2326	0.009987
857.4710	0.009607
857.7093	0.009586
857.9477	0.008447
858.1861	0.008363
858.4245	0.009206
858.6629	0.008342
858.9013	0.006633
859.1397	0.007582
859.3781	0.007709
859.6166	0.007603
859.8550	0.008700
860.0935	0.007793
860.3319	0.007477
860.5704	0.008299
860.8089	0.005684
861.0473	0.005157
861.2858	0.005747
861.5243	0.004735
861.7628	0.004861
862.0013	0.006169
862.2399	0.004313
862.4784	0.004946
862.7169	0.005536
862.9555	0.005747
863.1940	0.005515
863.4326	0.005874
863.6712	0.005410
863.9098	0.006654
864.1483	0.005030
864.3869	0.006591
864.6255	0.004693
864.8642	0.004651
865.1028	0.004187
865.3414	0.003617
865.5800	0.005136
865.8187	0.004988
866.0573	0.004861
866.2960	0.003701
866.5347	0.004419
866.7733	0.004904
867.0120	0.005009
867.2507	0.005283
867.4894	0.005178
867.7281	0.003512
867.9669	0.004081
868.2056	0.006844
868.4443	0.004756
868.6831	0.004545
868.9218	0.004756
869.1606	0.004840
869.3993	0.004102
869.6381	0.004651
869.8769	0.003027
870.1157	0.003048
870.3545	0.004587
870.5933	0.003048
870.8321	0.004292
871.0709	0.005009
871.3097	0.003554
871.5486	0.005157
871.7874	0.003301
872.0263	0.004440
872.2651	0.005515
872.5040	0.004503
872.7429	0.004419
872.9818	0.004524
873.2207	0.003933
873.4596	0.003955
873.6985	0.003216
873.9374	0.004060
874.1763	0.003933
874.4153	0.004440
874.6542	0.004672
874.8932	0.004608
875.1321	0.006443
875.3711	0.004482
875.6101	0.006021
875.8491	0.005494
876.0880	0.005705
876.3270	0.003891
876.5661	0.004165
876.8051	0.004883
877.0441	0.005283
877.2831	0.004039
877.5222	0.004714
877.7612	0.003723
878.0003	0.004819
878.2393	0.004440
878.4784	0.004819
878.7175	0.006422
878.9566	0.004861
879.1957	0.005136
879.4348	0.006064
879.6739	0.005832
879.9130	0.006612
880.1521	0.006633
880.3913	0.007266
880.6304	0.006380
880.8696	0.005979
881.1087	0.006169
881.3479	0.005494
881.5871	0.006675
881.8262	0.006696
882.0654	0.006190
882.3046	0.005030
882.5438	0.006169
882.7831	0.005431
883.0223	0.006296
883.2615	0.006021
883.5007	0.004208
883.7400	0.006064
883.9792	0.005726
884.2185	0.005494
884.4578	0.006043
884.6971	0.006907
884.9363	0.005093
885.1756	0.004672
885.4149	0.005325
885.6542	0.005199
885.8936	0.005684
886.1329	0.006359
886.3722	0.005283
886.6116	0.006359
886.8509	0.005325
887.0903	0.004419
887.3296	0.005410
887.5690	0.004419
887.8084	0.005283
888.0478	0.004144
888.2872	0.004250
888.5266	0.005009
888.7660	0.004503
889.0054	0.003322
889.2448	0.003891
889.4843	0.005325
889.7237	0.004081
889.9632	0.003912
890.2026	0.004566
890.4421	0.004988
890.6816	0.003765
890.9211	0.002900
891.1606	0.003427
891.4001	0.002963
891.6396	0.004355
891.8791	0.004840
892.1186	0.005115
892.3581	0.003385
892.5977	0.003237
892.8372	0.005093
893.0768	0.004587
893.3163	0.004883
893.5559	0.005621
893.7955	0.004777
894.0351	0.003912
894.2747	0.004714
894.5143	0.003512
894.7539	0.004503
894.9935	0.003976
895.2331	0.003575
895.4727	0.003364
895.7124	0.003828
895.9520	0.003617
896.1917	0.003554
896.4314	0.004165
896.6710	0.004482
896.9107	0.003364
897.1504	0.004798
897.3901	0.003786
897.6298	0.004608
897.8695	0.002858
898.1092	0.003976
898.3489	0.003912
898.5887	0.005262
898.8284	0.003132
899.0682	0.004355
899.3079	0.003153
899.5477	0.004229
899.7875	0.002858
900.0272	0.002141
900.2670	0.002563
900.5068	0.004693
900.7466	0.004060
900.9864	0.003153
901.2263	0.002921
901.4661	0.003259
901.7059	0.004018
901.9458	0.002879
902.1856	0.004904
902.4255	0.003617
902.6654	0.003322
902.9052	0.004693
903.1451	0.002626
903.3850	0.003533
903.6249	0.003469
903.8648	0.003828
904.1047	0.003575
904.3446	0.004861
904.5846	0.003469
904.8245	0.003891
905.0644	0.005431
905.3044	0.004840
905.5444	0.003048
905.7843	0.003448
906.0243	0.003617
906.2643	0.004081
906.5043	0.003849
906.7443	0.004904
906.9843	0.003933
907.2243	0.004608
907.4643	0.003554
907.7043	0.003807
907.9444	0.003933
908.1844	0.003596
908.4245	0.005115
908.6645	0.003132
908.9046	0.002478
909.1447	0.003069
909.3847	0.002415
909.6248	0.001677
909.8649	0.003575
910.1050	0.000960
910.3452	0.002795
910.5853	0.004714
910.8254	0.003153
911.0655	0.004545
911.3057	0.002352
911.5458	0.002984
911.7860	0.004018
912.0262	0.003048
912.2663	0.002858
912.5065	0.004208
912.7467	0.002204
912.9869	0.003701
913.2271	0.003765
913.4673	0.005789
913.7075	0.003828
913.9478	0.004187
914.1880	0.002541
914.4283	0.002900
914.6685	0.002373
914.9088	0.003406
915.1490	0.001782
915.3893	0.002605
915.6296	0.001993
915.8699	0.003786
916.1102	0.001656
916.3505	0.002837
916.5908	0.003322
916.8311	0.003174
917.0714	0.003069
917.3118	0.004123
917.5521	0.003554
917.7925	0.004440
918.0328	0.003427
918.2732	0.004355
918.5136	0.003216
918.7539	0.002752
918.9943	0.003891
919.2347	0.004756
919.4751	0.001360
919.7155	0.002288
919.9560	0.001571
920.1964	0.004208
920.4368	0.002795
920.6773	0.003364
920.9177	0.003638
921.1582	0.001613
921.3986	0.002984
921.6391	0.003005
921.8796	0.003132
922.1201	0.001782
922.3606	0.002584
922.6011	0.002162
922.8416	0.003322
923.0821	0.003132
923.3226	0.001951
923.5631	0.002457
923.8037	0.004503
924.0442	0.002731
924.2848	0.003027
924.5254	0.002795
924.7659	0.002246
925.0065	0.004229
925.2471	0.002225
925.4877	0.002858
925.7283	0.003259
925.9689	0.003301
926.2095	0.001192
926.4501	0.002584
926.6908	0.001065
926.9314	0.002352
927.1720	0.002584
927.4127	0.002900
927.6533	0.000812
927.8940	0.001930
928.1347	0.001171
928.3754	0.002225
928.6161	0.002563
928.8568	0.002689
929.0975	0.001993
929.3382	0.002457
929.5789	0.002099
929.8196	0.001993
930.0604	0.000559
930.3011	0.002816
930.5419	0.000960
930.7826	0.002773
931.0234	0.001318
931.2642	0.001192
931.5049	0.002246
931.7457	0.001403
931.9865	0.001086
932.2273	0.002457
932.4681	0.000685
932.7089	0.001487
932.9498	0.001951
933.1906	0.001930
933.4314	0.002668
933.6723	0.001128
933.9131	0.000707
934.1540	0.001403
934.3949	0.001698
934.6358	0.000939
934.8766	0.002309
935.1175	0.003237
935.3584	0.002099
935.5993	0.001867
935.8403	0.001149
936.0812	0.002183
936.3221	0.002309
936.5630	0.001550
936.8040	0.001002
937.0449	0.000854
937.2859	0.001888
937.5269	0.000475
937.7678	0.001107
938.0088	0.000791
938.2498	0.001993
938.4908	0.001276
938.7318	0.001403
938.9728	0.000053
939.2138	-0.000601
939.4549	0.001213
939.6959	0.002120
939.9369	0.001234
940.1780	0.001318
940.4190	0.000939
940.6601	0.001466
940.9012	0.000158
941.1422	0.003280
941.3833	0.002373
941.6244	0.002520
941.8655	0.001845
942.1066	0.000896
942.3477	0.001529
942.5889	0.000981
942.8300	0.001192
943.0711	0.001803
943.3123	0.000643
943.5534	0.001951
943.7946	0.002056
944.0357	0.000158
944.2769	0.000348
944.5181	0.000896
944.7593	0.001086
945.0005	-0.000960
945.2417	0.000664
945.4829	0.000960
945.7241	0.001213
945.9653	0.001466
946.2066	0.001360
946.4478	0.001192
946.6891	0.001002
946.9303	0.001065
947.1716	0.000475
947.4128	-0.000137
947.6541	0.000496
947.8954	0.001149
948.1367	0.000390
948.3780	0.001803
948.6193	0.001571
948.8606	0.001255
949.1019	0.001888
949.3433	0.001234
949.5846	0.000517
949.8259	0.002352
950.0673	0.000432
950.3086	0.002141
950.5500	0.001044
950.7914	0.000728
951.0327	0.000685
951.2741	0.001044
951.5155	0.000622
951.7569	0.000981
951.9983	0.001149
952.2398	0.002246
952.4812	0.000685
952.7226	0.000728
952.9640	0.002415
953.2055	0.003448
953.4469	0.000390
953.6884	0.001635
953.9299	0.000601
954.1713	0.000812
954.4128	0.000369
954.6543	0.001888
954.8958	-0.000496
955.1373	0.000960
955.3788	0.001635
955.6203	0.001297
955.8618	0.001023
956.1034	0.001023
956.3449	0.001171
956.5865	0.001149
956.8280	0.001276
957.0696	0.002520
957.3111	0.001086
957.5527	0.000896
957.7943	-0.000074
958.0359	0.001128
958.2775	0.001171
958.5191	0.000770
958.7607	-0.000369
959.0023	0.002225
959.2439	0.001677
959.4856	0.001381
959.7272	0.001276
959.9688	0.000580
960.2105	0.001086
960.4522	0.001403
960.6938	0.001128
960.9355	0.001993
961.1772	-0.000875
961.4189	0.002984
961.6606	0.000095
961.9023	0.002056
962.1440	0.000917
962.3857	0.001192
962.6274	-0.000011
962.8692	0.000390
963.1109	0.000116
963.3527	0.001044
963.5944	0.000032
963.8362	0.001360
964.0779	0.000917
964.3197	0.000622
964.5615	0.001002
964.8033	0.001466
965.0451	0.000158
965.2869	0.001719
965.5287	-0.000917
965.7705	0.000053
966.0123	0.001107
966.2542	-0.000158
966.4960	0.000791
966.7379	0.000981
966.9797	0.001930
967.2216	0.000432
967.4634	0.000538
967.7053	0.001023
967.9472	0.001571
968.1891	0.001107
968.4310	-0.000243
968.6729	0.001213
968.9148	-0.000728
969.1567	-0.000685
969.3987	-0.000032
969.6406	0.001930
969.8825	0.001508
970.1245	0.001824
970.3664	0.001192
970.6084	0.002816
970.8504	-0.000221
971.0923	-0.000116
971.3343	0.000179
971.5763	0.001550
971.8183	0.001297
972.0603	0.001171
972.3023	0.002035
972.5443	0.000770
972.7864	0.000833
973.0284	0.001255
973.2704	-0.001171
973.5125	0.001698
973.7545	-0.000053
973.9966	0.000960
974.2387	0.000453
974.4807	0.000707
974.7228	0.000179
974.9649	0.000496
975.2070	0.000664
975.4491	0.001403
975.6912	0.001466
975.9333	0.000285
976.1755	0.001466
976.4176	0.000833
976.6597	0.000707
976.9019	0.001698
977.1440	0.001571
977.3862	-0.000053
977.6283	0.000791
977.8705	0.000685
978.1127	0.000264
978.3549	-0.000601
978.5971	0.000496
978.8393	0.001107
979.0815	0.001550
979.3237	0.001128
979.5659	0.000917
979.8082	-0.000390
980.0504	0.001086
980.2926	0.002752
980.5349	-0.000200
980.7771	0.000496
981.0194	0.000770
981.2617	0.000960
981.5040	-0.000053
981.7462	0.001592
981.9885	0.001845
982.2308	0.000116
982.4731	-0.000749
982.7155	0.001128
982.9578	0.000685
983.2001	0.000896
983.4424	0.000517
983.6848	0.001276
983.9271	-0.000179
984.1695	0.000158
984.4118	0.000285
984.6542	0.000221
984.8966	-0.000411
985.1390	0.000496
985.3814	0.001381
985.6238	0.001002
985.8662	-0.000032
986.1086	0.001445
986.3510	0.001192
986.5934	0.001002
986.8358	-0.000643
987.0783	0.001803
987.3207	-0.000095
987.5632	0.000158
987.8056	0.001192
988.0481	0.000221
988.2906	0.000306
988.5331	0.000411
988.7756	0.000390
989.0180	0.001065
989.2605	0.000158
989.5031	0.000981
989.7456	-0.000074
989.9881	0.000496
990.2306	0.000854
990.4732	0.000707
990.7157	-0.000137
990.9582	0.000095
991.2008	-0.000559
991.4434	0.001297
991.6859	0.000791
991.9285	0.002014
992.1711	0.000707
992.4137	0.000116
992.6563	-0.000622
992.8989	0.000243
993.1415	-0.000053
993.3841	0.000601
993.6267	0.000580
993.8694	0.000728
994.1120	-0.000411
994.3547	0.000432
994.5973	0.000749
994.8400	0.000390
995.0826	0.000411
995.3253	-0.001318
995.5680	-0.000327
995.8107	0.000917
996.0534	-0.000390
996.2961	0.001592
996.5388	-0.000285
996.7815	0.000411
997.0242	0.000200
997.2670	0.000243
997.5097	-0.000179
997.7524	0.000917
997.9952	0.000896
998.2379	0.000243
998.4807	-0.000158
998.7235	0.000453
998.9662	0.001403
999.2090	0.000854
999.4518	-0.000306
999.6946	0.000390
999.9374	0.001635
1000.1802	0.000411
1000.4230	0.000622
1000.6659	0.001803
1000.9087	0.000896
1001.1515	-0.000200
1001.3944	-0.000917
1001.6372	-0.000601
1001.8801	0.000580
1002.1230	0.000475
1002.3658	0.000664
1002.6087	-0.001107
1002.8516	0.000601
1003.0945	0.001002
1003.3374	0.000095
1003.5803	0.000011
1003.8232	0.001339
1004.0661	0.000032
1004.3091	0.000896
1004.5520	0.000643
1004.7949	0.000960
1005.0379	-0.000053
1005.2808	0.000559
1005.5238	0.000032
1005.7667	0.000854
1006.0097	0.001719
1006.2527	0.001213
1006.4957	-0.000728
1006.7387	0.000327
1006.9817	-0.001023
1007.2247	0.000158
1007.4677	0.001255
1007.7107	0.002204
1007.9538	0.000664
1008.1968	0.001487
1008.4398	-0.001065
1008.6829	0.000538
1008.9259	0.000432
1009.1690	0.001276
1009.4121	0.001107
1009.6551	0.000074
1009.8982	-0.000559
1010.1413	0.001529
1010.3844	0.001339
1010.6275	-0.000285
1010.8706	-0.000221
1011.1137	0.000917
1011.3568	0.000685
1011.6000	0.001149
1011.8431	-0.001171
1012.0863	0.000875
1012.3294	0.000095
1012.5726	0.001360
1012.8157	0.000917
1013.0589	0.000559
1013.3021	-0.000411
1013.5452	-0.000643
1013.7884	0.000011
1014.0316	0.001297
1014.2748	-0.001149
1014.5180	-0.000221
1014.7613	-0.000749
1015.0045	0.000348
1015.2477	-0.000053
1015.4909	0.000664
1015.7342	0.000664
1015.9774	0.002056
1016.2207	0.000179
1016.4640	0.000770
1016.7072	0.000685
1016.9505	0.000749
1017.1938	-0.000327
1017.4371	0.001065
1017.6804	0.001381
1017.9237	0.001023
1018.1670	0.001360
1018.4103	0.001867
1018.6536	-0.000538
1018.8969	0.001192
1019.1403	-0.002141
1019.3836	0.001107
1019.6270	0.001171
1019.8703	0.000749
1020.1137	-0.001149
1020.3571	0.001803
1020.6004	-0.000074
1020.8438	0.000981
1021.0872	0.000896
1021.3306	0.000685
1021.5740	-0.000306
1021.8174	-0.000011
1022.0608	0.001508
1022.3042	0.000685
1022.5477	-0.000369
1022.7911	0.000011
1023.0345	-0.000664
