# Wavelength (nm)	Intensity (a.u.)
197.7802	0.000888
197.9842	0.000381
198.1882	0.000550
198.3922	0.000339
198.5963	0.000508
198.8003	0.000255
199.0044	-0.000294
199.2085	0.000339
199.4126	0.001499
199.6168	0.001436
199.8209	0.000360
200.0251	0.000613
200.2292	0.000740
200.4334	-0.000167
200.6376	0.000149
200.8418	-0.001348
201.0461	0.000824
201.2503	0.001521
201.4546	0.000149
201.6589	0.000339
201.8631	0.000044
202.0674	0.000171
202.2718	0.001584
202.4761	0.000234
202.6805	-0.000040
202.8848	0.001457
203.0892	0.000993
203.2936	0.000719
203.4980	0.000993
203.7024	0.000466
203.9069	0.000972
204.1113	-0.000357
204.3158	0.000613
204.5203	-0.000272
204.7248	0.001183
204.9293	-0.001327
205.1338	0.002301
205.3384	0.001141
205.5430	0.000171
205.7475	0.001521
205.9521	0.001331
206.1567	0.000466
206.3614	0.000571
206.5660	0.000550
206.7706	0.000698
206.9753	0.000128
207.1800	0.000065
207.3847	0.000318
207.5894	0.001183
207.7941	0.000846
207.9989	-0.000040
208.2036	-0.000420
208.4084	-0.000357
208.6132	-0.001327
208.8180	0.001162
209.0228	0.000297
209.2276	0.000424
209.4325	-0.000589
209.6373	0.000740
209.8422	-0.000083
210.0471	-0.000420
210.2520	-0.000357
210.4569	-0.000462
210.6618	-0.000884
210.8668	0.000867
211.0718	0.000276
211.2767	-0.000547
211.4817	-0.000420
211.6867	0.001394
211.8918	-0.000167
212.0968	0.000381
212.3018	0.000466
212.5069	0.000740
212.7120	-0.000758
212.9171	0.001099
213.1222	0.000403
213.3273	0.000993
213.5325	-0.000125
213.7376	0.000867
213.9428	-0.000336
214.1480	0.001099
214.3532	-0.000863
214.5584	0.000635
214.7636	0.001099
214.9689	0.000656
215.1741	-0.000420
215.3794	0.000128
215.5847	0.000993
215.7900	-0.000040
215.9953	0.000171
216.2007	0.000508
216.4060	-0.000040
216.6114	0.000888
216.8168	0.001056
217.0222	-0.000251
217.2276	-0.000146
217.4330	0.001626
217.6384	-0.000589
217.8439	-0.000526
218.0494	0.001014
218.2548	0.000276
218.4603	0.000171
218.6659	0.002111
218.8714	0.000466
219.0769	0.000255
219.2825	-0.001264
219.4881	0.000065
219.6936	0.001014
219.8992	0.000803
220.1049	0.000508
220.3105	0.000909
220.5161	0.001225
220.7218	0.001352
220.9275	0.000698
221.1332	0.001183
221.3389	-0.000125
221.5446	-0.000462
221.7503	0.000044
221.9561	0.001436
222.1618	-0.001011
222.3676	0.000508
222.5734	-0.000336
222.7792	0.000128
222.9850	0.000824
223.1909	0.000213
223.3967	-0.000104
223.6026	-0.000083
223.8085	-0.000251
224.0144	0.000867
224.2203	0.000508
224.4262	-0.000652
224.6322	0.001478
224.8381	-0.000504
225.0441	-0.000947
225.2501	0.000360
225.4561	0.000107
225.6621	-0.000104
225.8681	0.000592
226.0742	0.000592
226.2802	0.000213
226.4863	-0.000357
226.6924	0.001689
226.8985	0.000044
227.1046	0.000993
227.3107	0.001056
227.5169	0.000550
227.7230	-0.000441
227.9292	0.000276
228.1354	0.000803
228.3416	-0.000062
228.5478	0.000719
228.7541	-0.000019
228.9603	0.000445
229.1666	0.000403
229.3729	-0.000737
229.5791	0.001056
229.7855	0.001668
229.9918	0.000360
230.1981	0.000508
230.4045	-0.000125
230.6108	-0.000272
230.8172	-0.001559
231.0236	0.000656
231.2300	-0.000167
231.4364	0.000192
231.6429	0.000508
231.8493	0.000635
232.0558	-0.000040
232.2623	-0.000504
232.4688	-0.000040
232.6753	0.000592
232.8818	-0.000462
233.0884	-0.000188
233.2949	-0.000083
233.5015	-0.000357
233.7081	-0.000251
233.9147	-0.000758
234.1213	0.000107
234.3279	0.000234
234.5346	0.000023
234.7413	0.001267
234.9479	-0.000504
235.1546	-0.000547
235.3613	0.000318
235.5680	0.000234
235.7748	-0.001433
235.9815	0.000930
236.1883	0.001056
236.3951	0.000508
236.6018	0.000677
236.8087	0.001035
237.0155	0.000192
237.2223	0.000276
237.4292	0.000044
237.6360	0.001204
237.8429	0.000677
238.0498	-0.000441
238.2567	0.000951
238.4636	0.001331
238.6706	-0.000062
238.8775	-0.000737
239.0845	0.000993
239.2915	0.000360
239.4985	0.001985
239.7055	0.001246
239.9125	-0.000547
240.1195	0.000782
240.3266	-0.000483
240.5337	0.000508
240.7407	0.000065
240.9478	0.001352
241.1549	0.001731
241.3621	0.001267
241.5692	0.000044
241.7764	0.001457
241.9835	-0.000884
242.1907	0.001689
242.3979	0.000740
242.6051	-0.000083
242.8124	-0.000589
243.0196	0.000993
243.2269	-0.000568
243.4341	-0.000926
243.6414	-0.000610
243.8487	0.001837
244.0560	0.000592
244.2634	-0.000062
244.4707	0.000149
244.6781	-0.000083
244.8854	0.000677
245.0928	-0.000125
245.3002	0.001288
245.5076	-0.000378
245.7151	0.000592
245.9225	0.000951
246.1300	0.001078
246.3375	-0.000125
246.5449	-0.001053
246.7524	-0.000758
246.9600	0.001436
247.1675	-0.000610
247.3750	-0.000104
247.5826	-0.000441
247.7902	0.000107
247.9978	0.000381
248.2054	-0.000230
248.4130	-0.000209
248.6206	0.000297
248.8283	0.000571
249.0359	-0.000083
249.2436	0.001225
249.4513	0.000761
249.6590	0.000403
249.8667	-0.000272
250.0745	0.000128
250.2822	-0.001180
250.4900	0.000023
250.6978	-0.000462
250.9056	0.001204
251.1134	0.000888
251.3212	0.001204
251.5290	0.000529
251.7369	0.000656
251.9447	0.000213
252.1526	-0.000504
252.3605	-0.000758
252.5684	0.000065
252.7763	0.000550
252.9843	0.000993
253.1922	0.000677
253.4002	0.000550
253.6082	0.000761
253.8162	0.000086
254.0242	-0.000884
254.2322	0.001014
254.4402	-0.000504
254.6483	0.000107
254.8564	-0.000125
255.0644	0.001499
255.2725	0.000086
255.4806	0.001056
255.6888	-0.000399
255.8969	0.001225
256.1051	-0.000294
256.3132	-0.000420
256.5214	0.000044
256.7296	0.000171
256.9378	0.000128
257.1460	0.000993
257.3543	-0.000315
257.5625	0.000930
257.7708	0.000466
257.9791	0.001415
258.1874	0.000255
258.3957	0.000192
258.6040	0.000339
258.8124	0.001542
259.0207	0.000635
259.2291	0.000086
259.4375	0.000656
259.6459	0.000993
259.8543	0.000213
260.0627	0.000508
260.2711	0.000381
260.4796	0.000466
260.6881	0.000403
260.8965	0.000381
261.1050	0.000128
261.3135	0.001521
261.5221	-0.000272
261.7306	0.000276
261.9392	0.001478
262.1477	0.000149
262.3563	-0.000758
262.5649	0.001120
262.7735	-0.000905
262.9822	0.000149
263.1908	0.000803
263.3995	-0.000125
263.6081	-0.000947
263.8168	0.001056
264.0255	-0.000589
264.2342	0.001099
264.4429	0.002322
264.6517	0.001499
264.8604	0.000656
265.0692	0.000993
265.2780	-0.000694
265.4868	0.001331
265.6956	-0.001454
265.9044	0.001394
266.1133	-0.000146
266.3221	0.000656
266.5310	0.000613
266.7399	0.000782
266.9488	-0.000230
267.1577	0.001816
267.3666	0.000592
267.5755	-0.000272
267.7845	0.000824
267.9935	-0.000737
268.2024	-0.001116
268.4114	0.000297
268.6205	-0.000631
268.8295	0.000824
269.0385	0.000213
269.2476	0.001056
269.4566	0.000297
269.6657	-0.000715
269.8748	-0.000737
270.0839	0.000508
270.2931	0.000466
270.5022	0.000867
270.7114	0.000107
270.9205	0.000171
271.1297	-0.000104
271.3389	0.000023
271.5481	0.001310
271.7573	0.000888
271.9666	0.000656
272.1758	-0.000083
272.3851	0.000297
272.5944	-0.000610
272.8037	-0.000357
273.0130	0.001985
273.2223	-0.001412
273.4316	0.000571
273.6410	0.000381
273.8504	-0.000019
274.0597	-0.000547
274.2691	0.001183
274.4785	0.000213
274.6880	0.000023
274.8974	-0.000947
275.1069	0.000508
275.3163	-0.000737
275.5258	0.000065
275.7353	0.000339
275.9448	0.001056
276.1543	-0.001011
276.3639	0.000592
276.5734	0.000403
276.7830	-0.000272
276.9926	0.000930
277.2022	-0.001454
277.4118	0.000613
277.6214	-0.001095
277.8310	0.001331
278.0407	0.001605
278.2503	0.001120
278.4600	-0.000526
278.6697	0.001014
278.8794	0.000740
279.0891	0.000213
279.2989	0.001056
279.5086	0.001014
279.7184	0.000403
279.9281	0.000065
280.1379	0.000128
280.3477	0.000571
280.5576	0.000951
280.7674	0.000192
280.9772	0.000972
281.1871	0.000656
281.3970	0.001162
281.6069	0.000677
281.8168	0.000592
282.0267	-0.000969
282.2366	-0.000462
282.4466	0.000318
282.6565	0.000023
282.8665	-0.000062
283.0765	-0.000673
283.2865	0.000466
283.4965	0.000867
283.7065	0.000065
283.9166	-0.000610
284.1266	0.000424
284.3367	0.001141
284.5468	-0.001390
284.7569	0.000192
284.9670	-0.000230
285.1771	0.000213
285.3873	0.000424
285.5974	0.000656
285.8076	0.000171
286.0178	0.000234
286.2280	0.000192
286.4382	0.000550
286.6484	0.000339
286.8587	0.001753
287.0689	0.000044
287.2792	0.001542
287.4895	-0.000315
287.6998	-0.000441
287.9101	0.001478
288.1204	0.001310
288.3308	0.000529
288.5411	-0.000589
288.7515	-0.000315
288.9619	-0.000800
289.1723	-0.000040
289.3827	-0.000294
289.5931	0.000613
289.8035	0.000656
290.0140	-0.000779
290.2245	0.000719
290.4349	0.001605
290.6454	0.000360
290.8559	0.001225
291.0665	-0.000146
291.2770	0.000508
291.4875	0.001689
291.6981	-0.000715
291.9087	0.000592
292.1193	-0.001032
292.3299	0.000234
292.5405	-0.000610
292.7511	0.000234
292.9618	0.000297
293.1724	0.001816
293.3831	0.000846
293.5938	0.000339
293.8045	-0.000125
294.0152	-0.000990
294.2260	-0.000209
294.4367	-0.000863
294.6475	0.000592
294.8582	0.001499
295.0690	-0.001095
295.2798	0.000044
295.4906	-0.000167
295.7015	0.000592
295.9123	0.000297
296.1232	-0.000146
296.3340	0.000213
296.5449	0.001985
296.7558	0.001078
296.9667	-0.000040
297.1777	0.000213
297.3886	-0.000568
297.5995	-0.000272
297.8105	0.001310
298.0215	0.000339
298.2325	0.001774
298.4435	-0.000315
298.6545	-0.000167
298.8656	0.000297
299.0766	0.000824
299.2877	-0.000990
299.4988	0.000297
299.7099	-0.000083
299.9210	0.001499
300.1321	-0.000104
300.3432	0.001542
300.5544	-0.000399
300.7655	0.000782
300.9767	-0.000884
301.1879	0.000508
301.3991	0.000909
301.6103	0.000930
301.8215	0.000930
302.0328	-0.000673
302.2441	-0.000947
302.4553	-0.000040
302.6666	-0.001053
302.8779	0.001521
303.0892	0.000698
303.3006	-0.000146
303.5119	0.000508
303.7233	0.000276
303.9346	0.001162
304.1460	0.001352
304.3574	0.000255
304.5688	-0.000694
304.7803	0.000698
304.9917	-0.000083
305.2031	0.000846
305.4146	0.000824
305.6261	-0.000568
305.8376	0.000803
306.0491	0.000761
306.2606	0.000234
306.4722	0.000360
306.6837	0.001141
306.8953	0.000824
307.1069	0.001499
307.3184	0.000255
307.5301	-0.000083
307.7417	0.000044
307.9533	0.001204
308.1650	0.001647
308.3766	0.001141
308.5883	0.000466
308.8000	0.000276
309.0117	-0.000420
309.2234	0.001542
309.4351	-0.000568
309.6469	0.000171
309.8586	-0.000209
310.0704	0.000487
310.2822	-0.000294
310.4940	0.000149
310.7058	0.001162
310.9176	0.000128
311.1295	0.000318
311.3413	0.001310
311.5532	0.000086
311.7651	0.000993
311.9770	0.000107
312.1889	0.001310
312.4008	0.001394
312.6127	0.000972
312.8247	0.000065
313.0366	0.002343
313.2486	0.001078
313.4606	0.001858
313.6726	0.000065
313.8846	0.001078
314.0967	0.000656
314.3087	0.000213
314.5208	0.000149
314.7328	0.000782
314.9449	0.000803
315.1570	0.000592
315.3692	-0.001053
315.5813	0.000487
315.7934	0.000803
316.0056	-0.000547
316.2177	-0.000188
316.4299	-0.000019
316.6421	0.000508
316.8543	0.001352
317.0666	-0.000610
317.2788	0.001478
317.4911	-0.000610
317.7033	0.000213
317.9156	-0.000652
318.1279	0.001225
318.3402	-0.000462
318.5525	0.000128
318.7649	-0.000779
318.9772	-0.000589
319.1896	0.000508
319.4019	-0.000125
319.6143	0.000867
319.8267	0.000972
320.0392	0.000951
320.2516	0.000445
320.4640	-0.000357
320.6765	0.000803
320.8890	-0.000062
321.1014	0.001035
321.3139	-0.000188
321.5265	0.000381
321.7390	-0.000230
321.9515	-0.000926
322.1641	-0.000251
322.3766	0.001183
322.5892	-0.000652
322.8018	0.000909
323.0144	-0.000863
323.2270	0.000550
323.4397	0.000487
323.6523	0.000930
323.8650	-0.000504
324.0777	0.001478
324.2904	-0.000251
324.5031	-0.000315
324.7158	-0.000294
324.9285	0.001626
325.1412	0.000909
325.3540	0.000065
325.5668	0.001626
325.7796	0.001056
325.9924	0.001035
326.2052	0.001056
326.4180	0.000592
326.6308	0.001035
326.8437	0.001246
327.0566	0.002048
327.2694	0.000297
327.4823	0.000592
327.6952	-0.000272
327.9082	0.000677
328.1211	0.000909
328.3340	0.000424
328.5470	-0.000019
328.7600	-0.000336
328.9730	0.000719
329.1860	0.002364
329.3990	0.000276
329.6120	0.000677
329.8251	0.000255
330.0381	0.001963
330.2512	0.001436
330.4643	0.000656
330.6774	0.000339
330.8905	0.000803
331.1036	-0.000526
331.3167	0.001457
331.5299	0.002554
331.7431	0.000128
331.9562	0.001478
332.1694	-0.000019
332.3826	0.000297
332.5959	-0.000167
332.8091	0.000149
333.0223	0.001352
333.2356	0.000107
333.4489	0.001267
333.6622	0.000972
333.8755	0.000128
334.0888	0.000930
334.3021	-0.000188
334.5154	0.000128
334.7288	0.000360
334.9422	-0.000209
335.1555	0.001120
335.3689	-0.000336
335.5823	0.000149
335.7958	0.000360
336.0092	0.000002
336.2227	-0.000737
336.4361	0.000171
336.6496	0.000128
336.8631	0.001605
337.0766	0.000888
337.2901	-0.000083
337.5036	0.000107
337.7172	0.002428
337.9307	-0.001369
338.1443	0.001373
338.3579	-0.000019
338.5715	0.000613
338.7851	-0.001053
338.9987	0.001373
339.2124	0.000297
339.4260	-0.000378
339.6397	0.001246
339.8533	-0.000167
340.0670	0.001478
340.2807	0.001499
340.4945	0.000487
340.7082	0.001141
340.9219	-0.000125
341.1357	0.000761
341.3495	0.001288
341.5633	0.000107
341.7771	-0.000062
341.9909	0.000044
342.2047	0.000023
342.4185	0.001436
342.6324	0.000276
342.8463	0.000171
343.0601	0.000192
343.2740	0.002027
343.4879	0.000867
343.7019	0.001394
343.9158	0.000466
344.1297	0.000445
344.3437	0.000086
344.5577	0.001310
344.7717	0.001584
344.9857	0.000972
345.1997	-0.001243
345.4137	0.001331
345.6277	0.000550
345.8418	-0.000315
346.0559	-0.000357
346.2699	0.001014
346.4840	0.000213
346.6981	0.001563
346.9123	0.000656
347.1264	0.000867
347.3406	-0.000631
347.5547	0.000403
347.7689	0.000487
347.9831	0.000234
348.1973	0.000023
348.4115	-0.000188
348.6257	-0.000251
348.8400	0.000803
349.0542	0.000867
349.2685	0.000993
349.4828	-0.000631
349.6971	0.000171
349.9114	-0.000610
350.1257	0.000318
350.3400	-0.001011
350.5544	-0.000019
350.7687	-0.000779
350.9831	0.001204
351.1975	-0.000019
351.4119	0.001563
351.6263	0.001394
351.8407	-0.000526
352.0552	-0.001222
352.2696	0.001288
352.4841	-0.000230
352.6986	0.001837
352.9131	-0.000715
353.1276	0.000086
353.3421	0.000487
353.5566	-0.000251
353.7712	-0.000104
353.9858	0.001795
354.2003	0.000571
354.4149	0.000107
354.6295	0.001331
354.8441	-0.000526
355.0588	0.001542
355.2734	0.000592
355.4881	0.000107
355.7027	0.001162
355.9174	0.000656
356.1321	0.002153
356.3468	0.000128
356.5615	0.000002
356.7763	0.000888
356.9910	-0.000315
357.2058	-0.000526
357.4206	0.001394
357.6353	0.001352
357.8501	0.000065
358.0650	0.000846
358.2798	0.000782
358.4946	0.001394
358.7095	0.000002
358.9243	0.000171
359.1392	0.000002
359.3541	0.000339
359.5690	0.000867
359.7839	-0.000146
359.9989	0.001373
360.2138	-0.000526
360.4288	0.001056
360.6438	0.000403
360.8587	0.000255
361.0737	0.001436
361.2888	0.000740
361.5038	-0.000040
361.7188	-0.000315
361.9339	-0.000209
362.1489	-0.000758
362.3640	0.000635
362.5791	-0.000040
362.7942	-0.000209
363.0093	0.001246
363.2245	0.000529
363.4396	0.001457
363.6548	0.000719
363.8699	0.000930
364.0851	-0.000526
364.3003	-0.000209
364.5155	0.001584
364.7308	0.000487
364.9460	0.000466
365.1612	-0.000589
365.3765	0.001056
365.5918	0.000867
365.8071	-0.000526
366.0224	-0.000610
366.2377	-0.001327
366.4530	0.001035
366.6684	0.001056
366.8837	-0.000547
367.0991	0.000044
367.3145	0.000466
367.5299	0.000698
367.7453	0.000487
367.9607	-0.002255
368.1761	0.001605
368.3916	0.000698
368.6070	0.000149
368.8225	0.000086
369.0380	0.000761
369.2535	0.000993
369.4690	0.000318
369.6845	-0.000336
369.9001	0.000107
370.1156	0.001436
370.3312	0.000318
370.5468	-0.000040
370.7624	0.000719
370.9780	0.000719
371.1936	0.000487
371.4092	-0.000462
371.6249	0.000487
371.8405	0.000698
372.0562	0.000867
372.2719	0.000677
372.4876	0.000782
372.7033	-0.000737
372.9190	0.000550
373.1348	0.000677
373.3505	0.000171
373.5663	0.001921
373.7820	0.001078
373.9978	0.000107
374.2136	-0.000905
374.4294	0.001457
374.6453	0.001310
374.8611	0.000149
375.0770	0.000002
375.2928	-0.000125
375.5087	0.000550
375.7246	0.000698
375.9405	-0.000694
376.1564	0.000656
376.3724	-0.000125
376.5883	0.001120
376.8043	0.000740
377.0203	0.000993
377.2362	0.000782
377.4522	-0.000821
377.6682	0.000550
377.8843	0.000613
378.1003	0.000824
378.3164	0.000234
378.5324	0.001563
378.7485	0.001078
378.9646	0.000424
379.1807	-0.001201
379.3968	-0.000167
379.6129	0.000930
379.8291	-0.000062
380.0452	-0.000441
380.2614	0.000044
380.4776	-0.000019
380.6938	0.000571
380.9100	0.000508
381.1262	0.000128
381.3424	0.000550
381.5587	-0.000420
381.7749	0.001415
381.9912	0.001352
382.2075	0.001078
382.4238	0.001310
382.6401	-0.000462
382.8564	-0.000526
383.0728	0.000867
383.2891	0.001204
383.5055	-0.000104
383.7219	-0.000083
383.9382	-0.000104
384.1546	-0.000821
384.3711	-0.001390
384.5875	0.001331
384.8039	0.001183
385.0204	0.000234
385.2368	0.000508
385.4533	0.001731
385.6698	0.000951
385.8863	0.000192
386.1028	-0.000125
386.3194	0.002132
386.5359	0.000276
386.7525	0.001394
386.9690	-0.001517
387.1856	0.001584
387.4022	0.002913
387.6188	0.001162
387.8355	0.001499
388.0521	0.001521
388.2687	0.000381
388.4854	0.001921
388.7021	0.002491
388.9188	0.002174
389.1355	0.002090
389.3522	0.002702
389.5689	0.002174
389.7856	0.002132
390.0024	0.002681
390.2192	0.003313
390.4359	0.002153
390.6527	0.004621
390.8695	0.002385
391.0863	0.003250
391.3032	0.004874
391.5200	0.004685
391.7369	0.004157
391.9537	0.004495
392.1706	0.003313
392.3875	0.004980
392.6044	0.006984
392.8213	0.006689
393.0383	0.007153
393.2552	0.006456
393.4722	0.005697
393.6891	0.005317
393.9061	0.006077
394.1231	0.006963
394.3401	0.005655
394.5572	0.006794
394.7742	0.007385
394.9912	0.008566
395.2083	0.007026
395.4254	0.007553
395.6425	0.009157
395.8596	0.008376
396.0767	0.007511
396.2938	0.008355
396.5109	0.008249
396.7281	0.009389
396.9453	0.009642
397.1624	0.010338
397.3796	0.010612
397.5968	0.010148
397.8140	0.011540
398.0313	0.012152
398.2485	0.011899
398.4658	0.012785
398.6830	0.014789
398.9003	0.014472
399.1176	0.011899
399.3349	0.012953
399.5522	0.013396
399.7696	0.014409
399.9869	0.013502
400.2043	0.015000
400.4216	0.015210
400.6390	0.015232
400.8564	0.015970
401.0738	0.014135
401.2912	0.014472
401.5087	0.015147
401.7261	0.014683
401.9436	0.015063
402.1610	0.017046
402.3785	0.015379
402.5960	0.015527
402.8135	0.014873
403.0310	0.014409
403.2486	0.014873
403.4661	0.017299
403.6837	0.017868
403.9013	0.017489
404.1189	0.018100
404.3365	0.017594
404.5541	0.018269
404.7717	0.018607
404.9893	0.019619
405.2070	0.017446
405.4246	0.019640
405.6423	0.019408
405.8600	0.020505
406.0777	0.018733
406.2954	0.017742
406.5131	0.019155
406.7309	0.018227
406.9486	0.019324
407.1664	0.018670
407.3842	0.018100
407.6020	0.016328
407.8198	0.018206
408.0376	0.020231
408.2554	0.020104
408.4733	0.018754
408.6911	0.020526
408.9090	0.020168
409.1269	0.020821
409.3448	0.017910
409.5627	0.019387
409.7806	0.020421
409.9985	0.020442
410.2165	0.020168
410.4344	0.020315
410.6524	0.020062
410.8704	0.020252
411.0884	0.020990
411.3064	0.020146
411.5244	0.020442
411.7424	0.018881
411.9605	0.020421
412.1785	0.021285
412.3966	0.022045
412.6147	0.022235
412.8328	0.022235
413.0509	0.021011
413.2690	0.022825
413.4871	0.023669
413.7053	0.022720
413.9234	0.021961
414.1416	0.021813
414.3598	0.022467
414.5780	0.022403
414.7962	0.023838
415.0144	0.021834
415.2326	0.022340
415.4509	0.021644
415.6692	0.021518
415.8874	0.020779
416.1057	0.022593
416.3240	0.022129
416.5423	0.021623
416.7606	0.021075
416.9790	0.023859
417.1973	0.022678
417.4157	0.023226
417.6341	0.022741
417.8524	0.022298
418.0708	0.022446
418.2893	0.020610
418.5077	0.023332
418.7261	0.023437
418.9446	0.023374
419.1630	0.024070
419.3815	0.023964
419.6000	0.024450
419.8185	0.022256
420.0370	0.023732
420.2555	0.023479
420.4741	0.026559
420.6926	0.024154
420.9112	0.025821
421.1298	0.024428
421.3483	0.026327
421.5669	0.026833
421.7856	0.029175
422.0042	0.029850
422.2228	0.027593
422.4415	0.026158
422.6601	0.026369
422.8788	0.026011
423.0975	0.026243
423.3162	0.025778
423.5349	0.025314
423.7536	0.025568
423.9724	0.025314
424.1911	0.025314
424.4099	0.024618
424.6287	0.024829
424.8475	0.025842
425.0663	0.024829
425.2851	0.025694
425.5039	0.024724
425.7228	0.024850
425.9416	0.022636
426.1605	0.022825
426.3793	0.023205
426.5982	0.022657
426.8171	0.021433
427.0361	0.023353
427.2550	0.024829
427.4739	0.026369
427.6929	0.023606
427.9118	0.025546
428.1308	0.022066
428.3498	0.022868
428.5688	0.023859
428.7878	0.020378
429.0068	0.023437
429.2259	0.024260
429.4449	0.025610
429.6640	0.025082
429.8831	0.026538
430.1022	0.028479
430.3213	0.030187
430.5404	0.028521
430.7595	0.028268
430.9787	0.028099
431.1978	0.025378
431.4170	0.025040
431.6362	0.025694
431.8553	0.025694
432.0745	0.022108
432.2938	0.021644
432.5130	0.022277
432.7322	0.024049
432.9515	0.020948
433.1707	0.022277
433.3900	0.021496
433.6093	0.024787
433.8286	0.027593
434.0479	0.028626
434.2673	0.026517
434.4866	0.023922
434.7059	0.024576
434.9253	0.023458
435.1447	0.022066
435.3641	0.024555
435.5835	0.023205
435.8029	0.023943
436.0223	0.022003
436.2418	0.022024
436.4612	0.024133
436.6807	0.024914
436.9001	0.024850
437.1196	0.025462
437.3391	0.022825
437.5586	0.021961
437.7782	0.022846
437.9977	0.023100
438.2173	0.021771
438.4368	0.023711
438.6564	0.023458
438.8760	0.022952
439.0956	0.023690
439.3152	0.024218
439.5348	0.024007
439.7545	0.024724
439.9741	0.023458
440.1938	0.023711
440.4135	0.023163
440.6331	0.023606
440.8528	0.021918
441.0725	0.024471
441.2923	0.025694
441.5120	0.027951
441.7318	0.027930
441.9515	0.027635
442.1713	0.027867
442.3911	0.027529
442.6109	0.023880
442.8307	0.024956
443.0505	0.024555
443.2703	0.022868
443.4902	0.027424
443.7101	0.025568
443.9299	0.025631
444.1498	0.026011
444.3697	0.024829
444.5896	0.025800
444.8095	0.022403
445.0295	0.024829
445.2494	0.024850
445.4694	0.024218
445.6894	0.023057
445.9093	0.023311
446.1293	0.025125
446.3493	0.024365
446.5694	0.023458
446.7894	0.023289
447.0094	0.023163
447.2295	0.023015
447.4496	0.023690
447.6696	0.022298
447.8897	0.023121
448.1098	0.023374
448.3300	0.022699
448.5501	0.021496
448.7702	0.021982
448.9904	0.021728
449.2106	0.021834
449.4307	0.022994
449.6509	0.021243
449.8711	0.021623
450.0914	0.021349
450.3116	0.023374
450.5318	0.020716
450.7521	0.021243
450.9724	0.020189
451.1926	0.020315
451.4129	0.019788
451.6332	0.019535
451.8535	0.018796
452.0739	0.021328
452.2942	0.017404
452.5146	0.019071
452.7349	0.020168
452.9553	0.018206
453.1757	0.019872
453.3961	0.017531
453.6165	0.018037
453.8369	0.017067
454.0574	0.016771
454.2778	0.017299
454.4983	0.016603
454.7188	0.015949
454.9393	0.018143
455.1597	0.017446
455.3803	0.017067
455.6008	0.016350
455.8213	0.016940
456.0419	0.018100
456.2624	0.016350
456.4830	0.015717
456.7036	0.014430
456.9242	0.015949
457.1448	0.015042
457.3654	0.015358
457.5860	0.016750
457.8067	0.015928
458.0274	0.016455
458.2480	0.018522
458.4687	0.015822
458.6894	0.017953
458.9101	0.015653
459.1308	0.017404
459.3516	0.015970
459.5723	0.017130
459.7931	0.016244
460.0138	0.015379
460.2346	0.015970
460.4554	0.014599
460.6762	0.015337
460.8970	0.015970
461.1178	0.014071
461.3387	0.014873
461.5595	0.014430
461.7804	0.012489
462.0013	0.013417
462.2222	0.013080
462.4431	0.012299
462.6640	0.012194
462.8849	0.013249
463.1059	0.013249
463.3268	0.012510
463.5478	0.012975
463.7687	0.013713
463.9897	0.011857
464.2107	0.013671
464.4317	0.014578
464.6528	0.014135
464.8738	0.012911
465.0948	0.012574
465.3159	0.013755
465.5370	0.013207
465.7581	0.016750
465.9792	0.014282
466.2003	0.011857
466.4214	0.011603
466.6425	0.011540
466.8637	0.012278
467.0848	0.011624
467.3060	0.010823
467.5272	0.009874
467.7484	0.010485
467.9696	0.010865
468.1908	0.010886
468.4120	0.010422
468.6333	0.010760
468.8545	0.009241
469.0758	0.008840
469.2970	0.009684
469.5183	0.010380
469.7396	0.008165
469.9610	0.009642
470.1823	0.006520
470.4036	0.007954
470.6250	0.008228
470.8463	0.008460
471.0677	0.008735
471.2891	0.008017
471.5105	0.008482
471.7319	0.006372
471.9533	0.006836
472.1748	0.008292
472.3962	0.006710
472.6177	0.008123
472.8391	0.007216
473.0606	0.008967
473.2821	0.007553
473.5036	0.008967
473.7251	0.007153
473.9467	0.007743
474.1682	0.007131
474.3898	0.005845
474.6113	0.006689
474.8329	0.007785
475.0545	0.007469
475.2761	0.009072
475.4977	0.006435
475.7193	0.008545
475.9410	0.006562
476.1626	0.007068
476.3843	0.006963
476.6060	0.007174
476.8277	0.005507
477.0494	0.005760
477.2711	0.005908
477.4928	0.005128
477.7145	0.007026
477.9363	0.006056
478.1580	0.007153
478.3798	0.006646
478.6016	0.005781
478.8234	0.005950
479.0452	0.007089
479.2670	0.005971
479.4888	0.006478
479.7107	0.007237
479.9325	0.005655
480.1544	0.007364
480.3763	0.006119
480.5982	0.005929
480.8201	0.006288
481.0420	0.005992
481.2639	0.005971
481.4859	0.005971
481.7078	0.005571
481.9298	0.006246
482.1517	0.005402
482.3737	0.006056
482.5957	0.006035
482.8177	0.006330
483.0398	0.004664
483.2618	0.005760
483.4838	0.003567
483.7059	0.005760
483.9280	0.004811
484.1501	0.004748
484.3721	0.005592
484.5943	0.004980
484.8164	0.006288
485.0385	0.004727
485.2606	0.005634
485.4828	0.007216
485.7050	0.011582
485.9271	0.017257
486.1493	0.017594
486.3715	0.015464
486.5937	0.011287
486.8160	0.010274
487.0382	0.008967
487.2605	0.006984
487.4827	0.006710
487.7050	0.006077
487.9273	0.006035
488.1496	0.003630
488.3719	0.005022
488.5942	0.005296
488.8165	0.003482
489.0389	0.003756
489.2612	0.003060
489.4836	0.004178
489.7060	0.004242
489.9284	0.003081
490.1508	0.002997
490.3732	0.005106
490.5956	0.003166
490.8180	0.003524
491.0405	0.002449
491.2630	0.004453
491.4854	0.003714
491.7079	0.003060
491.9304	0.005275
492.1529	0.002681
492.3755	0.002828
492.5980	0.004263
492.8205	0.004284
493.0431	0.002955
493.2657	0.001710
493.4882	0.004959
493.7108	0.001605
493.9334	0.003377
494.1561	0.003820
494.3787	0.003419
494.6013	0.004368
494.8240	0.004431
495.0466	0.004326
495.2693	0.004853
495.4920	0.002765
495.7147	0.002828
495.9374	0.002406
496.1601	0.002491
496.3829	0.003524
496.6056	0.002238
496.8284	0.002217
497.0511	0.002765
497.2739	0.003039
497.4967	0.003229
497.7195	0.001267
497.9423	0.002364
498.1652	0.002069
498.3880	0.001837
498.6109	0.003018
498.8337	0.002723
499.0566	0.002470
499.2795	0.003124
499.5024	0.002238
499.7253	0.003187
499.9482	0.004790
500.1712	0.003419
500.3941	0.001942
500.6171	0.003039
500.8400	0.001394
501.0630	0.002723
501.2860	0.003271
501.5090	0.002006
501.7320	0.002575
501.9551	0.003081
502.1781	0.000782
502.4012	0.002892
502.6242	0.003630
502.8473	0.002913
503.0704	0.002828
503.2935	0.004389
503.5166	0.001858
503.7397	0.004558
503.9628	0.002406
504.1860	0.002934
504.4092	0.001795
504.6323	0.001858
504.8555	0.003313
505.0787	0.003735
505.3019	0.002259
505.5251	0.001963
505.7483	0.002343
505.9716	0.000824
506.1948	0.002976
506.4181	0.003208
506.6414	0.002681
506.8647	0.003461
507.0880	0.001774
507.3113	0.002617
507.5346	0.002153
507.7579	0.002385
507.9813	0.002470
508.2046	0.002723
508.4280	0.002575
508.6514	0.003145
508.8748	0.002533
509.0982	0.003124
509.3216	0.001183
509.5450	0.002090
509.7685	0.002132
509.9919	0.002301
510.2154	0.003398
510.4388	0.001879
510.6623	0.001394
510.8858	0.003967
511.1093	0.003292
511.3329	0.002744
511.5564	0.002765
511.7799	0.002512
512.0035	0.002428
512.2270	0.001605
512.4506	0.001710
512.6742	0.002449
512.8978	0.001352
513.1214	0.002807
513.3451	0.002174
513.5687	0.003313
513.7923	0.001753
514.0160	0.001563
514.2397	0.001900
514.4634	0.001731
514.6871	0.001647
514.9108	0.003714
515.1345	0.001499
515.3582	0.001605
515.5819	0.003567
515.8057	0.002976
516.0295	0.001816
516.2532	0.001985
516.4770	0.002428
516.7008	0.001521
516.9246	0.000972
517.1485	0.002512
517.3723	0.002807
517.5961	0.003799
517.8200	0.002765
518.0439	0.002702
518.2677	0.000761
518.4916	0.003588
518.7155	0.002702
518.9395	0.002955
519.1634	0.002744
519.3873	0.004094
519.6113	0.003081
519.8352	0.002786
520.0592	0.002322
520.2832	0.002828
520.5072	0.004157
520.7312	0.003524
520.9552	0.002533
521.1792	0.003714
521.4033	0.001626
521.6273	0.002617
521.8514	0.002343
522.0755	0.001774
522.2996	0.003250
522.5237	0.002111
522.7478	0.003292
522.9719	0.002681
523.1960	0.002807
523.4202	0.001753
523.6443	0.003018
523.8685	0.003271
524.0927	0.003820
524.3169	0.002153
524.5411	0.001352
524.7653	0.004305
524.9895	0.004305
525.2138	0.004368
525.4380	0.002723
525.6623	0.002681
525.8865	0.003060
526.1108	0.003356
526.3351	0.004178
526.5594	0.003187
526.7837	0.004136
527.0081	0.003588
527.2324	0.005212
527.4568	0.003778
527.6811	0.004853
527.9055	0.001521
528.1299	0.003313
528.3543	0.004558
528.5787	0.003524
528.8031	0.004431
529.0276	0.003313
529.2520	0.002385
529.4765	0.004010
529.7009	0.003799
529.9254	0.005022
530.1499	0.003229
530.3744	0.003735
530.5989	0.002322
530.8234	0.003693
531.0480	0.003925
531.2725	0.002596
531.4971	0.004642
531.7217	0.005465
531.9462	0.002997
532.1708	0.004284
532.3954	0.002913
532.6200	0.004094
532.8447	0.005528
533.0693	0.005592
533.2940	0.006414
533.5186	0.006731
533.7433	0.005233
533.9680	0.005402
534.1927	0.006330
534.4174	0.005697
534.6421	0.006435
534.8668	0.005803
535.0916	0.005128
535.3163	0.006182
535.5411	0.006414
535.7659	0.006393
535.9907	0.006435
536.2155	0.006942
536.4403	0.005971
536.6651	0.005465
536.8899	0.006351
537.1148	0.004537
537.3396	0.006815
537.5645	0.005950
537.7894	0.006056
538.0143	0.006794
538.2392	0.007068
538.4641	0.006351
538.6890	0.007975
538.9139	0.008397
539.1389	0.008186
539.3638	0.008228
539.5888	0.008482
539.8138	0.007743
540.0388	0.008418
540.2638	0.007870
540.4888	0.008482
540.7138	0.009030
540.9389	0.008967
541.1639	0.010549
541.3890	0.008207
541.6140	0.008228
541.8391	0.008249
542.0642	0.010127
542.2893	0.009178
542.5144	0.010612
542.7396	0.010464
542.9647	0.010633
543.1899	0.010549
543.4150	0.011203
543.6402	0.010190
543.8654	0.011076
544.0906	0.010781
544.3158	0.013080
544.5410	0.012616
544.7662	0.011055
544.9915	0.011118
545.2167	0.013080
545.4420	0.011730
545.6673	0.011920
545.8926	0.012637
546.1179	0.011477
546.3432	0.013038
546.5685	0.012004
546.7938	0.011624
547.0192	0.014135
547.2445	0.012299
547.4699	0.014852
547.6953	0.014282
547.9206	0.016075
548.1460	0.017025
548.3715	0.017510
548.5969	0.014873
548.8223	0.016582
549.0478	0.014683
549.2732	0.014261
549.4987	0.015358
549.7242	0.013818
549.9496	0.015632
550.1751	0.014725
550.4007	0.013966
550.6262	0.014936
550.8517	0.012384
551.0773	0.014557
551.3028	0.014050
551.5284	0.016413
551.7540	0.014303
551.9796	0.016919
552.2052	0.018459
552.4308	0.018649
552.6564	0.018628
552.8820	0.018543
553.1077	0.017257
553.3333	0.018902
553.5590	0.018079
553.7847	0.019725
554.0104	0.019556
554.2361	0.018902
554.4618	0.018796
554.6875	0.018564
554.9132	0.017130
555.1390	0.018944
555.3648	0.019366
555.5905	0.020273
555.8163	0.021750
556.0421	0.021053
556.2679	0.022889
556.4937	0.023564
556.7195	0.020547
556.9454	0.020737
557.1712	0.023311
557.3971	0.019999
557.6230	0.021644
557.8488	0.021834
558.0747	0.020020
558.3006	0.020400
558.5266	0.021518
558.7525	0.018923
558.9784	0.020273
559.2044	0.020610
559.4303	0.020041
559.6563	0.021180
559.8823	0.023880
560.1083	0.024893
560.3343	0.022973
560.5603	0.026791
560.7863	0.025694
561.0124	0.028837
561.2384	0.028500
561.4645	0.028352
561.6905	0.026475
561.9166	0.027403
562.1427	0.027951
562.3688	0.029786
562.5949	0.028457
562.8211	0.027930
563.0472	0.029048
563.2733	0.028310
563.4995	0.028099
563.7257	0.028036
563.9519	0.030039
564.1781	0.030609
564.4043	0.032929
564.6305	0.032043
564.8567	0.033225
565.0829	0.034975
565.3092	0.032782
565.5355	0.033288
565.7617	0.032866
565.9880	0.031368
566.2143	0.035882
566.4406	0.034237
566.6669	0.035693
566.8932	0.035861
567.1196	0.037971
567.3459	0.042253
567.5723	0.043835
567.7987	0.047822
568.0250	0.045691
568.2514	0.046661
568.4778	0.050416
568.7043	0.053158
568.9307	0.055669
569.1571	0.057926
569.3836	0.063368
569.6100	0.071510
569.8365	0.078134
570.0630	0.083344
570.2895	0.084673
570.5160	0.087605
570.7425	0.086002
570.9690	0.091191
571.1956	0.098974
571.4221	0.102856
571.6487	0.104923
571.8752	0.110808
572.1018	0.113803
572.3284	0.113149
572.5550	0.102666
572.7816	0.099333
573.0082	0.095557
573.2349	0.100725
573.4615	0.114563
573.6882	0.121481
573.9149	0.127514
574.1415	0.129286
574.3682	0.134960
574.5949	0.140297
574.8216	0.139264
575.0484	0.142660
575.2751	0.141964
575.5018	0.142744
575.7286	0.133336
575.9554	0.127008
576.1821	0.128569
576.4089	0.135298
576.6357	0.140951
576.8626	0.146351
577.0894	0.148207
577.3162	0.152848
577.5431	0.159282
577.7699	0.177528
577.9968	0.202018
578.2237	0.197546
578.4505	0.182886
578.6774	0.172845
578.9044	0.165294
579.1313	0.153818
579.3582	0.157868
579.5851	0.162636
579.8121	0.165673
580.0391	0.164302
580.2660	0.171896
580.4930	0.165167
580.7200	0.163543
580.9470	0.166074
581.1741	0.198052
581.4011	0.238932
581.6281	0.261313
581.8552	0.264899
582.0822	0.256883
582.3093	0.250239
582.5364	0.229039
582.7635	0.215982
582.9906	0.191956
583.2177	0.182042
583.4449	0.169386
583.6720	0.153671
583.8991	0.151013
584.1263	0.153544
584.3535	0.156012
584.5807	0.157109
584.8079	0.166264
585.0351	0.179237
585.2623	0.191682
585.4895	0.191492
585.7167	0.194487
585.9440	0.185860
586.1713	0.172887
586.3985	0.166348
586.6258	0.161686
586.8531	0.160400
587.0804	0.174237
587.3077	0.179173
587.5350	0.183666
587.7624	0.182759
587.9897	0.173267
588.2171	0.165610
588.4445	0.164682
588.6718	0.159851
588.8992	0.152384
589.1266	0.140361
589.3540	0.132851
589.5815	0.131607
589.8089	0.133421
590.0363	0.130489
590.2638	0.126396
590.4913	0.120806
590.7187	0.115575
590.9462	0.109817
591.1737	0.104965
591.4012	0.104079
591.6288	0.105113
591.8563	0.106906
592.0838	0.104606
592.3114	0.107749
592.5389	0.124603
592.7665	0.146309
592.9941	0.163247
593.2217	0.168268
593.4493	0.165504
593.6769	0.163142
593.9046	0.157679
594.1322	0.145022
594.3598	0.140761
594.5875	0.137893
594.8152	0.149747
595.0429	0.154114
595.2705	0.157594
595.4983	0.153523
595.7260	0.147532
595.9537	0.140614
596.1814	0.128063
596.4092	0.123253
596.6369	0.112812
596.8647	0.118528
597.0925	0.117853
597.3203	0.120532
597.5481	0.120722
597.7759	0.118592
598.0037	0.115976
598.2315	0.111378
598.4594	0.112495
598.6872	0.128611
598.9151	0.143145
599.1430	0.149030
599.3709	0.148840
599.5988	0.142850
599.8267	0.142217
600.0546	0.141900
600.2825	0.150781
600.5105	0.146963
600.7384	0.144811
600.9664	0.151224
601.1944	0.151688
601.4223	0.148882
601.6503	0.141078
601.8783	0.135846
602.1064	0.136311
602.3344	0.134032
602.5624	0.135045
602.7905	0.137766
603.0185	0.138125
603.2466	0.142850
603.4747	0.151751
603.7028	0.152257
603.9309	0.146372
604.1590	0.143883
604.3871	0.136311
604.6152	0.129075
604.8434	0.122705
605.0715	0.124392
605.2997	0.128928
605.5279	0.132788
605.7561	0.140255
605.9843	0.137049
606.2125	0.141626
606.4407	0.130531
606.6689	0.126607
606.8972	0.122895
607.1254	0.126987
607.3537	0.125405
607.5819	0.128569
607.8102	0.125447
608.0385	0.124203
608.2668	0.119456
608.4951	0.117832
608.7235	0.114668
608.9518	0.116841
609.1801	0.110470
609.4085	0.108024
609.6369	0.106020
609.8653	0.112559
610.0936	0.118845
610.3220	0.121777
610.5505	0.115090
610.7789	0.112559
611.0073	0.116820
611.2357	0.112833
611.4642	0.110154
611.6927	0.112010
611.9211	0.110956
612.1496	0.109859
612.3781	0.102729
612.6066	0.103024
612.8351	0.104332
613.0637	0.104881
613.2922	0.103868
613.5208	0.099924
613.7493	0.100156
613.9779	0.106378
614.2065	0.102771
614.4351	0.104311
614.6637	0.102159
614.8923	0.099860
615.1209	0.101316
615.3495	0.103235
615.5782	0.108656
615.8068	0.104881
616.0355	0.102834
616.2642	0.095114
616.4929	0.093427
616.7216	0.089862
616.9503	0.087267
617.1790	0.090431
617.4077	0.086634
617.6365	0.088005
617.8652	0.086128
618.0940	0.090473
618.3227	0.086803
618.5515	0.081720
618.7803	0.077416
619.0091	0.074548
619.2379	0.075539
619.4667	0.073198
619.6956	0.070877
619.9244	0.077121
620.1533	0.077184
620.3821	0.078577
620.6110	0.075729
620.8399	0.070624
621.0688	0.065266
621.2977	0.056913
621.5266	0.058073
621.7556	0.063558
621.9845	0.065730
622.2135	0.064887
622.4424	0.066869
622.6714	0.065393
622.9004	0.066215
623.1294	0.070244
623.3584	0.071742
623.5874	0.069485
623.8164	0.067439
624.0454	0.070835
624.2745	0.069949
624.5035	0.072544
624.7326	0.073704
624.9617	0.073746
625.1908	0.068114
625.4199	0.067460
625.6490	0.061933
625.8781	0.063748
626.1072	0.062250
626.3364	0.059866
626.5655	0.057082
626.7947	0.055183
627.0238	0.056428
627.2530	0.053559
627.4822	0.057440
627.7114	0.055057
627.9406	0.055985
628.1698	0.052694
628.3991	0.048243
628.6283	0.048349
628.8576	0.046830
629.0868	0.047653
629.3161	0.049720
629.5454	0.052969
629.7747	0.051302
630.0040	0.051281
630.2333	0.049572
630.4626	0.047885
630.6920	0.046851
630.9213	0.046261
631.1507	0.046429
631.3801	0.042358
631.6094	0.043750
631.8388	0.043497
632.0682	0.042780
632.2976	0.043877
632.5271	0.038498
632.7565	0.037591
632.9859	0.033984
633.2154	0.036178
633.4448	0.036347
633.6743	0.035714
633.9038	0.036494
634.1333	0.034722
634.3628	0.035355
634.5923	0.033900
634.8218	0.032972
635.0514	0.033288
635.2809	0.032972
635.5105	0.034047
635.7400	0.032718
635.9696	0.032254
636.1992	0.033604
636.4288	0.035904
636.6584	0.037169
636.8880	0.037000
637.1177	0.035186
637.3473	0.033393
637.5770	0.032972
637.8066	0.034174
638.0363	0.032149
638.2660	0.033731
638.4957	0.033942
638.7254	0.034849
638.9551	0.034364
639.1848	0.032676
639.4145	0.032993
639.6443	0.031781
639.8740	0.030145
640.1038	0.028862
640.3336	0.030688
640.5633	0.028962
640.7931	0.029616
641.0229	0.028824
641.2528	0.027235
641.4826	0.028086
641.7124	0.025948
641.9423	0.025399
642.1721	0.025267
642.4020	0.024921
642.6319	0.024193
642.8617	0.023243
643.0916	0.025770
643.3216	0.024254
643.5515	0.022320
643.7814	0.025331
644.0113	0.024538
644.2413	0.021644
644.4712	0.023097
644.7012	0.020387
644.9312	0.022335
645.1612	0.020577
645.3912	0.021844
645.6212	0.021879
645.8512	0.022030
646.0812	0.020380
646.3113	0.021296
646.5413	0.018973
646.7714	0.018988
647.0015	0.019332
647.2316	0.018873
647.4616	0.021072
647.6918	0.020623
647.9219	0.020943
648.1520	0.022317
648.3821	0.024492
648.6123	0.025460
648.8424	0.025504
649.0726	0.027519
649.3028	0.028081
649.5329	0.028359
649.7631	0.027001
649.9933	0.026965
650.2236	0.025548
650.4538	0.023741
650.6840	0.022387
650.9143	0.023060
651.1445	0.022902
651.3748	0.023257
651.6051	0.022143
651.8354	0.023473
652.0657	0.022395
652.2960	0.024950
652.5263	0.026702
652.7566	0.025832
652.9870	0.022447
653.2173	0.025630
653.4477	0.024565
653.6780	0.027299
653.9084	0.024843
654.1388	0.026514
654.3692	0.028020
654.5996	0.030174
654.8300	0.032145
655.0605	0.047455
655.2909	0.122794
655.5213	0.387989
655.7518	0.782705
655.9823	1.011630
656.2128	1.000000
656.4433	1.000000
656.6738	1.000000
656.9043	0.876541
657.1348	0.700396
657.3653	0.571148
657.5959	0.484247
657.8264	0.429926
658.0570	0.387486
658.2875	0.347945
658.5181	0.320073
658.7487	0.300101
658.9793	0.283796
659.2099	0.232657
659.4406	0.159268
659.6712	0.098234
659.9018	0.056938
660.1325	0.038424
660.3632	0.025360
660.5938	0.023050
660.8245	0.020370
661.0552	0.019615
661.2859	0.019430
661.5166	0.020647
661.7474	0.019030
661.9781	0.017921
662.2088	0.020092
662.4396	0.017033
662.6704	0.018121
662.9011	0.017198
663.1319	0.017693
663.3627	0.016251
663.5935	0.017596
663.8243	0.017404
664.0552	0.017124
664.2860	0.018446
664.5168	0.018318
664.7477	0.018189
664.9786	0.016622
665.2094	0.020744
665.4403	0.019257
665.6712	0.020578
665.9021	0.018676
666.1330	0.019978
666.3640	0.018322
666.5949	0.018182
666.8259	0.018264
667.0568	0.016155
667.2878	0.017175
667.5188	0.017261
667.7497	0.017576
667.9807	0.017897
668.2117	0.016553
668.4428	0.016982
668.6738	0.015738
668.9048	0.017678
669.1359	0.016350
669.3669	0.017615
669.5980	0.017172
669.8291	0.015569
670.0602	0.017362
670.2913	0.016455
670.5224	0.017489
670.7535	0.016708
670.9846	0.017489
671.2157	0.018775
671.4469	0.020168
671.6781	0.021539
671.9092	0.022931
672.1404	0.026264
672.3716	0.026875
672.6028	0.028078
672.8340	0.024450
673.0652	0.027065
673.2964	0.025314
673.5277	0.024365
673.7589	0.023247
673.9902	0.024724
674.2214	0.023057
674.4527	0.022530
674.6840	0.021939
674.9153	0.020927
675.1466	0.021454
675.3779	0.021961
675.6093	0.020716
675.8406	0.021728
676.0719	0.020484
676.3033	0.020336
676.5347	0.018564
676.7661	0.019661
676.9974	0.017489
677.2288	0.019408
677.4602	0.019872
677.6917	0.021307
677.9231	0.021813
678.1545	0.023353
678.3860	0.023690
678.6174	0.023606
678.8489	0.024154
679.0804	0.025061
679.3119	0.026200
679.5434	0.028352
679.7749	0.028457
680.0064	0.027361
680.2379	0.028626
680.4694	0.027909
680.7010	0.028921
680.9325	0.029364
681.1641	0.027529
681.3957	0.028605
681.6273	0.028183
681.8589	0.026369
682.0905	0.027171
682.3221	0.028436
682.5537	0.027192
682.7854	0.022446
683.0170	0.024091
683.2487	0.023838
683.4803	0.026053
683.7120	0.027550
683.9437	0.023437
684.1754	0.028964
684.4071	0.028563
684.6388	0.029765
684.8705	0.031706
685.1023	0.033393
685.3340	0.035081
685.5658	0.038076
685.7975	0.034912
686.0293	0.035967
686.2611	0.035777
686.4929	0.035861
686.7247	0.033393
686.9565	0.036030
687.1883	0.036051
687.4202	0.035503
687.6520	0.034237
687.8838	0.034343
688.1157	0.034364
688.3476	0.030229
688.5795	0.031896
688.8114	0.030799
689.0433	0.028120
689.2752	0.029934
689.5071	0.029090
689.7390	0.026918
689.9710	0.028204
690.2029	0.028014
690.4349	0.026411
690.6669	0.028078
690.8988	0.028225
691.1308	0.029322
691.3628	0.033119
691.5948	0.029639
691.8269	0.031052
692.0589	0.030546
692.2909	0.030398
692.5230	0.031685
692.7550	0.029111
692.9871	0.030546
693.2192	0.032360
693.4513	0.030482
693.6834	0.030947
693.9155	0.031305
694.1476	0.028373
694.3797	0.026918
694.6119	0.025736
694.8440	0.026960
695.0762	0.028331
695.3083	0.028626
695.5405	0.025441
695.7727	0.023057
696.0049	0.025314
696.2371	0.024323
696.4693	0.024007
696.7016	0.028985
696.9338	0.030736
697.1660	0.032676
697.3983	0.031622
697.6306	0.030693
697.8628	0.031811
698.0951	0.032381
698.3274	0.028605
698.5597	0.030293
698.7920	0.029512
699.0243	0.029786
699.2567	0.030968
699.4890	0.030567
699.7214	0.027888
699.9537	0.025905
700.1861	0.024428
700.4185	0.026011
700.6509	0.025293
700.8833	0.023838
701.1157	0.022952
701.3481	0.022193
701.5806	0.022973
701.8130	0.023838
702.0454	0.023142
702.2779	0.023521
702.5104	0.026032
702.7429	0.024724
702.9753	0.023880
703.2078	0.022762
703.4403	0.023142
703.6729	0.023922
703.9054	0.022256
704.1379	0.022973
704.3705	0.023753
704.6030	0.020294
704.8356	0.021011
705.0682	0.018691
705.3008	0.019619
705.5334	0.017425
705.7660	0.019218
705.9986	0.019493
706.2312	0.022931
706.4638	0.024703
706.6965	0.026981
706.9291	0.029343
707.1618	0.029997
707.3945	0.030419
707.6272	0.030419
707.8599	0.029702
708.0926	0.032107
708.3253	0.029428
708.5580	0.030377
708.7907	0.029069
709.0235	0.026116
709.2562	0.027361
709.4890	0.029533
709.7217	0.027529
709.9545	0.029069
710.1873	0.027213
710.4201	0.026221
710.6529	0.027740
710.8857	0.028795
711.1186	0.026032
711.3514	0.025525
711.5842	0.024576
711.8171	0.025568
712.0500	0.022762
712.2828	0.023880
712.5157	0.022235
712.7486	0.023289
712.9815	0.023078
713.2144	0.024492
713.4474	0.024787
713.6803	0.027951
713.9132	0.027318
714.1462	0.028563
714.3791	0.028689
714.6121	0.027677
714.8451	0.027213
715.0781	0.027129
715.3111	0.028436
715.5441	0.028331
715.7771	0.027719
716.0102	0.025188
716.2432	0.023880
716.4762	0.024555
716.7093	0.023606
716.9424	0.023416
717.1754	0.023121
717.4085	0.022699
717.6416	0.022129
717.8747	0.022593
718.1078	0.023374
718.3410	0.026074
718.5741	0.024471
718.8072	0.022467
719.0404	0.023015
719.2736	0.024365
719.5067	0.023395
719.7399	0.024956
719.9731	0.022868
720.2063	0.021750
720.4395	0.023901
720.6727	0.021855
720.9060	0.022994
721.1392	0.024365
721.3725	0.024175
721.6057	0.022994
721.8390	0.024661
722.0723	0.025103
722.3055	0.022129
722.5388	0.022973
722.7721	0.023458
723.0055	0.024007
723.2388	0.021665
723.4721	0.021560
723.7055	0.021792
723.9388	0.023163
724.1722	0.022846
724.4056	0.021982
724.6389	0.021307
724.8723	0.022931
725.1057	0.024745
725.3391	0.024576
725.5726	0.025314
725.8060	0.025462
726.0394	0.024661
726.2729	0.027930
726.5063	0.028732
726.7398	0.027993
726.9733	0.025314
727.2068	0.026327
727.4403	0.027171
727.6738	0.026285
727.9073	0.027129
728.1408	0.027867
728.3743	0.027213
728.6079	0.026939
728.8414	0.027825
729.0750	0.027171
729.3086	0.028162
729.5421	0.027930
729.7757	0.030968
730.0093	0.029765
730.2429	0.029238
730.4766	0.031347
730.7102	0.032022
730.9438	0.035081
731.1775	0.035693
731.4111	0.034933
731.6448	0.033963
731.8785	0.032782
732.1122	0.032465
732.3458	0.030061
732.5795	0.034659
732.8133	0.032761
733.0470	0.033689
733.2807	0.034385
733.5145	0.032972
733.7482	0.034490
733.9820	0.036051
734.2157	0.040186
734.4495	0.043286
734.6833	0.039321
734.9171	0.038920
735.1509	0.040333
735.3847	0.038540
735.6185	0.039764
735.8524	0.038245
736.0862	0.038688
736.3201	0.037823
736.5539	0.037718
736.7878	0.039806
737.0217	0.039954
737.2556	0.038709
737.4895	0.037022
737.7234	0.037865
737.9573	0.034575
738.1912	0.034638
738.4252	0.031896
738.6591	0.034743
738.8931	0.033436
739.1271	0.034975
739.3610	0.037591
739.5950	0.036283
739.8290	0.036853
740.0630	0.036347
740.2970	0.033393
740.5310	0.031832
740.7651	0.030525
740.9991	0.031010
741.2332	0.030714
741.4672	0.027719
741.7013	0.025800
741.9354	0.027614
742.1695	0.028268
742.4036	0.025989
742.6377	0.028204
742.8718	0.027698
743.1059	0.026306
743.3400	0.025884
743.5742	0.025483
743.8083	0.023943
744.0425	0.023458
744.2767	0.022994
744.5108	0.023374
744.7450	0.023606
744.9792	0.025610
745.2134	0.024471
745.4477	0.022108
745.6819	0.021159
745.9161	0.024850
746.1504	0.022657
746.3846	0.022235
746.6189	0.023057
746.8532	0.022024
747.0874	0.023100
747.3217	0.025778
747.5560	0.027065
747.7903	0.023521
748.0247	0.024070
748.2590	0.023648
748.4933	0.023775
748.7277	0.024175
748.9620	0.022910
749.1964	0.022825
749.4308	0.026221
749.6652	0.028732
749.8995	0.028964
750.1339	0.031094
750.3684	0.030672
750.6028	0.032782
750.8372	0.032972
751.0717	0.030904
751.3061	0.031157
751.5406	0.031917
751.7750	0.031305
752.0095	0.033836
752.2440	0.033246
752.4785	0.031242
752.7130	0.031010
752.9475	0.031453
753.1820	0.029786
753.4166	0.029027
753.6511	0.033520
753.8856	0.034469
754.1202	0.033879
754.3548	0.032297
754.5894	0.031094
754.8239	0.029997
755.0585	0.030778
755.2931	0.035144
755.5278	0.032128
755.7624	0.034975
755.9970	0.034764
756.2317	0.036410
756.4663	0.037465
756.7010	0.040924
756.9356	0.040586
757.1703	0.040861
757.4050	0.045438
757.6397	0.049762
757.8744	0.047653
758.1091	0.047315
758.3438	0.044784
758.5786	0.044932
758.8133	0.045037
759.0481	0.041472
759.2828	0.045586
759.5176	0.047252
759.7524	0.046029
759.9872	0.048138
760.2220	0.050142
760.4568	0.049594
760.6916	0.051893
760.9264	0.051829
761.1613	0.051703
761.3961	0.047294
761.6310	0.046725
761.8658	0.041831
762.1007	0.040270
762.3356	0.040143
762.5705	0.039468
762.8054	0.040059
763.0403	0.037169
763.2752	0.039764
763.5101	0.040122
763.7450	0.040270
763.9800	0.040038
764.2149	0.040565
764.4499	0.043877
764.6849	0.046704
764.9198	0.047126
765.1548	0.048243
765.3898	0.046872
765.6248	0.044763
765.8599	0.042590
766.0949	0.042126
766.3299	0.039447
766.5650	0.035271
766.8000	0.033204
767.0351	0.033583
767.2701	0.030799
767.5052	0.030714
767.7403	0.030314
767.9754	0.032761
768.2105	0.034343
768.4456	0.036937
768.6808	0.039194
768.9159	0.039152
769.1510	0.036642
769.3862	0.038414
769.6214	0.037549
769.8565	0.034954
770.0917	0.036663
770.3269	0.034997
770.5621	0.036536
770.7973	0.036093
771.0325	0.039743
771.2677	0.038751
771.5030	0.039679
771.7382	0.038920
771.9735	0.036684
772.2087	0.033857
772.4440	0.032191
772.6793	0.032803
772.9146	0.031938
773.1499	0.031875
773.3852	0.031579
773.6205	0.031073
773.8558	0.029217
774.0911	0.030018
774.3265	0.027677
774.5618	0.025947
774.7972	0.026074
775.0326	0.023521
775.2679	0.026243
775.5033	0.022382
775.7387	0.022614
775.9741	0.021771
776.2095	0.020927
776.4450	0.021475
776.6804	0.021053
776.9158	0.019345
777.1513	0.020547
777.3868	0.020758
777.6222	0.020231
777.8577	0.020210
778.0932	0.018902
778.3287	0.019282
778.5642	0.021897
778.7997	0.021686
779.0352	0.023036
779.2707	0.024175
779.5063	0.026285
779.7418	0.025483
779.9774	0.023922
780.2130	0.022720
780.4485	0.023585
780.6841	0.023943
780.9197	0.025230
781.1553	0.026580
781.3909	0.029364
781.6265	0.027424
781.8622	0.028753
782.0978	0.026854
782.3335	0.027888
782.5691	0.028985
782.8048	0.028457
783.0405	0.026896
783.2761	0.027086
783.5118	0.028099
783.7475	0.027719
783.9832	0.028647
784.2190	0.025146
784.4547	0.025040
784.6904	0.022762
784.9262	0.025061
785.1619	0.023986
785.3977	0.023458
785.6335	0.023521
785.8692	0.023880
786.1050	0.024344
786.3408	0.021792
786.5766	0.024829
786.8124	0.022678
787.0483	0.020927
787.2841	0.022382
787.5199	0.023226
787.7558	0.022319
787.9917	0.022066
788.2275	0.023458
788.4634	0.023753
788.6993	0.024661
788.9352	0.026538
789.1711	0.023669
789.4070	0.023184
789.6429	0.023057
789.8789	0.022762
790.1148	0.021032
790.3507	0.020779
790.5867	0.020948
790.8227	0.019661
791.0586	0.019260
791.2946	0.018185
791.5306	0.018881
791.7666	0.020589
792.0026	0.020146
792.2387	0.017362
792.4747	0.016666
792.7107	0.018986
792.9468	0.017510
793.1828	0.017425
793.4189	0.017320
793.6550	0.018206
793.8910	0.020020
794.1271	0.024745
794.3632	0.025420
794.5993	0.026918
794.8355	0.025673
795.0716	0.026454
795.3077	0.024703
795.5439	0.024281
795.7800	0.021939
796.0162	0.022403
796.2523	0.021750
796.4885	0.018269
796.7247	0.018902
796.9609	0.017088
797.1971	0.018733
797.4333	0.018501
797.6695	0.019113
797.9058	0.019703
798.1420	0.017847
798.3783	0.019408
798.6145	0.018923
798.8508	0.017235
799.0871	0.018016
799.3233	0.021201
799.5596	0.018396
799.7959	0.015696
800.0322	0.016919
800.2686	0.016919
800.5049	0.015337
800.7412	0.015696
800.9776	0.015232
801.2139	0.016940
801.4503	0.015759
801.6867	0.014978
801.9230	0.014620
802.1594	0.014978
802.3958	0.013017
802.6322	0.012890
802.8686	0.012405
803.1051	0.013207
803.3415	0.013734
803.5779	0.015168
803.8144	0.015400
804.0508	0.013375
804.2873	0.013038
804.5238	0.015442
804.7603	0.014873
804.9968	0.015379
805.2333	0.015548
805.4698	0.013628
805.7063	0.014409
805.9428	0.014831
806.1794	0.017636
806.4159	0.018206
806.6525	0.021053
806.8890	0.019535
807.1256	0.018121
807.3622	0.019935
807.5988	0.018628
807.8354	0.019050
808.0720	0.018079
808.3086	0.019471
808.5452	0.019282
808.7818	0.019598
809.0185	0.017257
809.2551	0.018016
809.4918	0.016160
809.7284	0.018543
809.9651	0.017489
810.2018	0.016603
810.4385	0.015358
810.6752	0.016729
810.9119	0.015928
811.1486	0.015485
811.3853	0.013776
811.6221	0.014557
811.8588	0.013228
812.0956	0.015379
812.3323	0.013523
812.5691	0.011962
812.8059	0.010000
813.0427	0.012532
813.2795	0.010253
813.5163	0.010992
813.7531	0.014367
813.9899	0.016750
814.2267	0.016328
814.4636	0.016096
814.7004	0.015147
814.9373	0.015042
815.1742	0.011751
815.4110	0.011941
815.6479	0.011392
815.8848	0.009832
816.1217	0.011983
816.3586	0.012658
816.5955	0.011498
816.8324	0.013080
817.0694	0.013375
817.3063	0.011814
817.5433	0.011329
817.7802	0.011498
818.0172	0.012553
818.2542	0.012278
818.4912	0.010760
818.7282	0.010190
818.9652	0.009494
819.2022	0.009937
819.4392	0.010380
819.6762	0.008439
819.9133	0.009494
820.1503	0.008735
820.3874	0.012194
820.6244	0.011688
820.8615	0.011329
821.0986	0.013228
821.3357	0.014535
821.5727	0.011709
821.8099	0.011329
822.0470	0.009747
822.2841	0.010359
822.5212	0.009853
822.7584	0.009642
822.9955	0.008840
823.2327	0.009810
823.4698	0.009642
823.7070	0.009621
823.9442	0.008482
824.1814	0.008692
824.4186	0.009473
824.6558	0.008840
824.8930	0.007596
825.1302	0.009832
825.3675	0.010296
825.6047	0.010021
825.8419	0.013017
826.0792	0.010675
826.3165	0.010507
826.5537	0.010528
826.7910	0.010148
827.0283	0.011350
827.2656	0.011498
827.5029	0.011287
827.7402	0.010886
827.9776	0.011371
828.2149	0.008482
828.4522	0.011561
828.6896	0.009768
828.9270	0.010042
829.1643	0.011730
829.4017	0.011266
829.6391	0.009895
829.8765	0.011414
830.1139	0.009768
830.3513	0.009810
830.5887	0.008186
830.8261	0.007933
831.0636	0.007005
831.3010	0.006246
831.5385	0.008039
831.7759	0.007511
832.0134	0.005655
832.2509	0.004474
832.4884	0.007806
832.7259	0.005971
832.9634	0.007638
833.2009	0.007364
833.4384	0.007722
833.6759	0.007300
833.9135	0.008123
834.1510	0.009009
834.3886	0.007764
834.6261	0.010865
834.8637	0.007701
835.1013	0.008144
835.3389	0.009578
835.5765	0.008903
835.8141	0.008017
836.0517	0.007617
836.2893	0.007026
836.5269	0.008819
836.7646	0.006520
837.0022	0.006773
837.2399	0.007364
837.4775	0.005043
837.7152	0.007047
837.9529	0.004980
838.1906	0.006583
838.4283	0.005465
838.6660	0.004769
838.9037	0.006330
839.1414	0.005170
839.3791	0.007089
839.6169	0.005887
839.8546	0.005507
840.0924	0.005064
840.3302	0.006330
840.5679	0.006773
840.8057	0.007870
841.0435	0.006098
841.2813	0.006836
841.5191	0.004031
841.7569	0.006393
841.9947	0.005360
842.2326	0.005739
842.4704	0.004853
842.7082	0.004052
842.9461	0.005718
843.1840	0.004685
843.4218	0.003482
843.6597	0.004474
843.8976	0.004284
844.1355	0.004031
844.3734	0.003208
844.6113	0.005592
844.8492	0.003799
845.0872	0.003503
845.3251	0.004685
845.5631	0.006330
845.8010	0.003989
846.0390	0.004305
846.2770	0.002997
846.5149	0.004896
846.7529	0.004537
846.9909	0.004853
847.2289	0.004221
847.4669	0.003250
847.7050	0.003124
847.9430	0.004136
848.1810	0.003482
848.4191	0.004685
848.6571	0.002660
848.8952	0.004199
849.1333	0.004874
849.3713	0.004600
849.6094	0.003714
849.8475	0.004347
850.0856	0.003546
850.3237	0.004980
850.5619	0.005381
850.8000	0.004853
851.0381	0.003567
851.2763	0.004263
851.5144	0.004769
851.7526	0.005402
851.9908	0.004052
852.2289	0.005360
852.4671	0.005402
852.7053	0.006731
852.9435	0.007975
853.1817	0.008924
853.4200	0.011182
853.6582	0.011224
853.8964	0.011603
854.1347	0.010507
854.3729	0.011709
854.6112	0.012342
854.8495	0.011034
855.0877	0.012637
855.3260	0.011097
855.5643	0.011034
855.8026	0.009304
856.0409	0.009726
856.2792	0.008376
856.5176	0.010274
856.7559	0.010338
856.9942	0.009452
857.2326	0.009642
857.4710	0.009093
857.7093	0.010127
857.9477	0.008714
858.1861	0.008271
858.4245	0.008650
858.6629	0.007638
858.9013	0.008123
859.1397	0.007870
859.3781	0.009367
859.6166	0.008060
859.8550	0.007617
860.0935	0.006604
860.3319	0.006815
860.5704	0.006267
860.8089	0.007131
861.0473	0.006752
861.2858	0.007153
861.5243	0.004621
861.7628	0.003967
862.0013	0.004389
862.2399	0.005444
862.4784	0.004706
862.7169	0.003693
862.9555	0.004199
863.1940	0.005360
863.4326	0.005128
863.6712	0.007237
863.9098	0.006014
864.1483	0.004664
864.3869	0.004706
864.6255	0.004579
864.8642	0.003081
865.1028	0.004959
865.3414	0.004938
865.5800	0.003567
865.8187	0.004516
866.0573	0.004263
866.2960	0.005106
866.5347	0.003925
866.7733	0.003651
867.0120	0.003989
867.2507	0.004453
867.4894	0.004073
867.7281	0.004263
867.9669	0.005043
868.2056	0.003546
868.4443	0.004917
868.6831	0.006921
868.9218	0.004431
869.1606	0.004727
869.3993	0.005128
869.6381	0.003799
869.8769	0.004769
870.1157	0.003060
870.3545	0.004347
870.5933	0.005001
870.8321	0.004811
871.0709	0.004685
871.3097	0.003904
871.5486	0.005423
871.7874	0.004516
872.0263	0.003756
872.2651	0.003440
872.5040	0.002617
872.7429	0.004410
872.9818	0.003651
873.2207	0.003651
873.4596	0.003967
873.6985	0.002892
873.9374	0.003651
874.1763	0.003419
874.4153	0.005739
874.6542	0.005085
874.8932	0.003461
875.1321	0.004347
875.3711	0.006878
875.6101	0.005254
875.8491	0.004347
876.0880	0.004917
876.3270	0.003567
876.5661	0.004199
876.8051	0.005465
877.0441	0.003335
877.2831	0.004769
877.5222	0.005191
877.7612	0.006119
878.0003	0.007743
878.2393	0.005760
878.4784	0.005064
878.7175	0.006499
878.9566	0.004664
879.1957	0.005381
879.4348	0.005697
879.6739	0.005571
879.9130	0.005064
880.1521	0.006203
880.3913	0.005803
880.6304	0.006963
880.8696	0.005444
881.1087	0.006625
881.3479	0.005781
881.5871	0.007806
881.8262	0.004495
882.0654	0.006984
882.3046	0.004727
882.5438	0.005022
882.7831	0.004600
883.0223	0.004811
883.2615	0.005360
883.5007	0.004706
883.7400	0.004073
883.9792	0.005360
884.2185	0.003925
884.4578	0.003925
884.6971	0.004221
884.9363	0.005317
885.1756	0.004938
885.4149	0.005781
885.6542	0.005486
885.8936	0.005697
886.1329	0.006119
886.3722	0.005676
886.6116	0.004136
886.8509	0.004769
887.0903	0.005592
887.3296	0.006330
887.5690	0.003778
887.8084	0.002406
888.0478	0.004073
888.2872	0.005275
888.5266	0.004157
888.7660	0.005233
889.0054	0.004094
889.2448	0.003503
889.4843	0.005106
889.7237	0.002976
889.9632	0.002723
890.2026	0.004516
890.4421	0.002765
890.6816	0.004052
890.9211	0.004010
891.1606	0.004832
891.4001	0.004621
891.6396	0.005191
891.8791	0.003799
892.1186	0.003124
892.3581	0.003546
892.5977	0.003799
892.8372	0.002913
893.0768	0.003609
893.3163	0.003693
893.5559	0.002976
893.7955	0.003482
894.0351	0.003841
894.2747	0.002491
894.5143	0.003672
894.7539	0.004516
894.9935	0.004642
895.2331	0.004706
895.4727	0.003967
895.7124	0.004516
895.9520	0.004938
896.1917	0.003967
896.4314	0.003841
896.6710	0.003250
896.9107	0.004199
897.1504	0.003714
897.3901	0.005992
897.6298	0.004094
897.8695	0.003250
898.1092	0.003250
898.3489	0.004010
898.5887	0.002681
898.8284	0.003377
899.0682	0.003018
899.3079	0.003482
899.5477	0.004537
899.7875	0.003292
900.0272	0.002934
900.2670	0.004284
900.5068	0.003440
900.7466	0.005001
900.9864	0.002449
901.2263	0.003250
901.4661	0.002174
901.7059	0.005592
901.9458	0.005528
902.1856	0.003756
902.4255	0.003503
902.6654	0.003482
902.9052	0.003292
903.1451	0.002723
903.3850	0.002976
903.6249	0.002723
903.8648	0.002997
904.1047	0.004073
904.3446	0.003609
904.5846	0.004389
904.8245	0.004136
905.0644	0.002533
905.3044	0.002428
905.5444	0.005170
905.7843	0.004094
906.0243	0.003461
906.2643	0.003841
906.5043	0.003672
906.7443	0.003967
906.9843	0.004263
907.2243	0.004706
907.4643	0.003588
907.7043	0.003778
907.9444	0.004853
908.1844	0.004094
908.4245	0.003377
908.6645	0.003081
908.9046	0.003187
909.1447	0.003271
909.3847	0.003841
909.6248	0.002111
909.8649	0.002322
910.1050	0.002723
910.3452	0.003419
910.5853	0.004368
910.8254	0.003693
911.0655	0.002428
911.3057	0.000993
911.5458	0.002786
911.7860	0.004178
912.0262	0.002828
912.2663	0.003841
912.5065	0.003039
912.7467	0.003124
912.9869	0.003398
913.2271	0.002491
913.4673	0.002660
913.7075	0.002428
913.9478	0.002449
914.1880	0.002807
914.4283	0.001415
914.6685	0.003820
914.9088	0.003398
915.1490	0.003313
915.3893	0.004389
915.6296	0.002660
915.8699	0.001436
916.1102	0.002913
916.3505	0.002132
916.5908	0.002934
916.8311	0.001837
917.0714	0.003778
917.3118	0.002828
917.5521	0.002512
917.7925	0.003588
918.0328	0.004199
918.2732	0.003124
918.5136	0.002638
918.7539	0.001985
918.9943	0.003039
919.2347	0.002364
919.4751	0.002491
919.7155	0.003039
919.9560	0.002343
920.1964	0.003250
920.4368	0.003145
920.6773	0.003672
920.9177	0.003630
921.1582	0.001963
921.3986	0.002554
921.6391	0.002892
921.8796	0.002681
922.1201	0.002364
922.3606	0.004031
922.6011	0.001753
922.8416	0.002406
923.0821	0.002217
923.3226	0.000719
923.5631	0.002849
923.8037	0.001774
924.0442	0.002533
924.2848	0.002723
924.5254	0.002807
924.7659	0.002280
925.0065	0.002470
925.2471	0.003862
925.4877	0.003672
925.7283	0.002069
925.9689	0.001837
926.2095	0.002955
926.4501	0.001415
926.6908	0.002744
926.9314	0.001879
927.1720	0.001499
927.4127	0.002660
927.6533	0.001478
927.8940	0.001710
928.1347	0.001394
928.3754	0.001457
928.6161	0.001394
928.8568	0.002006
929.0975	0.002406
929.3382	0.003166
929.5789	0.001014
929.8196	0.001605
930.0604	0.003883
930.3011	0.001141
930.5419	0.002428
930.7826	0.002343
931.0234	0.001056
931.2642	0.001710
931.5049	0.002217
931.7457	0.000930
931.9865	0.001858
932.2273	0.003356
932.4681	0.003103
932.7089	0.001795
932.9498	0.003039
933.1906	0.000972
933.4314	0.002280
933.6723	0.001521
933.9131	0.001331
934.1540	0.002132
934.3949	0.001078
934.6358	0.001921
934.8766	0.003039
935.1175	0.001436
935.3584	0.002322
935.5993	0.001436
935.8403	0.000909
936.0812	0.001478
936.3221	0.001626
936.5630	0.001921
936.8040	0.000677
937.0449	0.000972
937.2859	0.002406
937.5269	0.002660
937.7678	0.001014
938.0088	0.001985
938.2498	0.000846
938.4908	0.001225
938.7318	0.001267
938.9728	0.002153
939.2138	0.001710
939.4549	0.000613
939.6959	0.001035
939.9369	0.000424
940.1780	0.000424
940.4190	0.002617
940.6601	0.000930
940.9012	0.001288
941.1422	0.000255
941.3833	0.001795
941.6244	-0.000589
941.8655	0.001394
942.1066	0.001373
942.3477	0.002238
942.5889	0.001563
942.8300	0.000318
943.0711	0.000656
943.3123	0.000951
943.5534	-0.001180
943.7946	0.000424
944.0357	0.001521
944.2769	0.001542
944.5181	0.000339
944.7593	0.001035
945.0005	0.000276
945.2417	0.001267
945.4829	0.001584
945.7241	0.000824
945.9653	0.000761
946.2066	0.000508
946.4478	-0.000019
946.6891	0.000656
946.9303	0.000550
947.1716	0.000550
947.4128	0.002280
947.6541	0.002153
947.8954	0.001183
948.1367	0.002322
948.3780	0.000213
948.6193	0.000213
948.8606	0.000234
949.1019	0.000698
949.3433	-0.001011
949.5846	0.001099
949.8259	0.001499
950.0673	0.000171
950.3086	0.001183
950.5500	-0.000294
950.7914	0.001352
951.0327	0.001288
951.2741	0.000297
951.5155	0.000656
951.7569	0.000128
951.9983	0.000403
952.2398	-0.000589
952.4812	0.002301
952.7226	0.001183
952.9640	0.000656
953.2055	0.000508
953.4469	0.001584
953.6884	-0.000167
953.9299	0.001753
954.1713	0.001521
954.4128	0.000930
954.6543	0.000128
954.8958	0.001246
955.1373	0.000740
955.3788	0.000698
955.6203	0.000487
955.8618	-0.000040
956.1034	0.000635
956.3449	0.003103
956.5865	0.000171
956.8280	0.003187
957.0696	0.000487
957.3111	-0.000399
957.5527	0.000318
957.7943	0.001942
958.0359	-0.000547
958.2775	0.001183
958.5191	-0.000272
958.7607	0.000550
959.0023	0.001310
959.2439	0.002723
959.4856	-0.000125
959.7272	0.000318
959.9688	0.001120
960.2105	0.002554
960.4522	0.000888
960.6938	0.001668
960.9355	0.001120
961.1772	0.000888
961.4189	0.000550
961.6606	0.000360
961.9023	0.001267
962.1440	0.001246
962.3857	0.000234
962.6274	0.001900
962.8692	-0.000842
963.1109	0.001373
963.3527	0.000381
963.5944	0.001120
963.8362	-0.000969
964.0779	0.000550
964.3197	-0.000083
964.5615	0.001668
964.8033	0.000508
965.0451	0.001457
965.2869	0.001436
965.5287	0.000824
965.7705	0.001183
966.0123	0.001035
966.2542	-0.000526
966.4960	-0.000420
966.7379	0.000445
966.9797	0.000381
967.2216	0.000698
967.4634	0.000592
967.7053	0.000930
967.9472	0.000508
968.1891	-0.000336
968.4310	0.000128
968.6729	0.000740
968.9148	0.001985
969.1567	0.000192
969.3987	0.001394
969.6406	0.001014
969.8825	0.001795
970.1245	0.000297
970.3664	0.001078
970.6084	-0.000884
970.8504	0.001331
971.0923	0.000339
971.3343	0.001542
971.5763	0.000381
971.8183	0.000381
972.0603	0.001478
972.3023	-0.000673
972.5443	0.000930
972.7864	0.000824
973.0284	0.001056
973.2704	-0.000800
973.5125	0.000255
973.7545	0.000297
973.9966	0.000909
974.2387	0.000276
974.4807	0.000002
974.7228	0.000888
974.9649	0.000128
975.2070	0.000782
975.4491	-0.001158
975.6912	0.001035
975.9333	0.000065
976.1755	0.002849
976.4176	-0.000019
976.6597	0.001563
976.9019	0.000424
977.1440	0.001014
977.3862	0.001331
977.6283	-0.000694
977.8705	0.000403
978.1127	0.001542
978.3549	0.000023
978.5971	0.001204
978.8393	0.001099
979.0815	0.001099
979.3237	0.000550
979.5659	0.001288
979.8082	0.000550
980.0504	0.001099
980.2926	-0.000842
980.5349	0.000086
980.7771	0.000550
981.0194	0.000550
981.2617	0.000466
981.5040	0.002681
981.7462	0.000803
981.9885	0.000635
982.2308	0.000867
982.4731	-0.000399
982.7155	0.000424
982.9578	0.001162
983.2001	0.001394
983.4424	0.000255
983.6848	0.000740
983.9271	0.001246
984.1695	0.001288
984.4118	0.001731
984.6542	0.001942
984.8966	0.000318
985.1390	0.000740
985.3814	0.001141
985.6238	-0.000062
985.8662	0.000297
986.1086	0.000487
986.3510	-0.000884
986.5934	0.000128
986.8358	0.001331
987.0783	0.001183
987.3207	0.000993
987.5632	-0.000821
987.8056	-0.000420
988.0481	0.000571
988.2906	-0.000146
988.5331	-0.000610
988.7756	0.000445
989.0180	-0.000378
989.2605	0.000677
989.5031	0.000213
989.7456	0.001689
989.9881	0.000571
990.2306	-0.000083
990.4732	0.000930
990.7157	0.000445
990.9582	0.000761
991.2008	0.000803
991.4434	0.000445
991.6859	0.000909
991.9285	0.000888
992.1711	-0.000125
992.4137	-0.000863
992.6563	0.000698
992.8989	0.000930
993.1415	0.000487
993.3841	0.000234
993.6267	0.000424
993.8694	0.000360
994.1120	-0.000652
994.3547	-0.001348
994.5973	0.001267
994.8400	-0.000167
995.0826	-0.001011
995.3253	0.000803
995.5680	0.001816
995.8107	0.000803
996.0534	0.001584
996.2961	0.000002
996.5388	0.000381
996.7815	0.000487
997.0242	0.000782
997.2670	0.000487
997.5097	0.000719
997.7524	-0.000947
997.9952	0.001985
998.2379	-0.002656
998.4807	0.000951
998.7235	-0.000019
998.9662	0.000381
999.2090	0.000677
999.4518	0.000782
999.6946	0.000635
999.9374	-0.001137
1000.1802	0.001141
1000.4230	0.000972
1000.6659	0.000023
1000.9087	0.001014
1001.1515	0.000002
1001.3944	0.000255
1001.6372	0.000192
1001.8801	0.000213
1002.1230	0.001858
1002.3658	-0.000441
1002.6087	-0.000083
1002.8516	-0.000526
1003.0945	-0.000188
1003.3374	-0.000167
1003.5803	0.001689
1003.8232	-0.001116
1004.0661	0.000529
1004.3091	0.001099
1004.5520	-0.000568
1004.7949	0.000656
1005.0379	0.000930
1005.2808	-0.000420
1005.5238	0.001352
1005.7667	0.000339
1006.0097	0.000656
1006.2527	0.000445
1006.4957	-0.000610
1006.7387	-0.000610
1006.9817	0.000297
1007.2247	-0.000526
1007.4677	0.001331
1007.7107	0.000065
1007.9538	-0.000272
1008.1968	-0.000779
1008.4398	0.000951
1008.6829	-0.002108
1008.9259	-0.000758
1009.1690	0.000719
1009.4121	0.000255
1009.6551	0.000613
1009.8982	0.001858
1010.1413	-0.000209
1010.3844	-0.000399
1010.6275	0.000381
1010.8706	0.000086
1011.1137	-0.000083
1011.3568	0.000571
1011.6000	0.000086
1011.8431	0.000086
1012.0863	0.000213
1012.3294	0.000149
1012.5726	-0.000378
1012.8157	0.000888
1013.0589	0.000677
1013.3021	0.000065
1013.5452	-0.000652
1013.7884	0.001078
1014.0316	0.000803
1014.2748	0.001689
1014.5180	-0.000589
1014.7613	0.000824
1015.0045	-0.001412
1015.2477	0.000761
1015.4909	0.000149
1015.7342	-0.000230
1015.9774	-0.000884
1016.2207	-0.000779
1016.4640	-0.000610
1016.7072	0.000740
1016.9505	0.000656
1017.1938	0.001183
1017.4371	0.000171
1017.6804	0.000002
1017.9237	-0.001116
1018.1670	0.000086
1018.4103	0.000149
1018.6536	0.000592
1018.8969	0.002069
1019.1403	0.000550
1019.3836	0.000740
1019.6270	0.000318
1019.8703	-0.000441
1020.1137	-0.000294
1020.3571	0.000086
1020.6004	-0.000019
1020.8438	0.000318
1021.0872	0.000360
1021.3306	0.000424
1021.5740	-0.000399
1021.8174	-0.001897
1022.0608	0.000445
1022.3042	-0.001327
1022.5477	0.000339
1022.7911	-0.000589
1023.0345	0.000318
