# Wavelength (nm)	Intensity (a.u.)
197.7802	0.000002
197.9842	-0.000800
198.1882	0.001141
198.3922	-0.000336
198.5963	0.000318
198.8003	0.000065
199.0044	0.000276
199.2085	-0.000083
199.4126	0.000128
199.6168	-0.000526
199.8209	-0.000673
200.0251	-0.000399
200.2292	-0.000715
200.4334	0.000128
200.6376	0.000107
200.8418	0.001499
201.0461	0.001499
201.2503	-0.001243
201.4546	0.001584
201.6589	0.000719
201.8631	0.000951
202.0674	-0.001243
202.2718	0.000487
202.4761	0.000529
202.6805	0.002723
202.8848	-0.000062
203.0892	0.000719
203.2936	-0.000462
203.4980	-0.000547
203.7024	-0.000737
203.9069	-0.001032
204.1113	0.000719
204.3158	-0.000905
204.5203	0.000656
204.7248	-0.000146
204.9293	-0.001053
205.1338	0.001985
205.3384	0.000445
205.5430	0.000445
205.7475	-0.001348
205.9521	-0.000230
206.1567	-0.000715
206.3614	-0.000209
206.5660	0.000192
206.7706	-0.000272
206.9753	-0.000272
207.1800	0.000571
207.3847	0.000297
207.5894	0.000824
207.7941	0.000002
207.9989	-0.000272
208.2036	-0.000800
208.4084	0.000550
208.6132	-0.001158
208.8180	0.000107
209.0228	-0.000146
209.2276	0.000023
209.4325	-0.000652
209.6373	0.001141
209.8422	-0.000083
210.0471	-0.000230
210.2520	0.000846
210.4569	0.000951
210.6618	-0.000294
210.8668	-0.001158
211.0718	0.000656
211.2767	0.000656
211.4817	0.000993
211.6867	0.001289
211.8918	-0.000420
212.0968	-0.000378
212.3018	-0.001770
212.5069	0.000846
212.7120	-0.000062
212.9171	-0.000104
213.1222	0.000635
213.3273	-0.000104
213.5325	0.000403
213.7376	0.000846
213.9428	0.000318
214.1480	0.000592
214.3532	0.001499
214.5584	0.000213
214.7636	-0.000800
214.9689	0.001014
215.1741	0.000297
215.3794	0.000424
215.5847	-0.000104
215.7900	0.001078
215.9953	0.000213
216.2007	-0.000737
216.4060	0.001183
216.6114	-0.000146
216.8168	0.000529
217.0222	0.000086
217.2276	0.000065
217.4330	-0.000294
217.6384	0.001225
217.8439	0.000297
218.0494	0.002090
218.2548	0.000761
218.4603	-0.000568
218.6659	0.001310
218.8714	0.000719
219.0769	-0.000209
219.2825	0.001035
219.4881	0.001521
219.6936	-0.000631
219.8992	0.001056
220.1049	0.001584
220.3105	0.001837
220.5161	0.000192
220.7218	-0.000610
220.9275	0.000803
221.1332	0.000149
221.3389	-0.001032
221.5446	0.001246
221.7503	-0.000378
221.9561	0.001584
222.1618	-0.000969
222.3676	0.000487
222.5734	-0.000146
222.7792	0.000403
222.9850	-0.000610
223.1909	-0.000969
223.3967	-0.001095
223.6026	0.001120
223.8085	-0.001412
224.0144	0.000276
224.2203	0.001183
224.4262	0.000951
224.6322	-0.000083
224.8381	0.000107
225.0441	0.000740
225.2501	-0.000188
225.4561	-0.000800
225.6621	0.000846
225.8681	-0.001137
226.0742	0.000023
226.2802	0.000550
226.4863	0.000909
226.6924	-0.000779
226.8985	0.000213
227.1046	0.000044
227.3107	0.000656
227.5169	0.000086
227.7230	0.000550
227.9292	0.000360
228.1354	-0.000062
228.3416	-0.000083
228.5478	0.001289
228.7541	-0.000040
228.9603	0.001900
229.1666	0.000002
229.3729	-0.000462
229.5791	-0.000209
229.7855	0.002385
229.9918	-0.000357
230.1981	0.001225
230.4045	-0.000062
230.6108	-0.001201
230.8172	0.001120
231.0236	0.000951
231.2300	0.000255
231.4364	0.000571
231.6429	-0.001032
231.8493	0.000297
232.0558	-0.000568
232.2623	0.000719
232.4688	-0.000715
232.6753	0.001879
232.8818	-0.000146
233.0884	-0.000294
233.2949	-0.001390
233.5015	0.000107
233.7081	-0.000104
233.9147	0.000824
234.1213	0.000381
234.3279	0.000529
234.5346	0.000466
234.7413	0.000782
234.9479	0.000803
235.1546	0.000824
235.3613	-0.000673
235.5680	0.000403
235.7748	0.000571
235.9815	0.000466
236.1883	-0.000694
236.3951	0.002385
236.6018	0.001331
236.8087	0.000824
237.0155	0.000318
237.2223	0.001225
237.4292	-0.000188
237.6360	0.000403
237.8429	-0.000969
238.0498	0.001014
238.2567	0.000107
238.4636	-0.000378
238.6706	-0.000294
238.8775	0.000360
239.0845	0.000677
239.2915	0.000613
239.4985	0.000192
239.7055	0.001605
239.9125	0.001014
240.1195	-0.000462
240.3266	0.000149
240.5337	0.001521
240.7407	0.000550
240.9478	-0.000863
241.1549	0.000761
241.3621	0.001605
241.5692	-0.000378
241.7764	0.000761
241.9835	-0.001960
242.1907	0.001985
242.3979	0.000171
242.6051	0.000381
242.8124	-0.000800
243.0196	0.001035
243.2269	0.000171
243.4341	0.000909
243.6414	-0.000568
243.8487	0.000846
244.0560	0.000867
244.2634	0.001035
244.4707	0.000951
244.6781	-0.000884
244.8854	-0.000209
245.0928	-0.000146
245.3002	0.000909
245.5076	0.000740
245.7151	-0.000652
245.9225	0.001056
246.1300	0.001014
246.3375	-0.000104
246.5449	0.001183
246.7524	-0.000737
246.9600	-0.001116
247.1675	-0.000125
247.3750	-0.000167
247.5826	0.000445
247.7902	0.000867
247.9978	0.000171
248.2054	-0.000315
248.4130	0.000381
248.6206	-0.001201
248.8283	0.000234
249.0359	0.000592
249.2436	-0.000610
249.4513	-0.001116
249.6590	0.001289
249.8667	-0.000526
250.0745	0.001225
250.2822	0.000909
250.4900	0.000044
250.6978	0.000360
250.9056	0.000487
251.1134	0.000044
251.3212	-0.000420
251.5290	0.000023
251.7369	-0.000272
251.9447	0.001183
252.1526	0.000656
252.3605	0.000909
252.5684	0.000592
252.7763	-0.000125
252.9843	0.000466
253.1922	-0.000737
253.4002	-0.000631
253.6082	-0.000294
253.8162	0.000613
254.0242	-0.001032
254.2322	-0.000062
254.4402	-0.000526
254.6483	0.000972
254.8564	-0.001074
255.0644	0.001457
255.2725	0.000487
255.4806	-0.000209
255.6888	0.000213
255.8969	0.001014
256.1051	0.000128
256.3132	0.001942
256.5214	-0.000062
256.7296	-0.000737
256.9378	-0.000547
257.1460	0.002048
257.3543	0.000424
257.5625	-0.000336
257.7708	0.000339
257.9791	0.001246
258.1874	0.000782
258.3957	0.000951
258.6040	0.000677
258.8124	0.000403
259.0207	-0.000104
259.2291	0.000339
259.4375	-0.000758
259.6459	0.000360
259.8543	-0.000926
260.0627	-0.000125
260.2711	0.000719
260.4796	0.002069
260.6881	0.000592
260.8965	0.000909
261.1050	-0.000251
261.3135	0.001120
261.5221	0.000445
261.7306	0.001415
261.9392	-0.000062
262.1477	-0.000842
262.3563	0.000761
262.5649	0.000508
262.7735	0.000592
262.9822	0.001542
263.1908	0.000128
263.3995	0.001521
263.6081	0.000824
263.8168	0.001584
264.0255	0.000128
264.2342	-0.001454
264.4429	-0.000104
264.6517	-0.000547
264.8604	0.000107
265.0692	0.001225
265.2780	-0.000336
265.4868	-0.001496
265.6956	0.000466
265.9044	0.000571
266.1133	-0.000420
266.3221	0.000255
266.5310	0.000867
266.7399	-0.000420
266.9488	0.000023
267.1577	0.001310
267.3666	-0.000167
267.5755	0.000234
267.7845	0.000276
267.9935	-0.000040
268.2024	0.001457
268.4114	0.000761
268.6205	-0.000294
268.8295	0.001647
269.0385	0.001014
269.2476	0.000065
269.4566	0.000381
269.6657	-0.000505
269.8748	-0.001454
270.0839	0.000635
270.2931	0.000065
270.5022	0.000571
270.7114	-0.000357
270.9205	0.001394
271.1297	-0.000062
271.3389	0.000403
271.5481	-0.000715
271.7573	0.001056
271.9666	-0.000969
272.1758	0.000002
272.3851	0.000635
272.5944	0.000951
272.8037	0.000128
273.0130	-0.000779
273.2223	-0.001285
273.4316	0.001225
273.6410	0.000107
273.8504	0.000107
274.0597	-0.001390
274.2691	0.001394
274.4785	-0.000357
274.6880	0.001289
274.8974	0.001542
275.1069	0.000635
275.3163	-0.000842
275.5258	0.000339
275.7353	0.000192
275.9448	0.000656
276.1543	-0.001095
276.3639	0.001858
276.5734	0.000213
276.7830	0.001689
276.9926	0.000297
277.2022	0.001415
277.4118	0.001035
277.6214	0.000909
277.8310	-0.000715
278.0407	-0.000336
278.2503	-0.000209
278.4600	0.000972
278.6697	0.000993
278.8794	-0.000483
279.0891	0.000065
279.2989	-0.000884
279.5086	0.000909
279.7184	0.001141
279.9281	0.001457
280.1379	0.002639
280.3477	-0.000863
280.5576	0.001647
280.7674	0.000023
280.9772	0.000592
281.1871	-0.000378
281.3970	0.001626
281.6069	-0.000336
281.8168	-0.000251
282.0267	0.000803
282.2366	0.001753
282.4466	0.000002
282.6565	0.000002
282.8665	0.000149
283.0765	0.001246
283.2865	0.000888
283.4965	0.000909
283.7065	-0.000779
283.9166	0.000255
284.1266	0.000508
284.3367	-0.001369
284.5468	-0.000040
284.7569	-0.001095
284.9670	-0.000737
285.1771	-0.000610
285.3873	-0.000125
285.5974	-0.000104
285.8076	0.001014
286.0178	0.001774
286.2280	-0.000062
286.4382	-0.001180
286.6484	-0.000800
286.8587	0.000803
287.0689	0.000635
287.2792	0.000867
287.4895	0.000508
287.6998	-0.000547
287.9101	0.001183
288.1204	0.000782
288.3308	0.000276
288.5411	0.001204
288.7515	0.001014
288.9619	0.000972
289.1723	-0.001222
289.3827	0.001141
289.5931	0.000360
289.8035	0.001078
290.0140	0.000297
290.2245	-0.000167
290.4349	0.000149
290.6454	-0.002213
290.8559	0.000487
291.0665	-0.000294
291.2770	-0.000715
291.4875	-0.001180
291.6981	0.000487
291.9087	-0.000357
292.1193	-0.000652
292.3299	0.001542
292.5405	-0.000462
292.7511	-0.000104
292.9618	-0.000652
293.1724	0.002533
293.3831	-0.000483
293.5938	0.000803
293.8045	0.000128
294.0152	-0.000019
294.2260	0.001352
294.4367	0.000930
294.6475	0.001626
294.8582	0.000888
295.0690	0.000803
295.2798	0.000613
295.4906	0.000909
295.7015	0.000719
295.9123	-0.000336
296.1232	-0.000526
296.3340	-0.000167
296.5449	0.000761
296.7558	0.000403
296.9667	-0.000441
297.1777	-0.002508
297.3886	0.000888
297.5995	0.000107
297.8105	0.001542
298.0215	0.000128
298.2325	-0.000420
298.4435	0.000466
298.6545	0.000635
298.8656	0.000972
299.0766	0.000993
299.2877	0.000381
299.4988	-0.000294
299.7099	0.000276
299.9210	0.001267
300.1321	0.001078
300.3432	-0.000251
300.5544	-0.000441
300.7655	0.000297
300.9767	0.001162
301.1879	0.001120
301.3991	0.001521
301.6103	0.001162
301.8215	0.000360
302.0328	0.000381
302.2441	0.000803
302.4553	0.000677
302.6666	-0.000019
302.8779	0.000297
303.0892	0.000867
303.3006	0.001120
303.5119	-0.001538
303.7233	0.000149
303.9346	-0.000399
304.1460	0.000023
304.3574	-0.000715
304.5688	0.001183
304.7803	-0.000019
304.9917	0.000276
305.2031	0.000297
305.4146	-0.000378
305.6261	0.000487
305.8376	0.000023
306.0491	0.000403
306.2606	0.000824
306.4722	0.000677
306.6837	-0.000272
306.8953	0.000276
307.1069	0.001542
307.3184	-0.000167
307.5301	0.000656
307.7417	0.001120
307.9533	-0.000272
308.1650	0.000803
308.3766	0.000360
308.5883	0.001056
308.8000	-0.000357
309.0117	0.000044
309.2234	0.001014
309.4351	0.001373
309.6469	0.000698
309.8586	-0.000420
310.0704	0.000044
310.2822	0.000508
310.4940	0.000171
310.7058	0.000824
310.9176	0.000276
311.1295	0.000023
311.3413	0.000761
311.5532	0.000192
311.7651	0.000023
311.9770	0.000403
312.1889	0.000107
312.4008	0.000782
312.6127	-0.000420
312.8247	0.001731
313.0366	-0.000420
313.2486	0.000192
313.4606	-0.000019
313.6726	0.000002
313.8846	-0.000230
314.0967	0.001225
314.3087	0.001985
314.5208	-0.000188
314.7328	0.000550
314.9449	-0.000462
315.1570	0.001710
315.3692	0.001141
315.5813	0.001373
315.7934	-0.000399
316.0056	0.001710
316.2177	-0.000399
316.4299	0.001795
316.6421	0.001204
316.8543	-0.000104
317.0666	0.000592
317.2788	0.000234
317.4911	0.000128
317.7033	-0.000800
317.9156	0.000002
318.1279	0.001394
318.3402	-0.000526
318.5525	0.000276
318.7649	-0.000800
318.9772	0.000318
319.1896	-0.001222
319.4019	0.000297
319.6143	0.000677
319.8267	0.000424
320.0392	-0.000737
320.2516	0.001521
320.4640	0.000339
320.6765	0.000107
320.8890	0.000128
321.1014	0.001267
321.3139	0.000550
321.5265	-0.000715
321.7390	-0.000526
321.9515	0.000192
322.1641	0.000782
322.3766	0.001731
322.5892	0.001204
322.8018	0.000571
323.0144	-0.000399
323.2270	0.000107
323.4397	0.000677
323.6523	-0.000104
323.8650	0.000487
324.0777	0.000613
324.2904	0.000487
324.5031	0.000993
324.7158	-0.000378
324.9285	0.001014
325.1412	0.000487
325.3540	0.000656
325.5668	-0.000209
325.7796	0.000740
325.9924	0.000403
326.2052	0.002533
326.4180	-0.000294
326.6308	-0.000230
326.8437	0.000698
327.0566	0.001563
327.2694	0.001352
327.4823	-0.000969
327.6952	-0.000040
327.9082	0.000065
328.1211	0.001035
328.3340	0.002364
328.5470	-0.001053
328.7600	-0.000083
328.9730	0.001120
329.1860	0.000529
329.3990	0.000023
329.6120	0.000466
329.8251	0.000824
330.0381	-0.001201
330.2512	-0.000336
330.4643	0.000487
330.6774	0.000403
330.8905	0.000128
331.1036	-0.000188
331.3167	0.002027
331.5299	-0.000631
331.7431	0.001014
331.9562	0.001035
332.1694	0.001415
332.3826	-0.000673
332.5959	0.000740
332.8091	0.000550
333.0223	-0.000272
333.2356	-0.000272
333.4489	0.000360
333.6622	-0.000272
333.8755	0.000909
334.0888	-0.000483
334.3021	0.000065
334.5154	0.001078
334.7288	0.000297
334.9422	0.000529
335.1555	-0.000146
335.3689	0.000276
335.5823	-0.000040
335.7958	0.000213
336.0092	0.001985
336.2227	-0.000294
336.4361	-0.000230
336.6496	-0.000125
336.8631	-0.000146
337.0766	0.000360
337.2901	-0.000209
337.5036	0.000297
337.7172	0.000276
337.9307	-0.000715
338.1443	0.000255
338.3579	0.000065
338.5715	0.001035
338.7851	-0.000589
338.9987	0.002132
339.2124	-0.000947
339.4260	0.002006
339.6397	0.000403
339.8533	0.000044
340.0670	-0.000969
340.2807	0.001225
340.4945	0.000782
340.7082	0.000909
340.9219	0.000635
341.1357	0.000888
341.3495	-0.000547
341.5633	0.000719
341.7771	-0.000209
341.9909	0.000803
342.2047	0.000171
342.4185	0.000635
342.6324	0.001563
342.8463	-0.000505
343.0601	0.000086
343.2740	0.001689
343.4879	0.000086
343.7019	0.000192
343.9158	0.000719
344.1297	0.000255
344.3437	-0.000610
344.5577	-0.000505
344.7717	0.000719
344.9857	0.001035
345.1997	0.000761
345.4137	-0.000125
345.6277	0.000149
345.8418	0.000297
346.0559	0.001584
346.2699	-0.000188
346.4840	0.000571
346.6981	-0.001011
346.9123	0.000065
347.1264	0.000234
347.3406	0.000318
347.5547	0.002259
347.7689	0.000149
347.9831	0.000002
348.1973	0.000276
348.4115	0.001035
348.6257	0.000276
348.8400	0.000276
349.0542	0.000529
349.2685	0.001289
349.4828	0.000888
349.6971	0.001563
349.9114	-0.000209
350.1257	0.000234
350.3400	-0.000272
350.5544	0.000403
350.7687	-0.000146
350.9831	0.000550
351.1975	0.001289
351.4119	0.000360
351.6263	-0.000715
351.8407	0.000592
352.0552	0.000086
352.2696	0.000656
352.4841	-0.000399
352.6986	0.001056
352.9131	0.000508
353.1276	-0.000631
353.3421	0.000656
353.5566	0.000782
353.7712	0.000529
353.9858	0.000571
354.2003	0.000972
354.4149	0.001035
354.6295	-0.000652
354.8441	0.001415
355.0588	0.000466
355.2734	0.001731
355.4881	0.000951
355.7027	0.001921
355.9174	0.000297
356.1321	0.000192
356.3468	0.001246
356.5615	0.000867
356.7763	0.000719
356.9910	0.000403
357.2058	0.000297
357.4206	0.001964
357.6353	-0.000209
357.8501	0.001056
358.0650	-0.000821
358.2798	0.000888
358.4946	-0.000399
358.7095	-0.000378
358.9243	-0.000104
359.1392	-0.000547
359.3541	0.000571
359.5690	0.000656
359.7839	-0.001137
359.9989	-0.000969
360.2138	-0.001158
360.4288	0.000508
360.6438	-0.000568
360.8587	0.000044
361.0737	-0.000062
361.2888	0.000044
361.5038	0.000023
361.7188	0.001204
361.9339	0.000445
362.1489	0.000445
362.3640	0.000149
362.5791	0.001035
362.7942	-0.000019
363.0093	0.000972
363.2245	-0.000737
363.4396	-0.000821
363.6548	0.000403
363.8699	0.001014
364.0851	0.000592
364.3003	0.000951
364.5155	0.000276
364.7308	0.000951
364.9460	-0.000146
365.1612	0.000571
365.3765	-0.001222
365.5918	0.001035
365.8071	0.000213
366.0224	0.000529
366.2377	-0.000251
366.4530	0.001204
366.6684	0.001753
366.8837	0.002153
367.0991	0.000846
367.3145	0.001436
367.5299	-0.000694
367.7453	-0.000251
367.9607	0.000360
368.1761	0.001056
368.3916	0.001056
368.6070	-0.000125
368.8225	0.000909
369.0380	0.001204
369.2535	0.000297
369.4690	0.000128
369.6845	0.001858
369.9001	0.001331
370.1156	-0.000315
370.3312	0.000993
370.5468	0.000086
370.7624	0.000698
370.9780	-0.000441
371.1936	-0.000715
371.4092	0.000529
371.6249	0.000424
371.8405	0.000192
372.0562	-0.000251
372.2719	-0.000167
372.4876	-0.001222
372.7033	0.000360
372.9190	0.000571
373.1348	-0.000441
373.3505	0.000381
373.5663	0.000740
373.7820	0.000086
373.9978	0.000255
374.2136	-0.000652
374.4294	-0.000294
374.6453	0.000803
374.8611	-0.000779
375.0770	0.000592
375.2928	-0.001158
375.5087	-0.000040
375.7246	-0.000821
375.9405	0.001858
376.1564	0.001289
376.3724	0.000086
376.5883	-0.000715
376.8043	0.002132
377.0203	0.000466
377.2362	0.000824
377.4522	0.000635
377.6682	0.000297
377.8843	-0.000294
378.1003	-0.000230
378.3164	0.000635
378.5324	-0.000947
378.7485	0.000107
378.9646	-0.000526
379.1807	0.001457
379.3968	0.001753
379.6129	0.000740
379.8291	-0.000821
380.0452	-0.000441
380.2614	0.001310
380.4776	0.000339
380.6938	0.000192
380.9100	0.000149
381.1262	0.000698
381.3424	-0.001285
381.5587	0.000719
381.7749	-0.000884
381.9912	0.000909
382.2075	0.000424
382.4238	0.000698
382.6401	0.000951
382.8564	0.002196
383.0728	0.001753
383.2891	0.001183
383.5055	0.001373
383.7219	-0.000294
383.9382	0.000635
384.1546	-0.000251
384.3711	0.000803
384.5875	0.000529
384.8039	0.002174
385.0204	0.000824
385.2368	0.000171
385.4533	0.001310
385.6698	0.002428
385.8863	0.001647
386.1028	0.000677
386.3194	0.001056
386.5359	0.001246
386.7525	0.001331
386.9690	0.000803
387.1856	0.002512
387.4022	0.000424
387.6188	0.002533
387.8355	0.000698
388.0521	0.001584
388.2687	0.002069
388.4854	0.000592
388.7021	0.002639
388.9188	0.001753
389.1355	0.000487
389.3522	0.002196
389.5689	0.002217
389.7856	0.002639
390.0024	0.001964
390.2192	0.003124
390.4359	0.001837
390.6527	0.002892
390.8695	0.002702
391.0863	0.004052
391.3032	0.003398
391.5200	0.003693
391.7369	0.004010
391.9537	0.004178
392.1706	0.004178
392.3875	0.004727
392.6044	0.004263
392.8213	0.005233
393.0383	0.006351
393.2552	0.004621
393.4722	0.005803
393.6891	0.005697
393.9061	0.005761
394.1231	0.004980
394.3401	0.006372
394.5572	0.007469
394.7742	0.006309
394.9912	0.007954
395.2083	0.007743
395.4254	0.006035
395.6425	0.007532
395.8596	0.007596
396.0767	0.008587
396.2938	0.006857
396.5109	0.009557
396.7281	0.009768
396.9453	0.009515
397.1624	0.009178
397.3796	0.009853
397.5968	0.009916
397.8140	0.011013
398.0313	0.010190
398.2485	0.011435
398.4658	0.014262
398.6830	0.012975
398.9003	0.012511
399.1176	0.013587
399.3349	0.013186
399.5522	0.012279
399.7696	0.013945
399.9869	0.013608
400.2043	0.014325
400.4216	0.013608
400.6390	0.013945
400.8564	0.013587
401.0738	0.014367
401.2912	0.014177
401.5087	0.015042
401.7261	0.015485
401.9436	0.014008
402.1610	0.015042
402.3785	0.016202
402.5960	0.017109
402.8135	0.015084
403.0310	0.016329
403.2486	0.016519
403.4661	0.014831
403.6837	0.017426
403.9013	0.016645
404.1189	0.015042
404.3365	0.015801
404.5541	0.018333
404.7717	0.015907
404.9893	0.018797
405.2070	0.017974
405.4246	0.019472
405.6423	0.019324
405.8600	0.019683
406.0777	0.018797
406.2954	0.019324
406.5131	0.018839
406.7309	0.017848
406.9486	0.017320
407.1664	0.018396
407.3842	0.017151
407.6020	0.018080
407.8198	0.016329
408.0376	0.020632
408.2554	0.018459
408.4733	0.020505
408.6911	0.020337
408.9090	0.019113
409.1269	0.020273
409.3448	0.019219
409.5627	0.017890
409.7806	0.020463
409.9985	0.021834
410.2165	0.019852
410.4344	0.021180
410.6524	0.020041
410.8704	0.020168
411.0884	0.020400
411.3064	0.020927
411.5244	0.020273
411.7424	0.021012
411.9605	0.019029
412.1785	0.021265
412.3966	0.020906
412.6147	0.021708
412.8328	0.021328
413.0509	0.023416
413.2690	0.022889
413.4871	0.022193
413.7053	0.021307
413.9234	0.021265
414.1416	0.022383
414.3598	0.022024
414.5780	0.021666
414.7962	0.021033
415.0144	0.021518
415.2326	0.022805
415.4509	0.022003
415.6692	0.022298
415.8874	0.021138
416.1057	0.022066
416.3240	0.022488
416.5423	0.022298
416.7606	0.021792
416.9790	0.022425
417.1973	0.023016
417.4157	0.023965
417.6341	0.022467
417.8524	0.021560
418.0708	0.021518
418.2893	0.021919
418.5077	0.023142
418.7261	0.022636
418.9446	0.021919
419.1630	0.023332
419.3815	0.023227
419.6000	0.025716
419.8185	0.023227
420.0370	0.024218
420.2555	0.025062
420.4741	0.026285
420.6926	0.023079
420.9112	0.025842
421.1298	0.026306
421.3483	0.027656
421.5669	0.027741
421.7856	0.026117
422.0042	0.029112
422.2228	0.027340
422.4415	0.028310
422.6601	0.026243
422.8788	0.026011
423.0975	0.026159
423.3162	0.025779
423.5349	0.026792
423.7536	0.025948
423.9724	0.025399
424.1911	0.025020
424.4099	0.025336
424.6287	0.022741
424.8475	0.025948
425.0663	0.024534
425.2851	0.026222
425.5039	0.025948
425.7228	0.023585
425.9416	0.023902
426.1605	0.022931
426.3793	0.024091
426.5982	0.023311
426.8171	0.022214
427.0361	0.021729
427.2550	0.023838
427.4739	0.025674
427.6929	0.024577
427.9118	0.023944
428.1308	0.023311
428.3498	0.022741
428.5688	0.024260
428.7878	0.024197
429.0068	0.021370
429.2259	0.023817
429.4449	0.026306
429.6640	0.026665
429.8831	0.027213
430.1022	0.029091
430.3213	0.027150
430.5404	0.026644
430.7595	0.028817
430.9787	0.028142
431.1978	0.025906
431.4170	0.025589
431.6362	0.024767
431.8553	0.022952
432.0745	0.021518
432.2938	0.022003
432.5130	0.021033
432.7322	0.021792
432.9515	0.021012
433.1707	0.023100
433.3900	0.023522
433.6093	0.023649
433.8286	0.026349
434.0479	0.028374
434.2673	0.024956
434.4866	0.023564
434.7059	0.024281
434.9253	0.025083
435.1447	0.023353
435.3641	0.023374
435.5835	0.024661
435.8029	0.023332
436.0223	0.023438
436.2418	0.022699
436.4612	0.024450
436.6807	0.024429
436.9001	0.025273
437.1196	0.024007
437.3391	0.025146
437.5586	0.023269
437.7782	0.024197
437.9977	0.024281
438.2173	0.024134
438.4368	0.020864
438.6564	0.025399
438.8760	0.024999
439.0956	0.022045
439.3152	0.026243
439.5348	0.023227
439.7545	0.023501
439.9741	0.023986
440.1938	0.023859
440.4135	0.021413
440.6331	0.023902
440.8528	0.022552
441.0725	0.025885
441.2923	0.027804
441.5120	0.029217
441.7318	0.027741
441.9515	0.028437
442.1713	0.026538
442.3911	0.026770
442.6109	0.025273
442.8307	0.023585
443.0505	0.024070
443.2703	0.025399
443.4902	0.025336
443.7101	0.026855
443.9299	0.026370
444.1498	0.028374
444.3697	0.027572
444.5896	0.026264
444.8095	0.025252
445.0295	0.023353
445.2494	0.025252
445.4694	0.024767
445.6894	0.024345
445.9093	0.022024
446.1293	0.022404
446.3493	0.024809
446.5694	0.024197
446.7894	0.025041
447.0094	0.021940
447.2295	0.024387
447.4496	0.023859
447.6696	0.025336
447.8897	0.023269
448.1098	0.022995
448.3300	0.021919
448.5501	0.022320
448.7702	0.021602
448.9904	0.021666
449.2106	0.022024
449.4307	0.022615
449.6509	0.022214
449.8711	0.021961
450.0914	0.021834
450.3116	0.021413
450.5318	0.020273
450.7521	0.020168
450.9724	0.018966
451.1926	0.019451
451.4129	0.019577
451.6332	0.019514
451.8535	0.021075
452.0739	0.020737
452.2942	0.020105
452.5146	0.020126
452.7349	0.019345
452.9553	0.019409
453.1757	0.016392
453.3961	0.018206
453.6165	0.019409
453.8369	0.017826
454.0574	0.017573
454.2778	0.018206
454.4983	0.017848
454.7188	0.017573
454.9393	0.016666
455.1597	0.019619
455.3803	0.017552
455.6008	0.017320
455.8213	0.017700
456.0419	0.016645
456.2624	0.017890
456.4830	0.016624
456.7036	0.016730
456.9242	0.015696
457.1448	0.015337
457.3654	0.015169
457.5860	0.015801
457.8067	0.017447
458.0274	0.015633
458.2480	0.015928
458.4687	0.017341
458.6894	0.017405
458.9101	0.014008
459.1308	0.018881
459.3516	0.016983
459.5723	0.017426
459.7931	0.016033
460.0138	0.016814
460.2346	0.015717
460.4554	0.016160
460.6762	0.013987
460.8970	0.015738
461.1178	0.015211
461.3387	0.015949
461.5595	0.015612
461.7804	0.015190
462.0013	0.013945
462.2222	0.014219
462.4431	0.013819
462.6640	0.013418
462.8849	0.014283
463.1059	0.012996
463.3268	0.015274
463.5478	0.013565
463.7687	0.014810
463.9897	0.011414
464.2107	0.015021
464.4317	0.013312
464.6528	0.014262
464.8738	0.013882
465.0948	0.014494
465.3159	0.013776
465.5370	0.015126
465.7581	0.014894
465.9792	0.013629
466.2003	0.013144
466.4214	0.012258
466.6425	0.011540
466.8637	0.011667
467.0848	0.009199
467.3060	0.011013
467.5272	0.011709
467.7484	0.011034
467.9696	0.011393
468.1908	0.010908
468.4120	0.010127
468.6333	0.010739
468.8545	0.011140
469.0758	0.010549
469.2970	0.009536
469.5183	0.009811
469.7396	0.009389
469.9610	0.007912
470.1823	0.008376
470.4036	0.007469
470.6250	0.009051
470.8463	0.008355
471.0677	0.008313
471.2891	0.008629
471.5105	0.008207
471.7319	0.007828
471.9533	0.007786
472.1748	0.006963
472.3962	0.008081
472.6177	0.006689
472.8391	0.007891
473.0606	0.008714
473.2821	0.009452
473.5036	0.010338
473.7251	0.008292
473.9467	0.008650
474.1682	0.008123
474.3898	0.008376
474.6113	0.006330
474.8329	0.007153
475.0545	0.008482
475.2761	0.007912
475.4977	0.009157
475.7193	0.008207
475.9410	0.006267
476.1626	0.007427
476.3843	0.006520
476.6060	0.006752
476.8277	0.006879
477.0494	0.008397
477.2711	0.006035
477.4928	0.007743
477.7145	0.004685
477.9363	0.007195
478.1580	0.007237
478.3798	0.007511
478.6016	0.007807
478.8234	0.006161
479.0452	0.006520
479.2670	0.006436
479.4888	0.006963
479.7107	0.005929
479.9325	0.005528
480.1544	0.006478
480.3763	0.005254
480.5982	0.007743
480.8201	0.006246
481.0420	0.005233
481.2639	0.005866
481.4859	0.005528
481.7078	0.005001
481.9298	0.005085
482.1517	0.005275
482.3737	0.006140
482.5957	0.005761
482.8177	0.006267
483.0398	0.006646
483.2618	0.006900
483.4838	0.005697
483.7059	0.006119
483.9280	0.005107
484.1501	0.005634
484.3721	0.005824
484.5943	0.006182
484.8164	0.006520
485.0385	0.006520
485.2606	0.005444
485.4828	0.007279
485.7050	0.011920
485.9271	0.017046
486.1493	0.018101
486.3715	0.015169
486.5937	0.009705
486.8160	0.010106
487.0382	0.009452
487.2605	0.009705
487.4827	0.006984
487.7050	0.005339
487.9273	0.005191
488.1496	0.003883
488.3719	0.003841
488.5942	0.006140
488.8165	0.004516
489.0389	0.004621
489.2612	0.006372
489.4836	0.004284
489.7060	0.005170
489.9284	0.004115
490.1508	0.004263
490.3732	0.004875
490.5956	0.005191
490.8180	0.003525
491.0405	0.003820
491.2630	0.005550
491.4854	0.004938
491.7079	0.003124
491.9304	0.003757
492.1529	0.002385
492.3755	0.004959
492.5980	0.003398
492.8205	0.004136
493.0431	0.005085
493.2657	0.002828
493.4882	0.004073
493.7108	0.004094
493.9334	0.003630
494.1561	0.003039
494.3787	0.003356
494.6013	0.002407
494.8240	0.004200
495.0466	0.004432
495.2693	0.001373
495.4920	0.002470
495.7147	0.002512
495.9374	0.004010
496.1601	0.003440
496.3829	0.003588
496.6056	0.004347
496.8284	0.004347
497.0511	0.004157
497.2739	0.003060
497.4967	0.003609
497.7195	0.001331
497.9423	0.003799
498.1652	0.001942
498.3880	0.003208
498.6109	0.001521
498.8337	0.004073
499.0566	0.003419
499.2795	0.003039
499.5024	0.003693
499.7253	0.003271
499.9482	0.002639
500.1712	0.002955
500.3941	-0.000420
500.6171	0.003482
500.8400	0.002807
501.0630	0.003060
501.2860	0.004242
501.5090	0.004474
501.7320	0.002259
501.9551	0.002934
502.1781	0.003440
502.4012	0.004010
502.6242	0.000951
502.8473	0.001985
503.0704	0.001964
503.2935	0.003482
503.5166	0.003124
503.7397	0.002153
503.9628	0.003250
504.1860	0.002617
504.4092	0.002259
504.6323	0.002259
504.8555	0.003398
505.0787	0.002301
505.3019	0.001921
505.5251	0.003609
505.7483	0.001267
505.9716	0.002048
506.1948	0.003946
506.4181	0.003103
506.6414	0.002153
506.8647	0.002153
507.0880	0.002639
507.3113	0.002849
507.5346	0.002449
507.7579	0.002132
507.9813	0.003166
508.2046	0.004010
508.4280	0.001689
508.6514	0.002301
508.8748	0.002554
509.0982	0.001985
509.3216	0.001964
509.5450	0.002048
509.7685	0.002786
509.9919	0.002512
510.2154	0.001521
510.4388	0.002217
510.6623	0.002449
510.8858	0.003820
511.1093	0.002533
511.3329	0.002639
511.5564	0.002723
511.7799	0.001710
512.0035	0.001921
512.2270	0.001267
512.4506	0.001879
512.6742	0.001584
512.8978	0.001879
513.1214	0.001499
513.3451	0.002617
513.5687	0.002491
513.7923	0.001900
514.0160	0.003166
514.2397	0.002407
514.4634	0.002997
514.6871	0.004094
514.9108	0.004178
515.1345	0.001563
515.3582	0.001584
515.5819	0.002449
515.8057	0.001921
516.0295	0.002385
516.2532	0.002174
516.4770	0.002934
516.7008	0.002976
516.9246	0.002132
517.1485	0.003546
517.3723	0.002849
517.5961	0.003398
517.8200	0.003904
518.0439	0.003271
518.2677	0.002301
518.4916	0.001774
518.7155	0.001521
518.9395	0.002217
519.1634	0.002259
519.3873	0.004305
519.6113	0.003018
519.8352	0.003082
520.0592	0.003419
520.2832	0.002807
520.5072	0.002554
520.7312	0.002238
520.9552	0.002533
521.1792	0.001563
521.4033	0.003039
521.6273	0.002554
521.8514	0.003103
522.0755	0.002364
522.2996	0.002702
522.5237	0.001879
522.7478	0.001753
522.9719	0.002660
523.1960	0.001521
523.4202	0.002153
523.6443	0.003757
523.8685	0.002723
524.0927	0.003398
524.3169	0.003630
524.5411	0.002385
524.7653	0.003967
524.9895	0.002849
525.2138	0.002428
525.4380	0.002280
525.6623	0.002364
525.8865	0.003314
526.1108	0.004284
526.3351	0.002913
526.5594	0.003060
526.7837	0.002575
527.0081	0.004094
527.2324	0.003883
527.4568	0.001436
527.6811	0.004326
527.9055	0.002554
528.1299	0.003377
528.3543	0.003735
528.5787	0.004621
528.8031	0.002322
529.0276	0.002322
529.2520	0.003967
529.4765	0.004664
529.7009	0.002892
529.9254	0.005697
530.1499	0.003250
530.3744	0.004748
530.5989	0.005001
530.8234	0.005318
531.0480	0.004621
531.2725	0.004326
531.4971	0.005360
531.7217	0.005001
531.9462	0.003693
532.1708	0.005423
532.3954	0.004284
532.6200	0.005592
532.8447	0.002533
533.0693	0.005528
533.2940	0.004980
533.5186	0.005550
533.7433	0.005507
533.9680	0.006604
534.1927	0.004790
534.4174	0.007427
534.6421	0.005739
534.8668	0.007385
535.0916	0.006119
535.3163	0.007216
535.5411	0.006161
535.7659	0.006119
535.9907	0.006098
536.2155	0.006140
536.4403	0.006963
536.6651	0.006520
536.8899	0.006604
537.1148	0.006436
537.3396	0.005739
537.5645	0.007849
537.7894	0.006478
538.0143	0.008503
538.2392	0.008904
538.4641	0.008882
538.6890	0.007300
538.9139	0.007786
539.1389	0.007427
539.3638	0.009009
539.5888	0.007300
539.8138	0.008777
540.0388	0.007891
540.2638	0.007701
540.4888	0.008735
540.7138	0.009431
540.9389	0.008524
541.1639	0.008334
541.3890	0.009684
541.6140	0.010739
541.8391	0.009579
542.0642	0.010211
542.2893	0.009262
542.5144	0.010064
542.7396	0.009115
542.9647	0.012616
543.1899	0.009747
543.4150	0.012426
543.6402	0.011793
543.8654	0.010169
544.0906	0.011287
544.3158	0.013228
544.5410	0.012658
544.7662	0.012342
544.9915	0.013101
545.2167	0.012806
545.4420	0.012173
545.6673	0.012933
545.8926	0.011751
546.1179	0.011815
546.3432	0.011245
546.5685	0.010802
546.7938	0.012911
547.0192	0.013439
547.2445	0.013882
547.4699	0.014557
547.6953	0.014536
547.9206	0.016772
548.1460	0.015738
548.3715	0.017046
548.5969	0.017658
548.8223	0.015633
549.0478	0.015738
549.2732	0.015970
549.4987	0.016308
549.7242	0.014726
549.9496	0.016160
550.1751	0.016244
550.4007	0.014451
550.6262	0.015548
550.8517	0.015232
551.0773	0.014451
551.3028	0.015000
551.5284	0.016793
551.7540	0.014620
551.9796	0.016202
552.2052	0.018037
552.4308	0.016814
552.6564	0.019936
552.8820	0.018944
553.1077	0.017531
553.3333	0.018586
553.5590	0.017784
553.7847	0.020062
554.0104	0.019873
554.2361	0.018966
554.4618	0.018839
554.6875	0.017489
554.9132	0.017510
555.1390	0.019704
555.3648	0.020843
555.5905	0.022868
555.8163	0.019746
556.0421	0.022805
556.2679	0.021623
556.4937	0.021159
556.7195	0.022552
556.9454	0.021223
557.1712	0.022805
557.3971	0.023079
557.6230	0.020527
557.8488	0.022003
558.0747	0.021497
558.3006	0.021729
558.5266	0.021708
558.7525	0.021623
558.9784	0.019641
559.2044	0.020759
559.4303	0.022509
559.6563	0.021370
559.8823	0.020885
560.1083	0.023796
560.3343	0.026095
560.5603	0.027699
560.7863	0.027846
561.0124	0.029808
561.2384	0.031010
561.4645	0.028690
561.6905	0.027720
561.9166	0.029302
562.1427	0.027720
562.3688	0.029006
562.5949	0.027192
562.8211	0.027888
563.0472	0.029006
563.2733	0.027319
563.4995	0.029112
563.7257	0.030441
563.9519	0.029407
564.1781	0.029449
564.4043	0.032930
564.6305	0.030989
564.8567	0.032846
565.0829	0.034048
565.3092	0.033415
565.5355	0.033584
565.7617	0.033289
565.9880	0.032635
566.2143	0.033162
566.4406	0.036917
566.6669	0.034786
566.8932	0.036980
567.1196	0.038520
567.3459	0.043245
567.5723	0.047337
567.7987	0.045966
568.0250	0.046958
568.2514	0.049447
568.4778	0.051809
568.7043	0.053518
568.9307	0.057463
569.1571	0.057336
569.3836	0.063601
569.6100	0.071364
569.8365	0.079338
570.0630	0.085012
570.2895	0.087522
570.5160	0.085160
570.7425	0.088556
570.9690	0.092880
571.1956	0.100284
571.4221	0.104145
571.6487	0.105916
571.8752	0.109017
572.1018	0.114882
572.3284	0.112540
572.5550	0.106613
572.7816	0.098955
573.0082	0.096002
573.2349	0.102225
573.4615	0.113363
573.6882	0.121041
573.9149	0.128530
574.1415	0.130850
574.3682	0.139604
574.5949	0.143760
574.8216	0.143781
575.0484	0.141882
575.2751	0.145574
575.5018	0.140828
575.7286	0.137199
575.9554	0.131862
576.1821	0.127517
576.4089	0.134457
576.6357	0.140174
576.8626	0.148654
577.0894	0.151333
577.3162	0.152514
577.5431	0.159264
577.7699	0.177532
577.9968	0.206178
578.2237	0.198542
578.4505	0.185358
578.6774	0.173039
578.9044	0.165002
579.1313	0.153421
579.3582	0.157239
579.5851	0.162154
579.8121	0.171878
580.0391	0.168377
580.2660	0.167554
580.4930	0.168356
580.7200	0.163652
580.9470	0.168630
581.1741	0.200862
581.4011	0.241426
581.6281	0.265474
581.8552	0.269039
582.0822	0.265179
582.3093	0.253303
582.5364	0.236026
582.7635	0.211156
582.9906	0.196327
583.2177	0.181012
583.4449	0.173418
583.6720	0.156543
583.8991	0.149434
584.1263	0.156226
584.3535	0.156437
584.5807	0.159348
584.8079	0.172975
585.0351	0.179852
585.2623	0.191306
585.4895	0.195610
585.7167	0.195378
585.9440	0.186623
586.1713	0.176287
586.3985	0.168081
586.6258	0.158125
586.8531	0.164559
587.0804	0.175275
587.3077	0.181687
587.5350	0.189555
587.7624	0.184915
587.9897	0.181181
588.2171	0.170022
588.4445	0.164938
588.6718	0.165170
588.8992	0.158315
589.1266	0.143064
589.3540	0.134014
589.5815	0.131884
589.8089	0.133888
590.0363	0.125091
590.2638	0.130048
590.4913	0.123657
590.7187	0.117307
590.9462	0.112477
591.1737	0.104398
591.4012	0.107224
591.6288	0.107520
591.8563	0.103027
592.0838	0.107857
592.3114	0.109186
592.5389	0.124986
592.7665	0.148759
592.9941	0.159855
593.2217	0.163124
593.4493	0.167111
593.6769	0.163694
593.9046	0.159517
594.1322	0.151164
594.3598	0.143507
594.5875	0.141207
594.8152	0.150890
595.0429	0.158462
595.2705	0.161289
595.4983	0.157576
595.7260	0.149223
595.9537	0.137980
596.1814	0.129479
596.4092	0.124669
596.6369	0.119269
596.8647	0.115936
597.0925	0.118067
597.3203	0.123847
597.5481	0.123319
597.7759	0.118763
598.0037	0.115303
598.2315	0.114122
598.4594	0.115050
598.6872	0.127032
598.9151	0.144772
599.1430	0.156585
599.3709	0.151543
599.5988	0.144730
599.8267	0.147430
600.0546	0.150236
600.2825	0.149118
600.5105	0.147261
600.7384	0.149814
600.9664	0.153864
601.1944	0.150573
601.4223	0.151311
601.6503	0.141714
601.8783	0.138170
602.1064	0.138127
602.3344	0.135111
602.5624	0.131841
602.7905	0.140448
603.0185	0.138402
603.2466	0.147029
603.4747	0.154708
603.7028	0.155657
603.9309	0.146713
604.1590	0.140279
604.3871	0.137410
604.6152	0.132158
604.8434	0.126631
605.0715	0.122729
605.2997	0.128698
605.5279	0.131061
605.7561	0.137621
605.9843	0.144266
606.2125	0.138022
606.4407	0.134288
606.6689	0.126547
606.8972	0.126104
607.1254	0.128276
607.3537	0.129985
607.5819	0.131462
607.8102	0.130913
608.0385	0.126378
608.2668	0.120218
608.4951	0.121568
608.7235	0.120303
608.9518	0.115219
609.1801	0.114671
609.4085	0.106444
609.6369	0.105705
609.8653	0.112013
610.0936	0.120134
610.3220	0.123256
610.5505	0.120556
610.7789	0.115282
611.0073	0.115873
611.2357	0.111317
611.4642	0.114692
611.6927	0.111063
611.9211	0.111528
612.1496	0.110093
612.3781	0.105832
612.6066	0.103955
612.8351	0.103744
613.0637	0.103723
613.2922	0.104714
613.5208	0.104334
613.7493	0.104630
613.9779	0.101719
614.2065	0.103322
614.4351	0.105938
614.6637	0.103554
614.8923	0.100896
615.1209	0.102077
615.3495	0.104756
615.5782	0.106950
615.8068	0.108553
616.0355	0.103385
616.2642	0.099272
616.4929	0.095622
616.7216	0.093618
616.9503	0.087564
617.1790	0.089632
617.4077	0.089969
617.6365	0.089716
617.8652	0.092901
618.0940	0.092142
618.3227	0.088408
618.5515	0.084442
618.7803	0.077080
619.0091	0.074887
619.2379	0.073726
619.4667	0.072524
619.6956	0.072967
619.9244	0.073220
620.1533	0.080730
620.3821	0.078873
620.6110	0.077460
620.8399	0.071723
621.0688	0.066322
621.2977	0.057547
621.5266	0.058243
621.7556	0.062652
621.9845	0.064445
622.2135	0.067293
622.4424	0.068980
622.6714	0.068453
622.9004	0.069676
623.1294	0.070394
623.3584	0.076195
623.5874	0.070436
623.8164	0.070984
624.0454	0.068790
624.2745	0.072630
624.5035	0.072123
624.7326	0.072566
624.9617	0.074275
625.1908	0.069276
625.4199	0.067567
625.6490	0.066491
625.8781	0.065394
626.1072	0.062715
626.3364	0.060564
626.5655	0.057146
626.7947	0.055670
627.0238	0.057484
627.2530	0.056408
627.4822	0.056978
627.7114	0.057210
627.9406	0.056914
628.1698	0.053349
628.3991	0.049573
628.6283	0.047759
628.8576	0.045502
629.0868	0.047612
629.3161	0.047675
629.5454	0.052569
629.7747	0.053666
630.0040	0.051177
630.2333	0.048835
630.4626	0.048097
630.6920	0.047253
630.9213	0.044131
631.1507	0.043751
631.3801	0.041473
631.6094	0.041241
631.8388	0.042507
632.0682	0.042971
632.2976	0.042275
632.5271	0.040229
632.7565	0.039659
632.9859	0.039765
633.2154	0.037065
633.4448	0.035039
633.6743	0.034343
633.9038	0.035714
634.1333	0.036453
634.3628	0.035082
634.5923	0.033331
634.8218	0.033373
635.0514	0.032656
635.2809	0.032403
635.5105	0.034533
635.7400	0.034364
635.9696	0.034618
636.1992	0.036474
636.4288	0.036706
636.6584	0.038499
636.8880	0.036685
637.1177	0.036917
637.3473	0.034976
637.5770	0.032107
637.8066	0.033162
638.0363	0.033035
638.2660	0.034955
638.4957	0.033689
638.7254	0.035293
638.9551	0.034111
639.1848	0.032740
639.4145	0.033816
639.6443	0.031487
639.8740	0.031294
640.1038	0.030110
640.3336	0.030796
640.5633	0.031345
640.7931	0.030042
641.0229	0.030168
641.2528	0.028588
641.4826	0.026899
641.7124	0.027711
641.9423	0.024890
642.1721	0.024885
642.4020	0.024285
642.6319	0.025372
642.8617	0.024297
643.0916	0.025560
643.3216	0.022744
643.5515	0.025430
643.7814	0.024646
644.0113	0.022655
644.2413	0.024034
644.4712	0.021605
644.7012	0.022506
644.9312	0.021133
645.1612	0.023043
645.3912	0.021375
645.6212	0.020479
645.8512	0.022187
646.0812	0.021783
646.3113	0.022500
646.5413	0.020213
646.7714	0.019899
647.0015	0.020644
647.2316	0.022369
647.4616	0.019253
647.6918	0.022023
647.9219	0.021496
648.1520	0.024007
648.3821	0.025215
648.6123	0.026097
648.8424	0.028989
649.0726	0.027477
649.3028	0.027735
649.5329	0.027953
649.7631	0.025978
649.9933	0.026860
650.2236	0.024645
650.4538	0.025065
650.6840	0.023636
650.9143	0.023634
651.1445	0.022370
651.3748	0.024599
651.6051	0.024450
651.8354	0.025256
652.0657	0.026492
652.2960	0.026662
652.5263	0.027877
652.7566	0.025107
652.9870	0.026493
653.2173	0.027526
653.4477	0.028092
653.6780	0.026807
653.9084	0.025352
654.1388	0.026536
654.3692	0.028973
654.5996	0.029449
654.8300	0.034387
655.0605	0.049098
655.2909	0.125793
655.5213	0.377316
655.7518	0.767586
655.9823	1.000000
656.2128	1.000000
656.4433	1.000000
656.6738	1.000000
656.9043	0.890388
657.1348	0.711485
657.3653	0.574623
657.5959	0.487336
657.8264	0.431875
658.0570	0.385117
658.2875	0.353574
658.5181	0.323803
658.7487	0.303346
658.9793	0.283231
659.2099	0.232089
659.4406	0.158697
659.6712	0.097958
659.9018	0.054741
660.1325	0.038085
660.3632	0.027093
660.5938	0.023471
660.8245	0.020392
661.0552	0.021071
661.2859	0.019493
661.5166	0.018438
661.7474	0.016705
661.9781	0.018493
662.2088	0.019289
662.4396	0.017931
662.6704	0.017082
662.9011	0.018405
663.1319	0.017104
663.3627	0.018169
663.5935	0.015943
663.8243	0.017195
664.0552	0.015983
664.2860	0.016996
664.5168	0.018340
664.7477	0.016595
664.9786	0.020018
665.2094	0.019716
665.4403	0.020695
665.6712	0.019637
665.9021	0.021695
666.1330	0.017524
666.3640	0.020404
666.5949	0.018077
666.8259	0.018012
667.0568	0.016198
667.2878	0.018035
667.5188	0.017599
667.7497	0.015954
667.9807	0.019051
668.2117	0.016658
668.4428	0.016624
668.6738	0.015443
668.9048	0.015970
669.1359	0.015654
669.3669	0.016434
669.5980	0.018354
669.8291	0.016561
670.0602	0.018628
670.2913	0.019556
670.5224	0.018354
670.7535	0.016772
670.9846	0.017573
671.2157	0.018417
671.4469	0.020400
671.6781	0.021708
671.9092	0.024408
672.1404	0.027129
672.3716	0.027424
672.6028	0.028964
672.8340	0.027867
673.0652	0.027298
673.2964	0.024324
673.5277	0.025399
673.7589	0.025083
673.9902	0.025252
674.2214	0.021623
674.4527	0.022615
674.6840	0.022889
674.9153	0.021666
675.1466	0.021961
675.3779	0.022509
675.6093	0.020906
675.8406	0.019809
676.0719	0.020442
676.3033	0.020759
676.5347	0.020527
676.7661	0.020084
676.9974	0.018649
677.2288	0.018734
677.4602	0.019894
677.6917	0.023142
677.9231	0.023079
678.1545	0.023670
678.3860	0.022973
678.6174	0.023585
678.8489	0.022678
679.0804	0.027867
679.3119	0.028036
679.5434	0.027551
679.7749	0.028901
680.0064	0.029471
680.2379	0.028078
680.4694	0.029428
680.7010	0.028142
680.9325	0.025568
681.1641	0.027656
681.3957	0.029302
681.6273	0.029196
681.8589	0.029766
682.0905	0.028606
682.3221	0.028627
682.5537	0.025399
682.7854	0.024049
683.0170	0.024260
683.2487	0.026538
683.4803	0.026370
683.7120	0.025167
683.9437	0.026095
684.1754	0.027129
684.4071	0.028985
684.6388	0.031116
684.8705	0.031517
685.1023	0.032761
685.3340	0.033099
685.5658	0.037929
685.7975	0.036622
686.0293	0.037676
686.2611	0.034280
686.4929	0.036200
686.7247	0.036326
686.9565	0.035314
687.1883	0.032382
687.4202	0.034407
687.6520	0.033099
687.8838	0.033563
688.1157	0.031981
688.3476	0.031010
688.5795	0.029977
688.8114	0.031559
689.0433	0.030778
689.2752	0.030694
689.5071	0.030905
689.7390	0.029154
689.9710	0.028078
690.2029	0.030357
690.4349	0.027783
690.6669	0.028711
690.8988	0.027973
691.1308	0.031179
691.3628	0.029407
691.5948	0.030335
691.8269	0.030652
692.0589	0.031074
692.2909	0.029555
692.5230	0.030483
692.7550	0.029871
692.9871	0.032192
693.2192	0.030314
693.4513	0.033732
693.6834	0.030821
693.9155	0.031264
694.1476	0.028458
694.3797	0.027424
694.6119	0.028669
694.8440	0.028121
695.0762	0.027403
695.3083	0.028732
695.5405	0.026201
695.7727	0.026433
696.0049	0.026496
696.2371	0.024028
696.4693	0.024450
696.7016	0.029660
696.9338	0.032171
697.1660	0.031580
697.3983	0.031707
697.6306	0.029787
697.8628	0.032698
698.0951	0.031812
698.3274	0.030905
698.5597	0.029745
698.7920	0.029302
699.0243	0.029555
699.2567	0.030146
699.4890	0.030736
699.7214	0.028880
699.9537	0.027277
700.1861	0.027213
700.4185	0.024830
700.6509	0.024408
700.8833	0.023627
701.1157	0.021370
701.3481	0.024999
701.5806	0.022109
701.8130	0.023416
702.0454	0.024197
702.2779	0.023965
702.5104	0.027213
702.7429	0.025167
702.9753	0.023290
703.2078	0.022931
703.4403	0.024914
703.6729	0.023796
703.9054	0.022130
704.1379	0.021898
704.3705	0.021898
704.6030	0.022552
704.8356	0.022003
705.0682	0.020737
705.3008	0.019198
705.5334	0.018670
705.7660	0.019050
705.9986	0.020569
706.2312	0.021687
706.4638	0.025273
706.6965	0.028585
706.9291	0.028437
707.1618	0.031496
707.3945	0.031074
707.6272	0.031580
707.8599	0.030989
708.0926	0.032023
708.3253	0.031010
708.5580	0.030462
708.7907	0.030631
709.0235	0.029281
709.2562	0.029639
709.4890	0.026981
709.7217	0.028289
709.9545	0.025336
710.1873	0.026813
710.4201	0.027804
710.6529	0.027551
710.8857	0.029281
711.1186	0.025800
711.3514	0.025779
711.5842	0.026454
711.8171	0.025442
712.0500	0.022214
712.2828	0.023754
712.5157	0.025463
712.7486	0.024239
712.9815	0.022973
713.2144	0.024429
713.4474	0.025231
713.6803	0.027593
713.9132	0.029070
714.1462	0.028669
714.3791	0.029386
714.6121	0.029154
714.8451	0.028015
715.0781	0.029091
715.3111	0.028374
715.5441	0.029492
715.7771	0.026011
716.0102	0.026686
716.2432	0.025336
716.4762	0.026201
716.7093	0.024408
716.9424	0.023691
717.1754	0.022552
717.4085	0.023459
717.6416	0.021898
717.8747	0.024155
718.1078	0.024851
718.3410	0.022995
718.5741	0.023248
718.8072	0.022699
719.0404	0.022973
719.2736	0.025167
719.5067	0.024682
719.7399	0.023311
719.9731	0.024703
720.2063	0.022910
720.4395	0.023416
720.6727	0.023142
720.9060	0.024914
721.1392	0.025442
721.3725	0.023311
721.6057	0.024999
721.8390	0.024324
722.0723	0.024830
722.3055	0.024661
722.5388	0.022952
722.7721	0.019873
723.0055	0.022235
723.2388	0.024113
723.4721	0.022130
723.7055	0.022678
723.9388	0.022298
724.1722	0.023374
724.4056	0.023332
724.6389	0.020759
724.8723	0.024113
725.1057	0.022383
725.3391	0.026897
725.5726	0.027213
725.8060	0.026560
726.0394	0.028226
726.2729	0.028289
726.5063	0.026623
726.7398	0.027699
726.9733	0.026454
727.2068	0.026707
727.4403	0.025610
727.6738	0.027741
727.9073	0.027994
728.1408	0.028585
728.3743	0.028458
728.6079	0.028416
728.8414	0.028353
729.0750	0.028964
729.3086	0.028353
729.5421	0.031432
729.7757	0.027846
730.0093	0.028880
730.2429	0.030272
730.4766	0.030863
730.7102	0.034618
730.9438	0.034618
731.1775	0.038225
731.4111	0.033943
731.6448	0.036411
731.8785	0.035989
732.1122	0.033795
732.3458	0.032002
732.5795	0.034027
732.8133	0.037149
733.0470	0.036474
733.2807	0.034153
733.5145	0.037149
733.7482	0.036622
733.9820	0.038119
734.2157	0.041515
734.4495	0.042612
734.6833	0.042064
734.9171	0.039976
735.1509	0.038731
735.3847	0.039406
735.6185	0.040355
735.8524	0.041621
736.0862	0.039174
736.3201	0.039596
736.5539	0.041136
736.7878	0.038858
737.0217	0.038372
737.2556	0.039511
737.4895	0.039174
737.7234	0.036811
737.9573	0.036221
738.1912	0.033943
738.4252	0.033542
738.6591	0.031685
738.8931	0.033521
739.1271	0.036622
739.3610	0.036284
739.5950	0.037929
739.8290	0.037086
740.0630	0.035714
740.2970	0.034069
740.5310	0.033816
740.7651	0.032445
740.9991	0.032297
741.2332	0.028648
741.4672	0.029766
741.7013	0.028015
741.9354	0.026939
742.1695	0.027277
742.4036	0.027445
742.6377	0.028753
742.8718	0.028226
743.1059	0.026939
743.3400	0.026370
743.5742	0.024872
743.8083	0.025568
744.0425	0.023353
744.2767	0.025273
744.5108	0.025505
744.7450	0.025505
744.9792	0.023079
745.2134	0.023438
745.4477	0.023543
745.6819	0.024260
745.9161	0.021877
746.1504	0.021581
746.3846	0.023501
746.6189	0.022805
746.8532	0.024007
747.0874	0.023353
747.3217	0.026686
747.5560	0.024999
747.7903	0.023838
748.0247	0.023332
748.2590	0.022678
748.4933	0.023353
748.7277	0.022805
748.9620	0.022003
749.1964	0.023416
749.4308	0.026264
749.6652	0.029344
749.8995	0.028817
750.1339	0.030462
750.3684	0.032192
750.6028	0.031580
750.8372	0.031580
751.0717	0.032044
751.3061	0.029956
751.5406	0.032951
751.7750	0.032867
752.0095	0.033225
752.2440	0.032782
752.4785	0.032339
752.7130	0.030989
752.9475	0.031010
753.1820	0.028985
753.4166	0.029133
753.6511	0.032761
753.8856	0.035525
754.1202	0.033858
754.3548	0.032719
754.5894	0.032234
754.8239	0.031348
755.0585	0.029850
755.2931	0.034491
755.5278	0.033985
755.7624	0.034850
755.9970	0.034217
756.2317	0.039490
756.4663	0.038140
756.7010	0.041558
756.9356	0.041115
757.1703	0.043013
757.4050	0.045692
757.6397	0.047253
757.8744	0.049067
758.1091	0.046430
758.3438	0.046747
758.5786	0.042275
758.8133	0.045418
759.0481	0.043245
759.2828	0.046873
759.5176	0.047865
759.7524	0.049194
759.9872	0.047591
760.2220	0.051345
760.4568	0.051831
760.6916	0.050080
760.9264	0.052906
761.1613	0.051430
761.3961	0.048687
761.6310	0.046979
761.8658	0.043899
762.1007	0.040925
762.3356	0.040651
762.5705	0.039490
762.8054	0.036622
763.0403	0.040397
763.2752	0.039111
763.5101	0.041515
763.7450	0.038415
763.9800	0.041790
764.2149	0.041220
764.4499	0.045840
764.6849	0.047084
764.9198	0.048160
765.1548	0.046557
765.3898	0.045376
765.6248	0.045692
765.8599	0.042444
766.0949	0.041642
766.3299	0.038900
766.5650	0.036157
766.8000	0.033099
767.0351	0.034048
767.2701	0.030272
767.5052	0.029935
767.7403	0.030209
767.9754	0.034111
768.2105	0.033352
768.4456	0.036685
768.6808	0.038014
768.9159	0.041811
769.1510	0.041811
769.3862	0.038879
769.6214	0.038119
769.8565	0.038752
770.0917	0.037887
770.3269	0.037740
770.5621	0.039174
770.7973	0.036854
771.0325	0.041051
771.2677	0.041642
771.5030	0.039511
771.7382	0.037360
771.9735	0.036537
772.2087	0.034702
772.4440	0.032761
772.6793	0.033035
772.9146	0.032445
773.1499	0.032867
773.3852	0.033964
773.6205	0.031053
773.8558	0.030567
774.0911	0.030061
774.3265	0.027551
774.5618	0.026665
774.7972	0.027678
775.0326	0.025927
775.2679	0.023332
775.5033	0.023311
775.7387	0.022847
775.9741	0.024661
776.2095	0.021602
776.4450	0.020780
776.6804	0.023227
776.9158	0.019788
777.1513	0.021054
777.3868	0.019240
777.6222	0.021202
777.8577	0.021666
778.0932	0.019809
778.3287	0.020569
778.5642	0.023712
778.7997	0.023564
779.0352	0.024619
779.2707	0.023859
779.5063	0.025737
779.7418	0.025800
779.9774	0.024556
780.2130	0.024028
780.4485	0.023754
780.6841	0.023775
780.9197	0.026602
781.1553	0.027066
781.3909	0.028985
781.6265	0.028563
781.8622	0.029787
782.0978	0.029703
782.3335	0.028859
782.5691	0.028458
782.8048	0.026686
783.0405	0.028121
783.2761	0.027888
783.5118	0.028395
783.7475	0.030167
783.9832	0.027403
784.2190	0.026370
784.4547	0.024113
784.6904	0.024492
784.9262	0.023564
785.1619	0.024640
785.3977	0.024577
785.6335	0.024767
785.8692	0.022889
786.1050	0.021750
786.3408	0.023627
786.5766	0.025294
786.8124	0.021265
787.0483	0.023037
787.2841	0.022889
787.5199	0.024999
787.7558	0.026897
787.9917	0.024218
788.2275	0.024724
788.4634	0.024345
788.6993	0.024935
788.9352	0.026496
789.1711	0.023881
789.4070	0.025990
789.6429	0.022467
789.8789	0.023079
790.1148	0.021518
790.3507	0.020252
790.5867	0.020273
790.8227	0.020505
791.0586	0.019029
791.2946	0.019535
791.5306	0.020948
791.7666	0.020632
792.0026	0.018459
792.2387	0.020126
792.4747	0.017489
792.7107	0.017489
792.9468	0.018037
793.1828	0.018501
793.4189	0.019008
793.6550	0.019809
793.8910	0.022425
794.1271	0.024471
794.3632	0.025020
794.5993	0.025020
794.8355	0.026032
795.0716	0.029745
795.3077	0.025568
795.5439	0.025420
795.7800	0.022172
796.0162	0.022024
796.2523	0.021180
796.4885	0.020168
796.7247	0.017721
796.9609	0.017742
797.1971	0.017067
797.4333	0.017531
797.6695	0.018902
797.9058	0.019198
798.1420	0.019746
798.3783	0.018016
798.6145	0.019261
798.8508	0.019514
799.0871	0.018101
799.3233	0.018544
799.5596	0.018312
799.7959	0.017679
800.0322	0.017088
800.2686	0.016730
800.5049	0.017004
800.7412	0.017531
800.9776	0.014852
801.2139	0.016877
801.4503	0.014789
801.6867	0.014072
801.9230	0.014662
802.1594	0.013692
802.3958	0.013819
802.6322	0.014557
802.8686	0.013101
803.1051	0.014367
803.3415	0.015696
803.5779	0.015063
803.8144	0.013439
804.0508	0.012701
804.2873	0.013587
804.5238	0.013819
804.7603	0.013333
804.9968	0.014198
805.2333	0.013629
805.4698	0.013354
805.7063	0.014093
805.9428	0.015316
806.1794	0.019198
806.4159	0.016012
806.6525	0.020927
806.8890	0.019071
807.1256	0.019915
807.3622	0.019641
807.5988	0.016055
807.8354	0.018523
808.0720	0.017911
808.3086	0.019430
808.5452	0.017594
808.7818	0.019704
809.0185	0.018607
809.2551	0.017426
809.4918	0.018101
809.7284	0.018501
809.9651	0.016941
810.2018	0.016519
810.4385	0.015823
810.6752	0.014937
810.9119	0.016012
811.1486	0.015042
811.3853	0.015295
811.6221	0.016308
811.8588	0.013523
812.0956	0.012911
812.3323	0.013734
812.5691	0.010064
812.8059	0.011604
813.0427	0.010675
813.2795	0.011414
813.5163	0.012827
813.7531	0.013650
813.9899	0.014114
814.2267	0.014451
814.4636	0.015000
814.7004	0.015823
814.9373	0.015126
815.1742	0.014536
815.4110	0.012152
815.6479	0.013080
815.8848	0.012848
816.1217	0.011751
816.3586	0.010886
816.5955	0.011097
816.8324	0.010781
817.0694	0.011962
817.3063	0.012637
817.5433	0.012616
817.7802	0.011097
818.0172	0.011878
818.2542	0.010507
818.4912	0.011435
818.7282	0.009958
818.9652	0.011013
819.2022	0.011076
819.4392	0.010570
819.6762	0.009473
819.9133	0.009283
820.1503	0.011372
820.3874	0.011034
820.6244	0.011224
820.8615	0.011730
821.0986	0.013228
821.3357	0.013734
821.5727	0.012785
821.8099	0.010570
822.0470	0.009389
822.2841	0.011793
822.5212	0.011351
822.7584	0.011245
822.9955	0.010549
823.2327	0.010043
823.4698	0.008735
823.7070	0.008566
823.9442	0.007807
824.1814	0.008967
824.4186	0.010401
824.6558	0.009072
824.8930	0.008334
825.1302	0.008060
825.3675	0.011161
825.6047	0.011962
825.8419	0.010190
826.0792	0.010718
826.3165	0.010401
826.5537	0.009768
826.7910	0.009726
827.0283	0.009220
827.2656	0.012933
827.5029	0.011878
827.7402	0.010908
827.9776	0.012616
828.2149	0.011561
828.4522	0.008882
828.6896	0.009283
828.9270	0.010697
829.1643	0.010359
829.4017	0.010507
829.6391	0.009642
829.8765	0.010148
830.1139	0.009220
830.3513	0.009009
830.5887	0.006646
830.8261	0.007554
831.0636	0.007870
831.3010	0.007554
831.5385	0.007743
831.7759	0.006731
832.0134	0.005718
832.2509	0.006984
832.4884	0.007111
832.7259	0.006414
832.9634	0.007596
833.2009	0.007427
833.4384	0.006900
833.6759	0.007828
833.9135	0.007975
834.1510	0.008018
834.3886	0.009347
834.6261	0.010380
834.8637	0.008777
835.1013	0.008461
835.3389	0.006668
835.5765	0.008503
835.8141	0.008207
836.0517	0.008608
836.2893	0.008250
836.5269	0.007912
836.7646	0.008123
837.0022	0.005697
837.2399	0.006225
837.4775	0.006478
837.7152	0.006646
837.9529	0.006372
838.1906	0.004896
838.4283	0.006689
838.6660	0.004875
838.9037	0.005318
839.1414	0.005191
839.3791	0.005128
839.6169	0.006203
839.8546	0.005845
840.0924	0.006035
840.3302	0.007870
840.5679	0.006056
840.8057	0.007364
841.0435	0.004769
841.2813	0.006035
841.5191	0.002702
841.7569	0.005149
841.9947	0.005128
842.2326	0.006288
842.4704	0.005128
842.7082	0.005634
842.9461	0.004157
843.1840	0.002997
843.4218	0.002554
843.6597	0.004875
843.8976	0.004748
844.1355	0.004685
844.3734	0.004579
844.6113	0.003778
844.8492	0.003757
845.0872	0.004178
845.3251	0.002702
845.5631	0.005254
845.8010	0.003946
846.0390	0.004178
846.2770	0.004242
846.5149	0.003735
846.7529	0.003166
846.9909	0.004178
847.2289	0.003967
847.4669	0.003841
847.7050	0.005550
847.9430	0.004811
848.1810	0.003208
848.4191	0.003503
848.6571	0.005465
848.8952	0.003356
849.1333	0.003503
849.3713	0.005149
849.6094	0.003461
849.8475	0.003166
850.0856	0.001774
850.3237	0.003862
850.5619	0.005486
850.8000	0.002871
851.0381	0.004432
851.2763	0.003799
851.5144	0.003946
851.7526	0.004980
851.9908	0.002934
852.2289	0.004896
852.4671	0.006182
852.7053	0.007343
852.9435	0.006499
853.1817	0.010000
853.4200	0.009515
853.6582	0.011118
853.8964	0.012764
854.1347	0.009895
854.3729	0.011688
854.6112	0.013291
854.8495	0.012490
855.0877	0.012595
855.3260	0.011203
855.5643	0.010211
855.8026	0.009600
856.0409	0.010760
856.2792	0.010422
856.5176	0.011414
856.7559	0.010022
856.9942	0.010317
857.2326	0.009283
857.4710	0.008207
857.7093	0.009473
857.9477	0.010401
858.1861	0.007469
858.4245	0.009030
858.6629	0.008018
858.9013	0.007807
859.1397	0.007132
859.3781	0.008587
859.6166	0.007406
859.8550	0.009389
860.0935	0.005571
860.3319	0.005739
860.5704	0.004664
860.8089	0.006098
861.0473	0.005571
861.2858	0.006372
861.5243	0.005085
861.7628	0.004537
862.0013	0.005950
862.2399	0.005022
862.4784	0.004938
862.7169	0.004896
862.9555	0.003820
863.1940	0.005824
863.4326	0.006182
863.6712	0.006773
863.9098	0.005950
864.1483	0.004516
864.3869	0.005423
864.6255	0.005254
864.8642	0.005718
865.1028	0.004811
865.3414	0.004347
865.5800	0.004832
865.8187	0.003503
866.0573	0.004305
866.2960	0.003503
866.5347	0.005676
866.7733	0.004537
867.0120	0.004432
867.2507	0.004115
867.4894	0.004326
867.7281	0.002765
867.9669	0.003778
868.2056	0.003398
868.4443	0.005550
868.6831	0.004980
868.9218	0.005718
869.1606	0.003082
869.3993	0.003904
869.6381	0.002217
869.8769	0.004221
870.1157	0.004516
870.3545	0.003757
870.5933	0.004010
870.8321	0.004643
871.0709	0.005613
871.3097	0.005191
871.5486	0.003862
871.7874	0.004010
872.0263	0.003925
872.2651	0.004853
872.5040	0.003925
872.7429	0.004516
872.9818	0.003778
873.2207	0.004157
873.4596	0.004685
873.6985	0.004643
873.9374	0.003546
874.1763	0.003904
874.4153	0.003103
874.6542	0.005486
874.8932	0.003735
875.1321	0.004832
875.3711	0.007554
875.6101	0.005170
875.8491	0.004685
876.0880	0.004474
876.3270	0.005550
876.5661	0.004811
876.8051	0.006014
877.0441	0.003967
877.2831	0.005950
877.5222	0.003967
877.7612	0.006815
878.0003	0.004263
878.2393	0.005001
878.4784	0.005022
878.7175	0.005866
878.9566	0.005676
879.1957	0.006098
879.4348	0.005001
879.6739	0.004748
879.9130	0.006963
880.1521	0.006562
880.3913	0.006351
880.6304	0.007321
880.8696	0.005085
881.1087	0.006309
881.3479	0.006014
881.5871	0.006309
881.8262	0.005803
882.0654	0.007153
882.3046	0.004853
882.5438	0.005993
882.7831	0.004200
883.0223	0.004305
883.2615	0.005001
883.5007	0.005296
883.7400	0.004896
883.9792	0.004685
884.2185	0.005613
884.4578	0.005697
884.6971	0.005613
884.9363	0.006098
885.1756	0.004579
885.4149	0.004811
885.6542	0.005128
885.8936	0.005318
886.1329	0.004432
886.3722	0.006225
886.6116	0.004157
886.8509	0.004706
887.0903	0.004853
887.3296	0.004326
887.5690	0.004917
887.8084	0.005191
888.0478	0.003946
888.2872	0.004621
888.5266	0.003588
888.7660	0.004221
889.0054	0.003525
889.2448	0.005001
889.4843	0.004727
889.7237	0.004621
889.9632	0.002976
890.2026	0.002997
890.4421	0.004495
890.6816	0.003292
890.9211	0.001394
891.1606	0.003377
891.4001	0.004094
891.6396	0.004178
891.8791	0.003693
892.1186	0.004495
892.3581	0.003672
892.5977	0.002849
892.8372	0.003377
893.0768	0.004495
893.3163	0.005676
893.5559	0.004453
893.7955	0.003145
894.0351	0.003440
894.2747	0.003588
894.5143	0.002892
894.7539	0.003208
894.9935	0.004326
895.2331	0.003166
895.4727	0.003060
895.7124	0.003672
895.9520	0.004537
896.1917	0.003735
896.4314	0.003778
896.6710	0.004389
896.9107	0.003250
897.1504	0.004410
897.3901	0.004326
897.6298	0.003229
897.8695	0.005296
898.1092	0.003208
898.3489	0.004432
898.5887	0.004474
898.8284	0.004347
899.0682	0.004474
899.3079	0.002512
899.5477	0.003525
899.7875	0.003060
900.0272	0.004200
900.2670	0.004495
900.5068	0.002660
900.7466	0.002807
900.9864	0.003862
901.2263	0.003630
901.4661	0.003503
901.7059	0.004685
901.9458	0.002913
902.1856	0.003820
902.4255	0.002892
902.6654	0.003166
902.9052	0.003799
903.1451	0.004474
903.3850	0.002385
903.6249	0.003883
903.8648	0.002238
904.1047	0.002955
904.3446	0.002090
904.5846	0.003356
904.8245	0.003166
905.0644	0.005212
905.3044	0.003883
905.5444	0.004432
905.7843	0.004073
906.0243	0.004621
906.2643	0.002153
906.5043	0.002744
906.7443	0.002491
906.9843	0.004432
907.2243	0.003377
907.4643	0.003630
907.7043	0.004200
907.9444	0.004221
908.1844	0.002090
908.4245	0.002765
908.6645	0.001921
908.9046	0.003588
909.1447	0.003314
909.3847	0.002849
909.6248	0.002976
909.8649	0.002639
910.1050	0.001668
910.3452	0.002807
910.5853	0.003208
910.8254	0.004664
911.0655	0.003124
911.3057	0.002512
911.5458	0.003250
911.7860	0.002301
912.0262	0.003672
912.2663	0.002280
912.5065	0.003419
912.7467	0.003946
912.9869	0.004537
913.2271	0.002997
913.4673	0.002976
913.7075	0.001816
913.9478	0.002449
914.1880	0.002575
914.4283	0.004010
914.6685	0.002533
914.9088	0.002322
915.1490	0.001900
915.3893	0.002723
915.6296	0.002428
915.8699	0.002786
916.1102	0.001415
916.3505	0.003735
916.5908	0.003672
916.8311	0.001858
917.0714	0.003883
917.3118	0.003208
917.5521	0.002111
917.7925	0.004094
918.0328	0.002533
918.2732	0.001985
918.5136	0.003503
918.7539	0.003883
918.9943	0.003335
919.2347	0.001668
919.4751	0.002744
919.7155	0.004474
919.9560	0.003229
920.1964	0.002849
920.4368	0.003567
920.6773	0.003672
920.9177	0.003461
921.1582	0.003271
921.3986	0.005528
921.6391	0.002132
921.8796	0.002048
922.1201	0.002976
922.3606	0.003145
922.6011	0.002554
922.8416	0.003292
923.0821	0.002280
923.3226	0.003461
923.5631	0.002196
923.8037	0.001879
924.0442	0.003060
924.2848	0.003778
924.5254	0.001499
924.7659	0.002575
925.0065	0.002533
925.2471	0.002786
925.4877	0.003018
925.7283	0.002512
925.9689	0.001478
926.2095	0.003124
926.4501	0.000782
926.6908	0.001964
926.9314	0.000846
927.1720	0.001921
927.4127	0.001668
927.6533	0.002871
927.8940	0.001521
928.1347	0.002596
928.3754	0.001816
928.6161	0.001647
928.8568	0.001647
929.0975	0.002322
929.3382	0.002259
929.5789	0.003145
929.8196	0.002153
930.0604	0.003187
930.3011	0.001900
930.5419	0.001204
930.7826	0.000993
931.0234	0.001668
931.2642	0.001921
931.5049	0.001985
931.7457	0.000740
931.9865	0.002111
932.2273	0.002048
932.4681	0.001394
932.7089	0.001436
932.9498	0.002512
933.1906	0.001478
933.4314	0.002217
933.6723	-0.000062
933.9131	0.000909
934.1540	0.001457
934.3949	0.002153
934.6358	0.001521
934.8766	0.002512
935.1175	0.000466
935.3584	0.002259
935.5993	0.000930
935.8403	0.002554
936.0812	0.002892
936.3221	0.001204
936.5630	0.001521
936.8040	0.000719
937.0449	0.001921
937.2859	0.001921
937.5269	0.002069
937.7678	0.002575
938.0088	0.000403
938.2498	0.000255
938.4908	0.000782
938.7318	0.001626
938.9728	0.002744
939.2138	0.000466
939.4549	0.001521
939.6959	0.000381
939.9369	0.001310
940.1780	0.000993
940.4190	0.001120
940.6601	0.000824
940.9012	0.001267
941.1422	0.001120
941.3833	0.000592
941.6244	0.000613
941.8655	0.001141
942.1066	0.001921
942.3477	0.002069
942.5889	0.000613
942.8300	0.002048
943.0711	0.001078
943.3123	0.000803
943.5534	0.001478
943.7946	0.000698
944.0357	0.000930
944.2769	0.000149
944.5181	0.001014
944.7593	0.002174
945.0005	0.002027
945.2417	0.002871
945.4829	0.000867
945.7241	0.000550
945.9653	0.000824
946.2066	0.002027
946.4478	0.001141
946.6891	0.001225
946.9303	0.002322
947.1716	0.001035
947.4128	0.000719
947.6541	-0.000040
947.8954	0.001436
948.1367	-0.000800
948.3780	0.001035
948.6193	0.001731
948.8606	-0.000083
949.1019	0.001668
949.3433	0.000613
949.5846	-0.000568
949.8259	0.001162
950.0673	0.000550
950.3086	0.001394
950.5500	-0.000104
950.7914	-0.000230
951.0327	-0.000462
951.2741	-0.000019
951.5155	0.000740
951.7569	0.000613
951.9983	0.001457
952.2398	-0.000589
952.4812	0.001056
952.7226	0.002554
952.9640	0.002470
953.2055	0.000571
953.4469	0.002533
953.6884	0.001563
953.9299	0.001289
954.1713	0.001014
954.4128	0.002259
954.6543	0.001035
954.8958	0.000339
955.1373	-0.000715
955.3788	0.003377
955.6203	0.001099
955.8618	0.001668
956.1034	0.001289
956.3449	0.000086
956.5865	0.002111
956.8280	0.001078
957.0696	0.001035
957.3111	0.000635
957.5527	0.000276
957.7943	0.001415
958.0359	0.000550
958.2775	0.000234
958.5191	0.000002
958.7607	0.000571
959.0023	0.000276
959.2439	0.000846
959.4856	0.001289
959.7272	0.002048
959.9688	0.000065
960.2105	0.000487
960.4522	0.000698
960.6938	-0.000336
960.9355	0.000107
961.1772	0.000381
961.4189	-0.000441
961.6606	0.000592
961.9023	-0.000441
962.1440	0.000824
962.3857	-0.000947
962.6274	-0.000294
962.8692	0.000550
963.1109	0.000276
963.3527	0.000740
963.5944	-0.000083
963.8362	0.000255
964.0779	0.001542
964.3197	-0.000104
964.5615	0.001457
964.8033	0.001626
965.0451	0.000824
965.2869	0.001542
965.5287	0.001352
965.7705	0.000761
966.0123	-0.000294
966.2542	0.001331
966.4960	0.001141
966.7379	0.000635
966.9797	0.000803
967.2216	-0.000863
967.4634	0.001647
967.7053	0.000487
967.9472	0.000677
968.1891	0.000128
968.4310	0.000972
968.6729	0.000888
968.9148	0.000192
969.1567	-0.000188
969.3987	0.001647
969.6406	0.001753
969.8825	0.000213
970.1245	0.001014
970.3664	0.000951
970.6084	0.000782
970.8504	0.001352
971.0923	0.002744
971.3343	0.000318
971.5763	0.000592
971.8183	0.000128
972.0603	-0.000125
972.3023	0.000909
972.5443	-0.000905
972.7864	0.001542
973.0284	0.000360
973.2704	0.000909
973.5125	0.000740
973.7545	-0.000188
973.9966	0.000171
974.2387	0.000297
974.4807	0.000044
974.7228	0.000044
974.9649	-0.000272
975.2070	-0.000694
975.4491	0.000297
975.6912	0.000445
975.9333	0.001394
976.1755	0.000993
976.4176	0.001014
976.6597	0.000571
976.9019	-0.000209
977.1440	-0.000272
977.3862	0.000656
977.6283	0.000149
977.8705	0.000761
978.1127	0.000803
978.3549	0.000297
978.5971	0.001078
978.8393	0.000086
979.0815	-0.000378
979.3237	0.000677
979.5659	0.000403
979.8082	0.001605
980.0504	-0.000610
980.2926	0.001204
980.5349	0.000339
980.7771	0.000002
981.0194	-0.000547
981.2617	0.000424
981.5040	0.001267
981.7462	-0.000673
981.9885	0.000656
982.2308	-0.000146
982.4731	0.001310
982.7155	0.000445
982.9578	-0.000146
983.2001	0.000171
983.4424	0.000571
983.6848	-0.000062
983.9271	0.001099
984.1695	-0.000483
984.4118	0.000909
984.6542	0.000972
984.8966	0.000803
985.1390	0.000107
985.3814	0.000318
985.6238	-0.000315
985.8662	0.001162
986.1086	0.000613
986.3510	0.001099
986.5934	-0.000294
986.8358	0.000613
987.0783	0.001900
987.3207	0.001879
987.5632	0.000065
987.8056	0.000909
988.0481	-0.000610
988.2906	0.000107
988.5331	-0.000104
988.7756	0.001647
989.0180	0.000339
989.2605	0.000719
989.5031	0.000023
989.7456	0.001710
989.9881	-0.001053
990.2306	0.000677
990.4732	0.000698
990.7157	0.001099
990.9582	-0.001390
991.2008	0.000360
991.4434	-0.001032
991.6859	0.000192
991.9285	0.000719
992.1711	0.000192
992.4137	-0.000230
992.6563	-0.000104
992.8989	-0.000167
993.1415	0.001099
993.3841	-0.000357
993.6267	0.000592
993.8694	0.000318
994.1120	0.001310
994.3547	0.001078
994.5973	0.001078
994.8400	-0.000737
995.0826	0.000487
995.3253	-0.000800
995.5680	-0.000694
995.8107	0.001584
996.0534	0.000571
996.2961	0.000550
996.5388	0.000550
996.7815	0.001879
997.0242	0.000107
997.2670	-0.000821
997.5097	-0.000399
997.7524	0.000023
997.9952	0.001099
998.2379	0.000529
998.4807	0.000550
998.7235	0.000846
998.9662	0.001647
999.2090	0.000403
999.4518	0.000192
999.6946	0.001710
999.9374	0.000044
1000.1802	0.000846
1000.4230	-0.001116
1000.6659	-0.000146
1000.9087	0.000867
1001.1515	0.000065
1001.3944	-0.000779
1001.6372	0.000023
1001.8801	-0.001074
1002.1230	0.002132
1002.3658	-0.000062
1002.6087	-0.000505
1002.8516	0.000782
1003.0945	0.000234
1003.3374	-0.000441
1003.5803	0.000466
1003.8232	-0.000568
1004.0661	0.000023
1004.3091	-0.001074
1004.5520	0.000951
1004.7949	-0.000990
1005.0379	0.000993
1005.2808	0.000803
1005.5238	0.001141
1005.7667	-0.000568
1006.0097	0.000824
1006.2527	0.000508
1006.4957	0.001436
1006.7387	-0.000420
1006.9817	-0.000800
1007.2247	-0.000188
1007.4677	0.000656
1007.7107	0.000107
1007.9538	0.001373
1008.1968	-0.000652
1008.4398	0.000213
1008.6829	0.000445
1008.9259	0.000381
1009.1690	0.000698
1009.4121	0.001225
1009.6551	0.002681
1009.8982	0.001584
1010.1413	0.000360
1010.3844	0.001499
1010.6275	0.000318
1010.8706	-0.000779
1011.1137	-0.000209
1011.3568	0.000360
1011.6000	-0.000104
1011.8431	-0.000399
1012.0863	0.001246
1012.3294	0.000993
1012.5726	0.000234
1012.8157	-0.000294
1013.0589	0.001014
1013.3021	-0.000905
1013.5452	-0.000209
1013.7884	-0.000483
1014.0316	-0.000526
1014.2748	-0.000167
1014.5180	-0.000167
1014.7613	0.001141
1015.0045	0.001056
1015.2477	0.000571
1015.4909	-0.000167
1015.7342	0.000002
1015.9774	0.000107
1016.2207	-0.000505
1016.4640	0.001373
1016.7072	-0.000040
1016.9505	0.000023
1017.1938	-0.000715
1017.4371	0.000972
1017.6804	-0.000040
1017.9237	-0.000441
1018.1670	-0.000104
1018.4103	-0.000715
1018.6536	-0.000315
1018.8969	-0.000083
1019.1403	0.001014
1019.3836	-0.000652
1019.6270	-0.000104
1019.8703	0.000445
1020.1137	0.000487
1020.3571	-0.001116
1020.6004	0.000276
1020.8438	0.001056
1021.0872	0.000613
1021.3306	0.000529
1021.5740	0.000234
1021.8174	-0.000779
1022.0608	0.000740
1022.3042	-0.000568
1022.5477	0.000381
1022.7911	0.000192
1023.0345	-0.000125
