# Wavelength (nm)	Intensity (a.u.)
197.7802	0.000933
197.9842	-0.000058
198.1882	0.000617
198.3922	-0.000142
198.5963	0.000490
198.8003	-0.001028
199.0044	0.001017
199.2085	0.001144
199.4126	0.001755
199.6168	-0.000079
199.8209	0.001671
200.0251	0.001819
200.2292	0.001207
200.4334	0.000680
200.6376	0.001798
200.8418	0.000575
201.0461	0.000385
201.2503	0.000090
201.4546	0.001017
201.6589	0.000785
201.8631	0.000216
202.0674	0.000575
202.2718	0.001755
202.4761	0.000617
202.6805	0.000891
202.8848	0.001481
203.0892	0.001608
203.2936	0.000427
203.4980	0.001903
203.7024	-0.000712
203.9069	0.000764
204.1113	0.000722
204.3158	0.001123
204.5203	-0.000184
204.7248	0.000069
204.9293	-0.000374
205.1338	0.001819
205.3384	0.001291
205.5430	0.001523
205.7475	-0.000206
205.9521	0.000975
206.1567	0.000680
206.3614	0.001144
206.5660	-0.000037
206.7706	0.002620
206.9753	0.000870
207.1800	0.000975
207.3847	0.001502
207.5894	0.001123
207.7941	-0.000037
207.9989	0.001313
208.2036	0.000722
208.4084	0.000722
208.6132	0.001523
208.8180	0.001671
209.0228	0.000828
209.2276	0.001629
209.4325	0.000237
209.6373	0.001060
209.8422	0.001334
210.0471	-0.000037
210.2520	0.000026
210.4569	0.000596
210.6618	0.000575
210.8668	0.000532
211.0718	0.000279
211.2767	0.001249
211.4817	-0.000374
211.6867	0.001629
211.8918	-0.000880
212.0968	0.001966
212.3018	-0.001850
212.5069	0.000996
212.7120	-0.000163
212.9171	0.001228
213.1222	-0.000585
213.3273	0.000111
213.5325	0.000933
213.7376	0.000322
213.9428	0.000090
214.1480	-0.000290
214.3532	0.000195
214.5584	0.001313
214.7636	-0.000543
214.9689	0.001017
215.1741	0.000490
215.3794	0.000743
215.5847	-0.000522
215.7900	0.001038
215.9953	0.000026
216.2007	-0.000037
216.4060	0.001017
216.6114	0.000596
216.8168	0.001038
217.0222	0.001060
217.2276	0.001966
217.4330	0.001819
217.6384	-0.000480
217.8439	0.000406
218.0494	-0.000311
218.2548	0.000912
218.4603	-0.001597
218.6659	0.000195
218.8714	0.000343
219.0769	0.001903
219.2825	0.000448
219.4881	0.000828
219.6936	-0.000965
219.8992	-0.001049
220.1049	0.001671
220.3105	0.000743
220.5161	0.000638
220.7218	-0.000016
220.9275	0.000469
221.1332	0.001291
221.3389	0.000322
221.5446	0.001924
221.7503	0.001249
221.9561	0.001334
222.1618	0.001102
222.3676	0.001608
222.5734	0.000111
222.7792	0.001397
222.9850	0.000132
223.1909	0.001355
223.3967	0.000617
223.6026	0.001987
223.8085	0.000069
224.0144	0.000322
224.2203	0.000069
224.4262	0.001291
224.6322	0.001376
224.8381	0.000638
225.0441	0.000870
225.2501	0.000575
225.4561	0.000575
225.6621	-0.000227
225.8681	0.001060
226.0742	0.001481
226.2802	0.001228
226.4863	0.000448
226.6924	-0.000184
226.8985	0.001671
227.1046	0.000385
227.3107	0.001650
227.5169	-0.000859
227.7230	0.000764
227.9292	-0.000395
228.1354	-0.000290
228.3416	0.000617
228.5478	0.001334
228.7541	0.000279
228.9603	0.000617
229.1666	-0.000691
229.3729	-0.000459
229.5791	0.000343
229.7855	0.000427
229.9918	0.000490
230.1981	0.000195
230.4045	0.001249
230.6108	0.001650
230.8172	0.000511
231.0236	0.001144
231.2300	0.000195
231.4364	0.000807
231.6429	0.000807
231.8493	0.002156
232.0558	0.000469
232.2623	0.001566
232.4688	-0.000269
232.6753	0.000153
232.8818	-0.000016
233.0884	0.000216
233.2949	0.000322
233.5015	0.001439
233.7081	0.001397
233.9147	0.000764
234.1213	-0.000374
234.3279	0.000553
234.5346	-0.000564
234.7413	0.000680
234.9479	0.000069
235.1546	0.000891
235.3613	0.000153
235.5680	0.003063
235.7748	0.000785
235.9815	0.000912
236.1883	-0.000184
236.3951	0.001270
236.6018	0.000828
236.8087	0.000954
237.0155	-0.000142
237.2223	0.000490
237.4292	0.000216
237.6360	0.002641
237.8429	-0.000627
238.0498	0.002430
238.2567	0.001228
238.4636	0.002451
238.6706	0.000912
238.8775	-0.000248
239.0845	0.000195
239.2915	-0.000669
239.4985	0.000026
239.7055	0.001376
239.9125	0.000448
240.1195	0.002282
240.3266	-0.000395
240.5337	0.000174
240.7407	0.001207
240.9478	0.001038
241.1549	-0.000227
241.3621	-0.000016
241.5692	0.001186
241.7764	-0.001176
241.9835	0.000279
242.1907	0.000195
242.3979	0.001481
242.6051	0.000153
242.8124	0.000659
243.0196	0.001439
243.2269	-0.000501
243.4341	0.000870
243.6414	-0.000058
243.8487	0.001123
244.0560	-0.000016
244.2634	0.000448
244.4707	-0.000016
244.6781	0.001587
244.8854	0.000153
245.0928	0.001566
245.3002	0.000258
245.5076	0.002051
245.7151	-0.000058
245.9225	0.001924
246.1300	0.000322
246.3375	0.001545
246.5449	-0.000648
246.7524	0.001038
246.9600	0.000975
247.1675	0.000343
247.3750	0.000406
247.5826	0.000912
247.7902	0.000005
247.9978	0.001587
248.2054	0.000490
248.4130	0.001334
248.6206	0.000448
248.8283	0.001502
249.0359	0.000026
249.2436	0.001334
249.4513	0.000279
249.6590	0.000701
249.8667	0.001397
250.0745	0.000785
250.2822	0.000617
250.4900	0.000954
250.6978	0.000364
250.9056	-0.000564
251.1134	0.000322
251.3212	0.001038
251.5290	0.001038
251.7369	0.001249
251.9447	-0.000121
252.1526	0.000701
252.3605	0.000343
252.5684	0.000954
252.7763	0.000090
252.9843	0.000659
253.1922	0.000026
253.4002	0.000743
253.6082	0.000933
253.8162	-0.000121
254.0242	0.002472
254.2322	0.001460
254.4402	-0.000311
254.6483	0.000448
254.8564	0.000617
255.0644	0.001755
255.2725	0.000090
255.4806	0.001776
255.6888	0.000680
255.8969	0.001017
256.1051	0.000364
256.3132	0.000532
256.5214	0.000954
256.7296	-0.000438
256.9378	0.000617
257.1460	0.001249
257.3543	-0.001260
257.5625	0.000954
257.7708	0.000090
257.9791	0.000785
258.1874	-0.000459
258.3957	0.000617
258.6040	0.002304
258.8124	0.000891
259.0207	-0.000248
259.2291	0.000195
259.4375	0.000722
259.6459	0.000090
259.8543	0.000912
260.0627	-0.000648
260.2711	0.001355
260.4796	0.000532
260.6881	0.000069
260.8965	0.000722
261.1050	0.000069
261.3135	0.001776
261.5221	0.000153
261.7306	0.002051
261.9392	0.000849
262.1477	0.000195
262.3563	0.000069
262.5649	0.001249
262.7735	-0.000922
262.9822	0.001228
263.1908	0.000575
263.3995	0.000132
263.6081	0.000111
263.8168	0.000427
264.0255	0.000300
264.2342	0.000722
264.4429	0.000511
264.6517	-0.001028
264.8604	0.000047
265.0692	0.001545
265.2780	0.000785
265.4868	0.001081
265.6956	0.000870
265.9044	0.002156
266.1133	0.001418
266.3221	0.001102
266.5310	0.000954
266.7399	0.000195
266.9488	0.001523
267.1577	0.001165
267.3666	-0.000269
267.5755	0.000617
267.7845	-0.000248
267.9935	0.001776
268.2024	0.001608
268.4114	0.000575
268.6205	-0.000079
268.8295	-0.000416
269.0385	0.001355
269.2476	0.000996
269.4566	0.000743
269.6657	0.001355
269.8748	0.001566
270.0839	0.001207
270.2931	-0.000037
270.5022	0.000364
270.7114	-0.000416
270.9205	0.002135
271.1297	0.001861
271.3389	0.000701
271.5481	0.001840
271.7573	0.000153
271.9666	0.000996
272.1758	0.000153
272.3851	0.000575
272.5944	0.001692
272.8037	-0.000522
273.0130	0.000785
273.2223	0.000322
273.4316	0.001882
273.6410	0.000490
273.8504	0.001819
274.0597	0.000785
274.2691	0.001734
274.4785	0.000237
274.6880	0.000532
274.8974	0.000258
275.1069	0.000195
275.3163	0.001102
275.5258	0.000216
275.7353	0.000153
275.9448	-0.000079
276.1543	0.000258
276.3639	0.000701
276.5734	0.000743
276.7830	0.001587
276.9926	0.002198
277.2022	0.000026
277.4118	-0.000142
277.6214	0.000026
277.8310	-0.000058
278.0407	0.001081
278.2503	0.001249
278.4600	0.000785
278.6697	-0.000184
278.8794	-0.000859
279.0891	0.000596
279.2989	0.000069
279.5086	0.000279
279.7184	0.001249
279.9281	0.000575
280.1379	0.002135
280.3477	-0.000459
280.5576	0.001945
280.7674	0.000617
280.9772	0.000511
281.1871	-0.000121
281.3970	0.000195
281.6069	0.000026
281.8168	0.001144
282.0267	0.000828
282.2366	0.001819
282.4466	0.000870
282.6565	0.002072
282.8665	0.000132
283.0765	0.000912
283.2865	0.000807
283.4965	0.001249
283.7065	0.001165
283.9166	-0.000606
284.1266	0.000596
284.3367	0.001081
284.5468	-0.000944
284.7569	0.001376
284.9670	0.000849
285.1771	0.002072
285.3873	0.001439
285.5974	0.001945
285.8076	-0.000585
286.0178	0.000785
286.2280	0.002008
286.4382	-0.000206
286.6484	0.001207
286.8587	0.001017
287.0689	0.000279
287.2792	0.001629
287.4895	-0.000184
287.6998	0.000511
287.9101	0.000575
288.1204	0.001291
288.3308	0.000807
288.5411	-0.001007
288.7515	-0.000248
288.9619	0.000659
289.1723	0.001334
289.3827	0.001481
289.5931	0.001545
289.8035	0.000785
290.0140	-0.000121
290.2245	-0.000016
290.4349	0.000448
290.6454	-0.000332
290.8559	0.000638
291.0665	0.001291
291.2770	0.000364
291.4875	0.000659
291.6981	-0.000037
291.9087	0.001038
292.1193	0.001692
292.3299	0.000764
292.5405	0.001798
292.7511	0.000279
292.9618	0.001270
293.1724	0.001987
293.3831	0.001038
293.5938	0.000258
293.8045	0.000954
294.0152	0.001924
294.2260	0.000153
294.4367	0.000469
294.6475	0.000659
294.8582	0.002367
295.0690	0.000153
295.2798	0.000954
295.4906	-0.000058
295.7015	0.000912
295.9123	-0.000058
296.1232	0.002051
296.3340	0.001081
296.5449	0.000490
296.7558	-0.000058
296.9667	0.001545
297.1777	0.000575
297.3886	0.001650
297.5995	0.000743
297.8105	0.000490
298.0215	0.000153
298.2325	0.000701
298.4435	0.000638
298.6545	-0.000100
298.8656	0.000111
299.0766	0.001334
299.2877	0.000722
299.4988	0.002093
299.7099	0.000912
299.9210	0.000807
300.1321	0.001608
300.3432	0.000870
300.5544	-0.001049
300.7655	-0.000564
300.9767	0.000638
301.1879	0.001629
301.3991	0.000659
301.6103	0.001165
301.8215	0.001481
302.0328	0.001291
302.2441	0.000111
302.4553	0.000322
302.6666	0.000385
302.8779	0.001713
303.0892	0.000511
303.3006	0.001102
303.5119	0.000279
303.7233	0.000532
303.9346	0.001481
304.1460	0.000406
304.3574	0.000680
304.5688	0.001270
304.7803	-0.000227
304.9917	0.001798
305.2031	-0.000501
305.4146	0.001270
305.6261	-0.000142
305.8376	0.001144
306.0491	-0.001154
306.2606	-0.000079
306.4722	0.000722
306.6837	-0.000754
306.8953	-0.000227
307.1069	0.001397
307.3184	0.001418
307.5301	-0.000501
307.7417	0.001460
307.9533	0.001144
308.1650	0.000638
308.3766	0.000828
308.5883	0.000680
308.8000	0.000300
309.0117	0.001249
309.2234	0.001060
309.4351	-0.000016
309.6469	0.001903
309.8586	0.000069
310.0704	0.000617
310.2822	0.000448
310.4940	0.000996
310.7058	0.001270
310.9176	0.000870
311.1295	-0.000585
311.3413	0.000364
311.5532	-0.000480
311.7651	0.001545
311.9770	0.001355
312.1889	0.002198
312.4008	0.001418
312.6127	0.001060
312.8247	0.000385
313.0366	-0.000100
313.2486	0.000195
313.4606	0.001523
313.6726	0.001418
313.8846	0.000785
314.0967	0.000026
314.3087	0.001081
314.5208	0.000005
314.7328	0.001207
314.9449	0.000701
315.1570	0.001671
315.3692	0.000849
315.5813	0.001123
315.7934	0.001228
316.0056	0.000975
316.2177	-0.000100
316.4299	0.000490
316.6421	-0.000058
316.8543	0.000532
317.0666	0.000912
317.2788	0.001313
317.4911	0.001460
317.7033	0.001123
317.9156	-0.000564
318.1279	0.001102
318.3402	0.001313
318.5525	0.000870
318.7649	0.000785
318.9772	0.000132
319.1896	0.000680
319.4019	0.001966
319.6143	0.000891
319.8267	0.001017
320.0392	0.000912
320.2516	-0.000121
320.4640	0.000005
320.6765	0.001587
320.8890	0.000785
321.1014	0.000553
321.3139	0.000638
321.5265	0.001291
321.7390	0.000659
321.9515	0.001376
322.1641	0.000511
322.3766	-0.000079
322.5892	-0.000838
322.8018	-0.000796
323.0144	-0.000585
323.2270	0.001882
323.4397	0.001650
323.6523	0.002261
323.8650	0.001418
324.0777	0.001734
324.2904	0.000511
324.5031	0.002493
324.7158	0.000322
324.9285	0.000153
325.1412	-0.000501
325.3540	0.001291
325.5668	0.000237
325.7796	0.001776
325.9924	0.000764
326.2052	0.002029
326.4180	-0.000374
326.6308	0.000469
326.8437	0.000553
327.0566	0.001460
327.2694	0.000322
327.4823	0.002008
327.6952	0.001798
327.9082	0.001207
328.1211	0.001249
328.3340	0.001081
328.5470	0.000385
328.7600	0.001608
328.9730	0.000912
329.1860	0.000469
329.3990	0.000596
329.6120	0.000659
329.8251	0.001060
330.0381	0.001123
330.2512	-0.000395
330.4643	0.001903
330.6774	0.000364
330.8905	-0.000206
331.1036	0.001439
331.3167	0.000638
331.5299	0.001081
331.7431	0.000111
331.9562	0.002093
332.1694	-0.000416
332.3826	0.001439
332.5959	-0.000501
332.8091	-0.000775
333.0223	0.000996
333.2356	-0.000543
333.4489	0.000870
333.6622	0.000279
333.8755	0.001755
334.0888	0.000722
334.3021	0.000975
334.5154	-0.001154
334.7288	0.000954
334.9422	0.001060
335.1555	0.000617
335.3689	0.000026
335.5823	0.000659
335.7958	-0.000206
336.0092	0.000237
336.2227	0.000195
336.4361	-0.000311
336.6496	0.000174
336.8631	0.000532
337.0766	0.000828
337.2901	0.001713
337.5036	0.001629
337.7172	0.001060
337.9307	0.001376
338.1443	0.000237
338.3579	0.001418
338.5715	0.001882
338.7851	0.001144
338.9987	0.001355
339.2124	0.001671
339.4260	-0.000374
339.6397	0.000638
339.8533	0.000638
340.0670	-0.000142
340.2807	0.001313
340.4945	0.000279
340.7082	0.000427
340.9219	0.000532
341.1357	0.000132
341.3495	0.002430
341.5633	0.000090
341.7771	0.001081
341.9909	0.001755
342.2047	-0.000480
342.4185	0.001481
342.6324	0.000743
342.8463	0.000785
343.0601	-0.000100
343.2740	0.000132
343.4879	0.001882
343.7019	0.001186
343.9158	0.001186
344.1297	0.001313
344.3437	0.001502
344.5577	0.000300
344.7717	0.000448
344.9857	0.001228
345.1997	-0.000585
345.4137	-0.000269
345.6277	0.001334
345.8418	0.002620
346.0559	0.000954
346.2699	0.000195
346.4840	0.000912
346.6981	0.001734
346.9123	0.001882
347.1264	0.001228
347.3406	0.001291
347.5547	0.000511
347.7689	-0.000100
347.9831	0.001439
348.1973	0.000153
348.4115	0.000891
348.6257	0.001270
348.8400	0.001924
349.0542	0.000132
349.2685	0.000069
349.4828	0.000174
349.6971	0.000659
349.9114	-0.000522
350.1257	0.001123
350.3400	0.001566
350.5544	-0.000522
350.7687	0.001186
350.9831	0.000638
351.1975	0.001523
351.4119	0.000553
351.6263	0.000364
351.8407	0.000469
352.0552	0.001376
352.2696	0.000174
352.4841	0.001755
352.6986	0.000807
352.9131	0.001270
353.1276	0.000532
353.3421	0.001165
353.5566	-0.000606
353.7712	0.001692
353.9858	0.001291
354.2003	0.000069
354.4149	0.001713
354.6295	0.001038
354.8441	0.000680
355.0588	0.000511
355.2734	-0.000248
355.4881	0.001566
355.7027	0.000111
355.9174	0.000659
356.1321	-0.000522
356.3468	0.000427
356.5615	0.000680
356.7763	-0.001218
356.9910	0.001692
357.2058	0.000364
357.4206	0.001165
357.6353	0.000638
357.8501	0.000300
358.0650	-0.000691
358.2798	0.001038
358.4946	0.001713
358.7095	0.001713
358.9243	0.001861
359.1392	0.000596
359.3541	0.000638
359.5690	0.000722
359.7839	-0.000227
359.9989	-0.000058
360.2138	0.001207
360.4288	0.001165
360.6438	0.000279
360.8587	0.000680
361.0737	0.001081
361.2888	0.001102
361.5038	0.001313
361.7188	0.000785
361.9339	0.000680
362.1489	0.000849
362.3640	0.001692
362.5791	0.000553
362.7942	0.000300
363.0093	0.000111
363.2245	0.001060
363.4396	0.000870
363.6548	-0.000016
363.8699	0.000511
364.0851	0.000237
364.3003	0.000785
364.5155	0.001123
364.7308	0.000722
364.9460	-0.000416
365.1612	0.000617
365.3765	0.000553
365.5918	0.000490
365.8071	0.001397
366.0224	0.001313
366.2377	0.000954
366.4530	0.002261
366.6684	-0.000669
366.8837	0.000954
367.0991	-0.000079
367.3145	0.001038
367.5299	0.000701
367.7453	0.001038
367.9607	0.000933
368.1761	0.001734
368.3916	0.001291
368.6070	0.001207
368.8225	0.000364
369.0380	0.002514
369.2535	0.000069
369.4690	0.000216
369.6845	0.002451
369.9001	0.002219
370.1156	0.000448
370.3312	-0.000353
370.5468	0.001081
370.7624	0.000638
370.9780	0.001460
371.1936	0.000933
371.4092	0.000343
371.6249	0.000553
371.8405	-0.000459
372.0562	0.001144
372.2719	-0.000480
372.4876	0.001439
372.7033	-0.000796
372.9190	0.000490
373.1348	0.000153
373.3505	0.001060
373.5663	-0.000395
373.7820	0.001376
373.9978	0.001060
374.2136	0.000975
374.4294	0.000532
374.6453	0.001608
374.8611	-0.000037
375.0770	0.001017
375.2928	0.001587
375.5087	0.001566
375.7246	0.000047
375.9405	0.000785
376.1564	0.001270
376.3724	0.001798
376.5883	0.000511
376.8043	0.000764
377.0203	0.000195
377.2362	0.002008
377.4522	0.001017
377.6682	0.000722
377.8843	0.000680
378.1003	0.001123
378.3164	0.000300
378.5324	0.001692
378.7485	-0.000058
378.9646	0.001861
379.1807	-0.000754
379.3968	-0.000142
379.6129	0.000026
379.8291	0.001418
380.0452	0.000701
380.2614	0.000764
380.4776	0.001060
380.6938	0.001397
380.9100	0.000807
381.1262	0.001650
381.3424	-0.000459
381.5587	-0.000016
381.7749	0.001481
381.9912	-0.000796
382.2075	-0.000459
382.4238	0.001713
382.6401	-0.000037
382.8564	0.000912
383.0728	-0.000079
383.2891	0.001102
383.5055	0.001840
383.7219	0.000258
383.9382	0.001566
384.1546	0.000532
384.3711	0.000975
384.5875	0.000870
384.8039	0.000701
385.0204	0.002008
385.2368	0.000427
385.4533	0.000701
385.6698	0.001924
385.8863	0.001123
386.1028	0.001755
386.3194	0.001165
386.5359	0.000448
386.7525	0.001102
386.9690	0.000132
387.1856	0.002451
387.4022	0.002219
387.6188	0.001798
387.8355	0.001017
388.0521	0.002135
388.2687	0.003105
388.4854	0.003042
388.7021	0.001945
388.9188	0.001755
389.1355	0.002810
389.3522	0.002472
389.5689	0.001523
389.7856	0.001903
390.0024	0.003105
390.2192	0.003590
390.4359	0.003020
390.6527	0.004033
390.8695	0.003801
391.0863	0.004560
391.3032	0.004243
391.5200	0.004960
391.7369	0.004939
391.9537	0.003990
392.1706	0.004518
392.3875	0.004159
392.6044	0.005466
392.8213	0.006963
393.0383	0.005698
393.2552	0.006141
393.4722	0.003990
393.6891	0.006732
393.9061	0.005192
394.1231	0.006605
394.3401	0.007596
394.5572	0.007364
394.7742	0.005972
394.9912	0.008081
395.2083	0.008018
395.4254	0.008798
395.6425	0.008292
395.8596	0.008545
396.0767	0.008861
396.2938	0.009662
396.5109	0.010084
396.7281	0.010991
396.9453	0.010000
397.1624	0.010147
397.3796	0.011244
397.5968	0.011033
397.8140	0.011159
398.0313	0.012678
398.2485	0.012319
398.4658	0.014828
398.6830	0.014913
398.9003	0.014660
399.1176	0.015271
399.3349	0.015060
399.5522	0.014090
399.7696	0.012783
399.9869	0.014934
400.2043	0.014807
400.4216	0.013437
400.6390	0.014596
400.8564	0.014997
401.0738	0.013711
401.2912	0.016009
401.5087	0.015208
401.7261	0.015208
401.9436	0.015081
402.1610	0.015651
402.3785	0.014449
402.5960	0.015925
402.8135	0.015967
403.0310	0.015904
403.2486	0.017084
403.4661	0.016325
403.6837	0.016515
403.9013	0.016389
404.1189	0.019256
404.3365	0.017590
404.5541	0.020332
404.7717	0.018118
404.9893	0.019889
405.2070	0.019762
405.4246	0.020289
405.6423	0.020289
405.8600	0.021829
406.0777	0.019066
406.2954	0.019994
406.5131	0.018202
406.7309	0.021301
406.9486	0.020437
407.1664	0.019425
407.3842	0.019045
407.6020	0.020163
407.8198	0.018497
408.0376	0.018286
408.2554	0.019509
408.4733	0.020585
408.6911	0.019572
408.9090	0.021091
409.1269	0.021154
409.3448	0.022018
409.5627	0.021344
409.7806	0.022377
409.9985	0.020922
410.2165	0.020669
410.4344	0.022103
410.6524	0.020795
410.8704	0.021955
411.0884	0.020479
411.3064	0.021070
411.5244	0.024127
411.7424	0.020542
411.9605	0.022082
412.1785	0.021786
412.3966	0.021913
412.6147	0.020817
412.8328	0.022166
413.0509	0.023558
413.2690	0.022503
413.4871	0.022672
413.7053	0.022039
413.9234	0.023642
414.1416	0.023663
414.3598	0.022925
414.5780	0.022461
414.7962	0.022039
415.0144	0.021892
415.2326	0.022271
415.4509	0.023115
415.6692	0.022356
415.8874	0.025603
416.1057	0.023284
416.3240	0.023178
416.5423	0.022293
416.7606	0.023305
416.9790	0.024211
417.1973	0.024064
417.4157	0.021070
417.6341	0.024823
417.8524	0.021175
418.0708	0.024528
418.2893	0.022925
418.5077	0.023389
418.7261	0.024675
418.9446	0.024275
419.1630	0.022820
419.3815	0.025392
419.6000	0.024190
419.8185	0.025076
420.0370	0.021344
420.2555	0.024022
420.4741	0.025308
420.6926	0.026467
420.9112	0.026257
421.1298	0.026004
421.3483	0.026531
421.5669	0.027269
421.7856	0.030221
422.0042	0.030031
422.2228	0.028112
422.4415	0.028407
422.6601	0.027564
422.8788	0.027501
423.0975	0.025244
423.3162	0.027606
423.5349	0.027775
423.7536	0.026868
423.9724	0.024485
424.1911	0.028302
424.4099	0.026742
424.6287	0.025940
424.8475	0.024802
425.0663	0.026004
425.2851	0.026678
425.5039	0.024970
425.7228	0.024823
425.9416	0.026299
426.1605	0.025835
426.3793	0.022799
426.5982	0.025034
426.8171	0.022208
427.0361	0.025076
427.2550	0.023262
427.4739	0.023747
427.6929	0.027543
427.9118	0.025919
428.1308	0.027690
428.3498	0.023473
428.5688	0.025666
428.7878	0.025666
429.0068	0.025097
429.2259	0.024422
429.4449	0.027142
429.6640	0.025244
429.8831	0.030410
430.1022	0.029904
430.3213	0.029103
430.5404	0.028028
430.7595	0.031064
430.9787	0.028555
431.1978	0.028829
431.4170	0.026235
431.6362	0.026341
431.8553	0.025160
432.0745	0.023663
432.2938	0.024085
432.5130	0.023768
432.7322	0.023747
432.9515	0.024190
433.1707	0.024000
433.3900	0.022356
433.6093	0.024127
433.8286	0.026109
434.0479	0.028302
434.2673	0.027606
434.4866	0.026531
434.7059	0.025097
434.9253	0.025582
435.1447	0.023052
435.3641	0.023368
435.5835	0.025413
435.8029	0.024127
436.0223	0.024675
436.2418	0.024296
436.4612	0.024317
436.6807	0.025497
436.9001	0.026109
437.1196	0.026299
437.3391	0.024633
437.5586	0.023305
437.7782	0.026025
437.9977	0.023136
438.2173	0.022588
438.4368	0.025160
438.6564	0.026109
438.8760	0.024127
439.0956	0.024781
439.3152	0.027016
439.5348	0.024991
439.7545	0.023537
439.9741	0.024570
440.1938	0.023431
440.4135	0.025666
440.6331	0.023747
440.8528	0.024654
441.0725	0.024759
441.2923	0.026214
441.5120	0.026931
441.7318	0.027943
441.9515	0.030115
442.1713	0.027416
442.3911	0.026720
442.6109	0.027058
442.8307	0.024506
443.0505	0.027775
443.2703	0.026383
443.4902	0.026931
443.7101	0.024970
443.9299	0.027585
444.1498	0.028955
444.3697	0.026362
444.5896	0.025055
444.8095	0.026615
445.0295	0.025329
445.2494	0.025729
445.4694	0.024085
445.6894	0.026257
445.9093	0.023832
446.1293	0.022925
446.3493	0.023768
446.5694	0.024991
446.7894	0.026805
447.0094	0.027248
447.2295	0.026446
447.4496	0.024738
447.6696	0.024380
447.8897	0.023347
448.1098	0.024823
448.3300	0.023494
448.5501	0.024759
448.7702	0.021681
448.9904	0.021301
449.2106	0.022925
449.4307	0.021280
449.6509	0.022524
449.8711	0.021512
450.0914	0.021344
450.3116	0.021365
450.5318	0.020585
450.7521	0.021976
450.9724	0.022314
451.1926	0.022546
451.4129	0.019804
451.6332	0.020395
451.8535	0.020458
452.0739	0.021365
452.2942	0.020015
452.5146	0.018750
452.7349	0.019404
452.9553	0.020247
453.1757	0.018581
453.3961	0.019193
453.6165	0.018497
453.8369	0.018350
454.0574	0.019362
454.2778	0.017886
454.4983	0.017780
454.7188	0.017907
454.9393	0.016494
455.1597	0.018202
455.3803	0.018856
455.6008	0.017274
455.8213	0.018940
456.0419	0.016852
456.2624	0.017464
456.4830	0.018750
456.7036	0.016979
456.9242	0.018181
457.1448	0.016515
457.3654	0.016473
457.5860	0.018413
457.8067	0.015630
458.0274	0.017422
458.2480	0.015946
458.4687	0.017759
458.6894	0.017274
458.9101	0.018645
459.1308	0.016599
459.3516	0.017401
459.5723	0.015904
459.7931	0.017865
460.0138	0.017401
460.2346	0.017422
460.4554	0.016810
460.6762	0.016789
460.8970	0.015018
461.1178	0.017337
461.3387	0.016557
461.5595	0.015630
461.7804	0.016093
462.0013	0.014786
462.2222	0.014343
462.4431	0.014660
462.6640	0.013795
462.8849	0.015145
463.1059	0.015039
463.3268	0.012193
463.5478	0.014596
463.7687	0.014343
463.9897	0.016178
464.2107	0.013268
464.4317	0.015482
464.6528	0.016410
464.8738	0.015377
465.0948	0.015398
465.3159	0.015798
465.5370	0.013943
465.7581	0.015102
465.9792	0.016726
466.2003	0.014849
466.4214	0.014196
466.6425	0.012888
466.8637	0.012783
467.0848	0.014449
467.3060	0.012382
467.5272	0.011876
467.7484	0.011181
467.9696	0.012129
468.1908	0.010696
468.4120	0.010379
468.6333	0.010653
468.8545	0.011560
469.0758	0.009979
469.2970	0.012256
469.5183	0.009473
469.7396	0.009936
469.9610	0.009156
470.1823	0.009810
470.4036	0.009683
470.6250	0.009156
470.8463	0.007680
471.0677	0.008756
471.2891	0.009641
471.5105	0.009430
471.7319	0.008819
471.9533	0.008819
472.1748	0.007280
472.3962	0.007786
472.6177	0.007828
472.8391	0.008313
473.0606	0.007954
473.2821	0.009452
473.5036	0.007406
473.7251	0.007891
473.9467	0.008587
474.1682	0.009557
474.3898	0.008566
474.6113	0.007491
474.8329	0.008461
475.0545	0.006605
475.2761	0.006985
475.4977	0.009515
475.7193	0.007891
475.9410	0.009915
476.1626	0.007723
476.3843	0.007111
476.6060	0.005994
476.8277	0.006225
477.0494	0.007491
477.2711	0.007385
477.4928	0.008397
477.7145	0.008271
477.9363	0.007828
478.1580	0.007427
478.3798	0.005277
478.6016	0.006457
478.8234	0.006605
479.0452	0.007491
479.2670	0.007238
479.4888	0.006753
479.7107	0.006162
479.9325	0.006605
480.1544	0.005994
480.3763	0.007364
480.5982	0.006985
480.8201	0.007301
481.0420	0.007027
481.2639	0.006626
481.4859	0.006605
481.7078	0.008123
481.9298	0.007554
482.1517	0.007617
482.3737	0.006141
482.5957	0.006394
482.8177	0.006647
483.0398	0.005846
483.2618	0.005656
483.4838	0.006500
483.7059	0.004307
483.9280	0.006225
484.1501	0.004834
484.3721	0.006500
484.5943	0.005171
484.8164	0.005867
485.0385	0.006352
485.2606	0.006816
485.4828	0.005719
485.7050	0.008207
485.9271	0.012235
486.1493	0.017401
486.3715	0.016937
486.5937	0.014702
486.8160	0.010949
487.0382	0.009726
487.2605	0.010569
487.4827	0.008587
487.7050	0.005930
487.9273	0.004265
488.1496	0.005551
488.3719	0.005361
488.5942	0.005150
488.8165	0.005424
489.0389	0.005614
489.2612	0.005804
489.4836	0.003780
489.7060	0.005256
489.9284	0.003969
490.1508	0.005003
490.3732	0.003210
490.5956	0.004560
490.8180	0.003231
491.0405	0.003105
491.2630	0.003400
491.4854	0.006120
491.7079	0.002746
491.9304	0.004876
492.1529	0.004792
492.3755	0.004475
492.5980	0.004201
492.8205	0.007385
493.0431	0.004939
493.2657	0.004686
493.4882	0.003737
493.7108	0.003864
493.9334	0.003695
494.1561	0.005445
494.3787	0.003400
494.6013	0.004960
494.8240	0.003548
495.0466	0.004644
495.2693	0.003316
495.4920	0.004328
495.7147	0.004159
495.9374	0.003274
496.1601	0.002156
496.3829	0.004054
496.6056	0.003231
496.8284	0.004539
497.0511	0.002746
497.2739	0.004307
497.4967	0.004307
497.7195	0.002894
497.9423	0.002683
498.1652	0.003231
498.3880	0.004518
498.6109	0.003126
498.8337	0.001629
499.0566	0.002683
499.2795	0.003906
499.5024	0.004159
499.7253	0.004011
499.9482	0.003590
500.1712	0.003611
500.3941	0.003653
500.6171	0.003231
500.8400	0.003758
501.0630	0.003569
501.2860	0.003210
501.5090	0.003252
501.7320	0.003379
501.9551	0.004075
502.1781	0.004117
502.4012	0.002557
502.6242	0.003379
502.8473	0.003274
503.0704	0.001207
503.2935	0.002746
503.5166	0.003400
503.7397	0.003442
503.9628	0.003400
504.1860	0.003189
504.4092	0.004265
504.6323	0.001987
504.8555	0.003316
505.0787	0.002725
505.3019	0.002789
505.5251	0.002114
505.7483	0.004159
505.9716	0.002029
506.1948	0.002725
506.4181	0.002514
506.6414	0.003780
506.8647	0.003379
507.0880	0.002008
507.3113	0.002008
507.5346	0.002346
507.7579	0.002409
507.9813	0.003231
508.2046	0.002388
508.4280	0.003569
508.6514	0.003843
508.8748	0.003337
509.0982	0.003316
509.3216	0.001355
509.5450	0.003084
509.7685	0.003147
509.9919	0.003020
510.2154	0.002662
510.4388	0.002051
510.6623	0.002936
510.8858	0.002683
511.1093	0.003590
511.3329	0.003358
511.5564	0.003990
511.7799	0.003358
512.0035	0.005298
512.2270	0.003252
512.4506	0.003484
512.6742	0.002999
512.8978	0.003948
513.1214	0.002578
513.3451	0.003316
513.5687	0.002831
513.7923	0.002852
514.0160	0.001882
514.2397	0.003020
514.4634	0.002936
514.6871	0.003295
514.9108	0.002135
515.1345	0.003463
515.3582	0.002599
515.5819	0.002746
515.8057	0.002915
516.0295	0.002557
516.2532	0.003126
516.4770	0.002514
516.7008	0.002810
516.9246	0.002704
517.1485	0.003421
517.3723	0.002557
517.5961	0.002599
517.8200	0.003316
518.0439	0.001882
518.2677	0.004370
518.4916	0.002198
518.7155	0.001587
518.9395	0.001861
519.1634	0.001945
519.3873	0.001460
519.6113	0.002978
519.8352	0.002831
520.0592	0.002557
520.2832	0.003020
520.5072	0.003611
520.7312	0.003885
520.9552	0.003295
521.1792	0.002746
521.4033	0.003758
521.6273	0.005150
521.8514	0.002029
522.0755	0.002493
522.2996	0.002135
522.5237	0.003168
522.7478	0.004159
522.9719	0.003210
523.1960	0.001819
523.4202	0.003295
523.6443	0.002683
523.8685	0.002725
524.0927	0.003548
524.3169	0.004665
524.5411	0.004370
524.7653	0.004433
524.9895	0.003337
525.2138	0.003358
525.4380	0.002282
525.6623	0.003864
525.8865	0.003569
526.1108	0.003843
526.3351	0.003231
526.5594	0.004855
526.7837	0.003147
527.0081	0.003379
527.2324	0.004159
527.4568	0.004518
527.6811	0.004222
527.9055	0.002683
528.1299	0.003421
528.3543	0.004475
528.5787	0.003231
528.8031	0.003864
529.0276	0.004159
529.2520	0.004349
529.4765	0.004328
529.7009	0.004939
529.9254	0.004834
530.1499	0.005593
530.3744	0.004918
530.5989	0.005698
530.8234	0.005804
531.0480	0.005593
531.2725	0.005298
531.4971	0.004728
531.7217	0.003316
531.9462	0.006268
532.1708	0.003590
532.3954	0.005888
532.6200	0.005635
532.8447	0.005888
533.0693	0.005108
533.2940	0.007491
533.5186	0.005171
533.7433	0.006689
533.9680	0.004918
534.1927	0.007048
534.4174	0.004496
534.6421	0.007132
534.8668	0.007153
535.0916	0.005930
535.3163	0.007491
535.5411	0.007870
535.7659	0.008186
535.9907	0.006521
536.2155	0.007575
536.4403	0.007301
536.6651	0.008355
536.8899	0.007638
537.1148	0.007491
537.3396	0.005930
537.5645	0.006732
537.7894	0.005487
538.0143	0.006036
538.2392	0.008292
538.4641	0.008292
538.6890	0.008903
538.9139	0.007976
539.1389	0.010105
539.3638	0.008777
539.5888	0.008861
539.8138	0.009726
540.0388	0.008439
540.2638	0.008777
540.4888	0.009683
540.7138	0.008587
540.9389	0.010337
541.1639	0.009662
541.3890	0.009578
541.6140	0.009515
541.8391	0.011202
542.0642	0.010337
542.2893	0.009367
542.5144	0.011349
542.7396	0.011982
542.9647	0.010927
543.1899	0.010506
543.4150	0.011623
543.6402	0.011581
543.8654	0.011708
544.0906	0.013331
544.3158	0.011455
544.5410	0.011623
544.7662	0.013732
544.9915	0.013901
545.2167	0.013373
545.4420	0.015398
545.6673	0.013584
545.8926	0.013964
546.1179	0.013057
546.3432	0.012509
546.5685	0.012509
546.7938	0.014407
547.0192	0.011813
547.2445	0.013500
547.4699	0.014069
547.6953	0.015229
547.9206	0.015630
548.1460	0.016283
548.3715	0.016874
548.5969	0.016726
548.8223	0.017063
549.0478	0.015313
549.2732	0.016220
549.4987	0.016473
549.7242	0.015946
549.9496	0.017759
550.1751	0.014154
550.4007	0.016705
550.6262	0.016009
550.8517	0.015587
551.0773	0.016114
551.3028	0.015883
551.5284	0.015334
551.7540	0.014069
551.9796	0.016262
552.2052	0.018307
552.4308	0.021576
552.6564	0.019615
552.8820	0.020100
553.1077	0.020353
553.3333	0.019256
553.5590	0.018413
553.7847	0.019868
554.0104	0.019383
554.2361	0.020163
554.4618	0.020289
554.6875	0.017738
554.9132	0.018729
555.1390	0.017633
555.3648	0.021639
555.5905	0.020795
555.8163	0.024485
556.0421	0.023473
556.2679	0.021533
556.4937	0.022314
556.7195	0.021850
556.9454	0.024338
557.1712	0.023768
557.3971	0.023262
557.6230	0.019151
557.8488	0.022039
558.0747	0.021618
558.3006	0.023009
558.5266	0.025013
558.7525	0.023811
558.9784	0.020922
559.2044	0.021786
559.4303	0.021808
559.6563	0.022419
559.8823	0.022461
560.1083	0.023157
560.3343	0.025034
560.5603	0.026257
560.7863	0.029209
561.0124	0.027901
561.2384	0.030031
561.4645	0.030326
561.6905	0.029019
561.9166	0.031380
562.1427	0.030706
562.3688	0.029799
562.5949	0.030010
562.8211	0.029082
563.0472	0.029904
563.2733	0.028323
563.4995	0.029483
563.7257	0.029398
563.9519	0.030727
564.1781	0.032245
564.4043	0.031317
564.6305	0.032709
564.8567	0.033658
565.0829	0.034227
565.3092	0.032941
565.5355	0.035618
565.7617	0.034691
565.9880	0.035365
566.2143	0.032603
566.4406	0.035703
566.6669	0.036188
566.8932	0.036483
567.1196	0.037305
567.3459	0.040384
567.5723	0.043694
567.7987	0.045507
568.0250	0.047743
568.2514	0.045423
568.4778	0.047574
568.7043	0.050125
568.9307	0.053836
569.1571	0.056388
569.3836	0.062397
569.6100	0.067183
569.8365	0.072687
570.0630	0.078907
570.2895	0.084642
570.5160	0.089386
570.7425	0.087067
570.9690	0.088163
571.1956	0.093097
571.4221	0.102965
571.6487	0.104357
571.8752	0.102248
572.1018	0.111378
572.3284	0.115321
572.5550	0.116143
572.7816	0.108468
573.0082	0.100308
573.2349	0.097757
573.4615	0.105010
573.6882	0.115848
573.9149	0.121562
574.1415	0.131030
574.3682	0.130081
574.5949	0.137840
574.8216	0.143829
575.0484	0.143344
575.2751	0.143259
575.5018	0.150133
575.7286	0.147708
575.9554	0.139590
576.1821	0.132949
576.4089	0.129744
576.6357	0.136027
576.8626	0.139801
577.0894	0.147076
577.3162	0.153992
577.5431	0.157112
577.7699	0.162468
577.9968	0.200991
578.2237	0.207064
578.4505	0.199431
578.6774	0.186041
578.9044	0.176975
579.1313	0.170776
579.3582	0.157829
579.5851	0.162342
579.8121	0.167507
580.0391	0.169911
580.2660	0.173200
580.4930	0.173559
580.7200	0.169152
580.9470	0.169574
581.1741	0.169595
581.4011	0.196879
581.6281	0.240695
581.8552	0.267473
582.0822	0.267663
582.3093	0.262286
582.5364	0.257268
582.7635	0.239514
582.9906	0.218386
583.2177	0.201919
583.4449	0.188002
583.6720	0.172273
583.8991	0.156775
584.1263	0.152874
584.3535	0.160191
584.5807	0.160212
584.8079	0.162489
585.0351	0.169574
585.2623	0.189816
585.4895	0.196078
585.7167	0.198018
585.9440	0.196774
586.1713	0.186758
586.3985	0.181255
586.6258	0.172463
586.8531	0.162025
587.0804	0.166284
587.3077	0.176511
587.5350	0.185557
587.7624	0.186632
587.9897	0.186252
588.2171	0.179336
588.4445	0.170143
588.6718	0.165673
588.8992	0.162384
589.1266	0.151946
589.3540	0.144714
589.5815	0.137166
589.8089	0.137039
590.0363	0.136491
590.2638	0.130123
590.4913	0.127319
590.7187	0.122321
590.9462	0.119454
591.1737	0.113761
591.4012	0.108827
591.6288	0.107730
591.8563	0.109249
592.0838	0.108658
592.3114	0.107920
592.5389	0.108595
592.7665	0.127045
592.9941	0.149543
593.2217	0.164534
593.4493	0.165968
593.6769	0.165146
593.9046	0.165272
594.1322	0.157155
594.3598	0.150196
594.5875	0.143744
594.8152	0.139801
595.0429	0.147750
595.2705	0.159137
595.4983	0.162025
595.7260	0.155236
595.9537	0.148046
596.1814	0.141994
596.4092	0.129195
596.6369	0.122743
596.8647	0.117261
597.0925	0.116860
597.3203	0.120361
597.5481	0.122279
597.7759	0.125737
598.0037	0.120972
598.2315	0.118568
598.4594	0.113508
598.6872	0.114140
598.9151	0.129680
599.1430	0.144187
599.3709	0.152284
599.5988	0.148341
599.8267	0.146274
600.0546	0.144988
600.2825	0.146949
600.5105	0.149986
600.7384	0.151335
600.9664	0.150681
601.1944	0.150239
601.4223	0.155194
601.6503	0.149121
601.8783	0.146148
602.1064	0.138663
602.3344	0.140708
602.5624	0.138726
602.7905	0.136322
603.0185	0.138473
603.2466	0.143175
603.4747	0.148383
603.7028	0.153992
603.9309	0.156501
604.1590	0.152874
604.3871	0.139970
604.6152	0.138578
604.8434	0.132590
605.0715	0.130039
605.2997	0.126328
605.5279	0.130819
605.7561	0.133855
605.9843	0.141551
606.2125	0.142943
606.4407	0.138431
606.6689	0.138410
606.8972	0.129975
607.1254	0.125105
607.3537	0.129912
607.5819	0.132168
607.8102	0.128774
608.0385	0.131051
608.2668	0.127551
608.4951	0.124620
608.7235	0.121942
608.9518	0.119011
609.1801	0.118906
609.4085	0.110598
609.6369	0.110682
609.8653	0.107098
610.0936	0.114056
610.3220	0.124915
610.5505	0.123882
610.7789	0.119264
611.0073	0.118357
611.2357	0.113550
611.4642	0.111378
611.6927	0.112390
611.9211	0.113213
612.1496	0.113234
612.3781	0.109734
612.6066	0.105116
612.8351	0.101173
613.0637	0.104863
613.2922	0.108743
613.5208	0.106023
613.7493	0.099929
613.9779	0.105896
614.2065	0.106845
614.4351	0.104884
614.6637	0.106697
614.8923	0.106254
615.1209	0.099655
615.3495	0.102333
615.5782	0.106086
615.8068	0.102501
616.0355	0.107520
616.2642	0.102185
616.4929	0.098284
616.7216	0.091748
616.9503	0.091916
617.1790	0.089154
617.4077	0.090820
617.6365	0.089934
617.8652	0.090883
618.0940	0.090356
618.3227	0.090672
618.5515	0.088501
618.7803	0.086223
619.0091	0.081690
619.2379	0.075596
619.4667	0.077726
619.6956	0.074521
619.9244	0.072054
620.1533	0.078527
620.3821	0.078928
620.6110	0.083145
620.8399	0.079898
621.0688	0.073319
621.2977	0.065918
621.5266	0.062903
621.7556	0.059824
621.9845	0.060267
622.2135	0.064632
622.4424	0.068406
622.6714	0.070894
622.9004	0.069671
623.1294	0.070979
623.3584	0.073319
623.5874	0.074922
623.8164	0.072455
624.0454	0.073403
624.2745	0.071400
624.5035	0.071674
624.7326	0.074605
624.9617	0.074163
625.1908	0.075744
625.4199	0.070051
625.6490	0.068849
625.8781	0.067478
626.1072	0.066719
626.3364	0.063599
626.5655	0.062123
626.7947	0.061975
627.0238	0.057421
627.2530	0.056683
627.4822	0.057400
627.7114	0.058475
627.9406	0.058433
628.1698	0.055165
628.3991	0.052824
628.6283	0.048755
628.8576	0.049661
629.0868	0.050020
629.3161	0.048185
629.5454	0.051559
629.7747	0.050884
630.0040	0.053689
630.2333	0.049703
630.4626	0.049661
630.6920	0.046899
630.9213	0.048038
631.1507	0.048038
631.3801	0.043778
631.6094	0.044137
631.8388	0.042113
632.0682	0.044263
632.2976	0.044770
632.5271	0.043167
632.7565	0.039709
632.9859	0.040046
633.2154	0.038549
633.4448	0.037558
633.6743	0.035640
633.9038	0.039329
634.1333	0.037474
634.3628	0.038275
634.5923	0.038022
634.8218	0.035028
635.0514	0.035133
635.2809	0.033889
635.5105	0.032097
635.7400	0.034522
635.9696	0.034142
636.1992	0.035450
636.4288	0.037917
636.6584	0.037305
636.8880	0.039119
637.1177	0.039161
637.3473	0.037242
637.5770	0.036061
637.8066	0.035070
638.0363	0.033215
638.2660	0.035956
638.4957	0.035176
638.7254	0.035112
638.9551	0.035365
639.1848	0.034902
639.4145	0.033826
639.6443	0.033436
639.8740	0.032559
640.1038	0.030565
640.3336	0.031151
640.5633	0.034034
640.7931	0.031352
641.0229	0.031563
641.2528	0.029867
641.4826	0.029349
641.7124	0.029825
641.9423	0.026515
642.1721	0.027493
642.4020	0.026612
642.6319	0.024460
642.8617	0.025639
643.0916	0.023217
643.3216	0.025261
643.5515	0.027043
643.7814	0.026421
644.0113	0.026973
644.2413	0.023505
644.4712	0.025829
644.7012	0.025109
644.9312	0.023131
645.1612	0.022544
645.3912	0.023092
645.6212	0.022252
645.8512	0.024291
646.0812	0.022512
646.3113	0.023473
646.5413	0.021226
646.7714	0.020916
647.0015	0.020772
647.2316	0.021037
647.4616	0.021488
647.6918	0.020529
647.9219	0.022727
648.1520	0.023035
648.3821	0.023939
648.6123	0.025409
648.8424	0.027652
649.0726	0.028309
649.3028	0.028549
649.5329	0.029398
649.7631	0.028165
649.9933	0.027446
650.2236	0.027223
650.4538	0.026003
650.6840	0.024581
650.9143	0.025326
651.1445	0.023896
651.3748	0.023485
651.6051	0.025290
651.8354	0.025333
652.0657	0.025381
652.2960	0.025091
652.5263	0.025755
652.7566	0.025612
652.9870	0.025911
653.2173	0.024360
653.4477	0.026725
653.6780	0.026670
653.9084	0.026808
654.1388	0.028339
654.3692	0.027272
654.5996	0.027926
654.8300	0.029469
655.0605	0.033844
655.2909	0.046839
655.5213	0.127993
655.7518	0.390543
655.9823	0.766914
656.2128	1.000000
656.4433	1.000000
656.6738	1.000000
656.9043	1.000000
657.1348	0.890931
657.3653	0.722622
657.5959	0.582211
657.8264	0.495437
658.0570	0.434836
658.2875	0.399396
658.5181	0.358281
658.7487	0.323754
658.9793	0.305887
659.2099	0.291503
659.4406	0.236587
659.6712	0.165122
659.9018	0.098939
660.1325	0.057414
660.3632	0.036222
660.5938	0.027698
660.8245	0.021890
661.0552	0.020559
661.2859	0.019784
661.5166	0.018455
661.7474	0.020167
661.9781	0.021111
662.2088	0.018439
662.4396	0.018866
662.6704	0.020811
662.9011	0.018062
663.1319	0.019014
663.3627	0.016964
663.5935	0.019202
663.8243	0.019221
664.0552	0.018600
664.2860	0.019105
664.5168	0.018715
664.7477	0.018206
664.9786	0.017441
665.2094	0.020131
665.4403	0.020315
665.6712	0.021076
665.9021	0.019442
666.1330	0.019806
666.3640	0.022396
666.5949	0.021130
666.8259	0.017966
667.0568	0.017866
667.2878	0.017737
667.5188	0.017110
667.7497	0.018520
667.9807	0.019004
668.2117	0.018850
668.4428	0.016768
668.6738	0.017422
668.9048	0.018139
669.1359	0.016262
669.3669	0.017232
669.5980	0.018097
669.8291	0.018813
670.0602	0.018223
670.2913	0.019214
670.5224	0.019341
670.7535	0.018476
670.9846	0.018413
671.2157	0.019193
671.4469	0.020057
671.6781	0.019720
671.9092	0.023937
672.1404	0.025666
672.3716	0.027838
672.6028	0.029820
672.8340	0.028555
673.0652	0.028934
673.2964	0.029736
673.5277	0.025434
673.7589	0.026931
673.9902	0.028007
674.2214	0.024485
674.4527	0.024991
674.6840	0.022841
674.9153	0.023030
675.1466	0.023431
675.3779	0.021892
675.6093	0.020964
675.8406	0.022651
676.0719	0.021533
676.3033	0.021491
676.5347	0.020353
676.7661	0.020479
676.9974	0.020732
677.2288	0.020332
677.4602	0.018940
677.6917	0.021070
677.9231	0.022082
678.1545	0.024338
678.3860	0.025202
678.6174	0.026362
678.8489	0.026889
679.0804	0.026446
679.3119	0.026657
679.5434	0.028407
679.7749	0.028028
680.0064	0.028386
680.2379	0.031401
680.4694	0.030178
680.7010	0.030663
680.9325	0.029440
681.1641	0.027543
681.3957	0.027880
681.6273	0.028428
681.8589	0.030410
682.0905	0.028681
682.3221	0.026172
682.5537	0.027648
682.7854	0.027480
683.0170	0.025476
683.2487	0.026889
683.4803	0.026615
683.7120	0.024738
683.9437	0.025877
684.1754	0.027437
684.4071	0.028281
684.6388	0.029504
684.8705	0.033194
685.1023	0.032772
685.3340	0.032688
685.5658	0.035977
685.7975	0.036799
686.0293	0.038528
686.2611	0.037010
686.4929	0.037769
686.7247	0.037474
686.9565	0.035365
687.1883	0.036483
687.4202	0.037980
687.6520	0.037600
687.8838	0.035935
688.1157	0.035618
688.3476	0.033088
688.5795	0.033594
688.8114	0.031422
689.0433	0.031718
689.2752	0.032308
689.5071	0.031739
689.7390	0.033299
689.9710	0.030642
690.2029	0.031043
690.4349	0.029230
690.6669	0.028977
690.8988	0.028196
691.1308	0.029124
691.3628	0.030474
691.5948	0.029462
691.8269	0.032540
692.0589	0.030284
692.2909	0.031549
692.5230	0.032076
692.7550	0.031992
692.9871	0.031570
693.2192	0.030895
693.4513	0.033552
693.6834	0.032856
693.9155	0.032561
694.1476	0.029103
694.3797	0.027458
694.6119	0.029230
694.8440	0.030157
695.0762	0.027058
695.3083	0.031317
695.5405	0.027690
695.7727	0.028260
696.0049	0.027100
696.2371	0.025139
696.4693	0.024443
696.7016	0.024317
696.9338	0.028871
697.1660	0.033447
697.3983	0.031823
697.6306	0.032920
697.8628	0.030621
698.0951	0.031697
698.3274	0.030474
698.5597	0.032392
698.7920	0.033173
699.0243	0.031612
699.2567	0.031422
699.4890	0.029946
699.7214	0.027606
699.9537	0.031359
700.1861	0.028154
700.4185	0.026531
700.6509	0.027311
700.8833	0.026699
701.1157	0.026594
701.3481	0.025139
701.5806	0.024190
701.8130	0.023600
702.0454	0.022124
702.2779	0.023642
702.5104	0.025687
702.7429	0.027943
702.9753	0.025455
703.2078	0.024928
703.4403	0.023705
703.6729	0.024127
703.9054	0.023199
704.1379	0.025244
704.3705	0.023473
704.6030	0.024506
704.8356	0.020753
705.0682	0.022377
705.3008	0.020184
705.5334	0.020416
705.7660	0.019973
705.9986	0.021997
706.2312	0.020437
706.4638	0.022756
706.6965	0.023558
706.9291	0.027986
707.1618	0.029757
707.3945	0.032329
707.6272	0.032308
707.8599	0.033130
708.0926	0.033151
708.3253	0.030663
708.5580	0.032435
708.7907	0.031212
709.0235	0.030706
709.2562	0.029925
709.4890	0.028618
709.7217	0.027627
709.9545	0.026341
710.1873	0.026573
710.4201	0.028028
710.6529	0.028344
710.8857	0.028070
711.1186	0.027458
711.3514	0.027796
711.5842	0.026531
711.8171	0.026025
712.0500	0.025624
712.2828	0.022841
712.5157	0.023052
712.7486	0.023389
712.9815	0.026046
713.2144	0.024000
713.4474	0.025329
713.6803	0.024528
713.9132	0.027184
714.1462	0.027648
714.3791	0.029356
714.6121	0.028281
714.8451	0.030326
715.0781	0.029272
715.3111	0.027142
715.5441	0.028175
715.7771	0.029736
716.0102	0.029251
716.2432	0.027733
716.4762	0.026573
716.7093	0.025055
716.9424	0.023621
717.1754	0.024549
717.4085	0.022651
717.6416	0.022946
717.8747	0.023178
718.1078	0.023853
718.3410	0.022039
718.5741	0.024949
718.8072	0.022799
719.0404	0.024253
719.2736	0.024464
719.5067	0.024401
719.7399	0.024359
719.9731	0.025476
720.2063	0.023579
720.4395	0.024127
720.6727	0.023832
720.9060	0.024359
721.1392	0.023916
721.3725	0.025982
721.6057	0.024591
721.8390	0.024781
722.0723	0.025223
722.3055	0.025645
722.5388	0.023958
722.7721	0.023431
723.0055	0.022567
723.2388	0.023199
723.4721	0.021618
723.7055	0.023157
723.9388	0.022145
724.1722	0.022735
724.4056	0.024928
724.6389	0.023305
724.8723	0.023157
725.1057	0.022862
725.3391	0.022904
725.5726	0.027733
725.8060	0.026046
726.0394	0.026446
726.2729	0.027754
726.5063	0.027754
726.7398	0.027184
726.9733	0.028808
727.2068	0.026109
727.4403	0.027648
727.6738	0.025181
727.9073	0.029145
728.1408	0.026193
728.3743	0.029040
728.6079	0.028239
728.8414	0.028302
729.0750	0.029293
729.3086	0.031148
729.5421	0.027606
729.7757	0.030811
730.0093	0.031823
730.2429	0.030642
730.4766	0.029693
730.7102	0.030474
730.9438	0.031865
731.1775	0.037010
731.4111	0.037369
731.6448	0.036040
731.8785	0.037727
732.1122	0.036040
732.3458	0.032983
732.5795	0.035260
732.8133	0.034058
733.0470	0.035956
733.2807	0.034923
733.5145	0.034986
733.7482	0.036799
733.9820	0.036082
734.2157	0.038929
734.4495	0.041101
734.6833	0.042028
734.9171	0.042218
735.1509	0.039857
735.3847	0.041185
735.6185	0.039055
735.8524	0.041396
736.0862	0.040152
736.3201	0.039182
736.5539	0.040721
736.7878	0.040510
737.0217	0.039814
737.2556	0.040215
737.4895	0.039983
737.7234	0.039962
737.9573	0.038022
738.1912	0.033721
738.4252	0.035787
738.6591	0.032413
738.8931	0.034353
739.1271	0.035555
739.3610	0.033573
739.5950	0.039646
739.8290	0.040552
740.0630	0.038275
740.2970	0.038191
740.5310	0.034016
740.7651	0.032456
740.9991	0.034754
741.2332	0.031718
741.4672	0.031507
741.7013	0.028028
741.9354	0.029462
742.1695	0.026784
742.4036	0.026805
742.6377	0.027627
742.8718	0.028534
743.1059	0.030389
743.3400	0.028534
743.5742	0.025118
743.8083	0.025835
744.0425	0.025751
744.2767	0.025497
744.5108	0.025455
744.7450	0.022883
744.9792	0.025687
745.2134	0.025181
745.4477	0.023515
745.6819	0.023537
745.9161	0.022588
746.1504	0.023452
746.3846	0.023368
746.6189	0.024443
746.8532	0.023030
747.0874	0.023684
747.3217	0.024570
747.5560	0.026488
747.7903	0.025835
748.0247	0.024865
748.2590	0.024612
748.4933	0.024528
748.7277	0.025877
748.9620	0.023621
749.1964	0.024570
749.4308	0.027100
749.6652	0.026594
749.8995	0.029187
750.1339	0.028302
750.3684	0.032582
750.6028	0.033447
750.8372	0.034100
751.0717	0.031802
751.3061	0.031359
751.5406	0.031380
751.7750	0.034965
752.0095	0.034142
752.2440	0.032076
752.4785	0.033805
752.7130	0.033151
752.9475	0.029925
753.1820	0.028871
753.4166	0.030537
753.6511	0.032835
753.8856	0.033868
754.1202	0.036146
754.3548	0.036588
754.5894	0.033573
754.8239	0.032097
755.0585	0.033362
755.2931	0.034649
755.5278	0.034796
755.7624	0.036103
755.9970	0.033615
756.2317	0.035197
756.4663	0.037664
756.7010	0.037938
756.9356	0.040363
757.1703	0.041902
757.4050	0.043800
757.6397	0.047342
757.8744	0.049767
758.1091	0.048396
758.3438	0.046815
758.5786	0.048607
758.8133	0.046583
759.0481	0.045044
759.2828	0.045908
759.5176	0.046119
759.7524	0.050357
759.9872	0.049640
760.2220	0.049767
760.4568	0.051981
760.6916	0.052698
760.9264	0.052845
761.1613	0.051158
761.3961	0.050315
761.6310	0.049408
761.8658	0.046520
762.1007	0.042724
762.3356	0.041881
762.5705	0.040911
762.8054	0.040679
763.0403	0.040173
763.2752	0.039772
763.5101	0.042197
763.7450	0.042071
763.9800	0.041986
764.2149	0.041586
764.4499	0.042197
764.6849	0.046456
764.9198	0.047679
765.1548	0.050399
765.3898	0.046245
765.6248	0.047447
765.8599	0.045170
766.0949	0.043041
766.3299	0.042134
766.5650	0.040384
766.8000	0.037474
767.0351	0.031992
767.2701	0.033173
767.5052	0.032667
767.7403	0.032224
767.9754	0.031865
768.2105	0.032160
768.4456	0.035829
768.6808	0.038739
768.9159	0.037832
769.1510	0.038992
769.3862	0.039435
769.6214	0.038908
769.8565	0.038149
770.0917	0.039161
770.3269	0.036293
770.5621	0.036715
770.7973	0.040046
771.0325	0.037052
771.2677	0.040995
771.5030	0.041354
771.7382	0.040152
771.9735	0.039604
772.2087	0.036757
772.4440	0.035429
772.6793	0.034880
772.9146	0.031844
773.1499	0.033278
773.3852	0.033911
773.6205	0.032540
773.8558	0.030410
774.0911	0.032582
774.3265	0.030031
774.5618	0.030326
774.7972	0.027648
775.0326	0.026573
775.2679	0.026763
775.5033	0.026109
775.7387	0.022335
775.9741	0.024232
776.2095	0.023431
776.4450	0.022841
776.6804	0.020859
776.9158	0.023262
777.1513	0.021955
777.3868	0.020627
777.6222	0.021048
777.8577	0.022335
778.0932	0.020943
778.3287	0.020521
778.5642	0.020395
778.7997	0.022588
779.0352	0.023431
779.2707	0.026257
779.5063	0.027037
779.7418	0.025898
779.9774	0.027690
780.2130	0.026193
780.4485	0.024738
780.6841	0.023220
780.9197	0.021786
781.1553	0.024506
781.3909	0.029040
781.6265	0.030558
781.8622	0.029651
782.0978	0.029820
782.3335	0.029504
782.5691	0.030663
782.8048	0.028724
783.0405	0.027311
783.2761	0.027100
783.5118	0.027522
783.7475	0.028934
783.9832	0.029398
784.2190	0.028323
784.4547	0.027142
784.6904	0.025392
784.9262	0.026172
785.1619	0.024823
785.3977	0.023726
785.6335	0.021491
785.8692	0.025476
786.1050	0.022799
786.3408	0.024570
786.5766	0.023937
786.8124	0.023115
787.0483	0.022440
787.2841	0.022841
787.5199	0.023136
787.7558	0.024464
787.9917	0.024802
788.2275	0.025034
788.4634	0.025076
788.6993	0.026004
788.9352	0.024338
789.1711	0.026931
789.4070	0.026383
789.6429	0.026847
789.8789	0.023558
790.1148	0.023052
790.3507	0.021786
790.5867	0.023136
790.8227	0.020859
791.0586	0.022293
791.2946	0.020226
791.5306	0.019636
791.7666	0.020669
792.0026	0.020121
792.2387	0.019024
792.4747	0.019467
792.7107	0.018877
792.9468	0.019594
793.1828	0.018539
793.4189	0.018645
793.6550	0.015883
793.8910	0.018940
794.1271	0.021829
794.3632	0.026214
794.5993	0.026784
794.8355	0.025540
795.0716	0.028597
795.3077	0.028217
795.5439	0.027395
795.7800	0.026868
796.0162	0.023621
796.2523	0.022988
796.4885	0.020943
796.7247	0.020606
796.9609	0.017633
797.1971	0.018835
797.4333	0.018223
797.6695	0.018518
797.9058	0.019952
798.1420	0.019952
798.3783	0.019509
798.6145	0.020437
798.8508	0.018160
799.0871	0.020585
799.3233	0.019804
799.5596	0.019277
799.7959	0.018371
800.0322	0.017548
800.2686	0.016283
800.5049	0.017443
800.7412	0.016178
800.9776	0.016599
801.2139	0.015545
801.4503	0.016009
801.6867	0.014892
801.9230	0.016578
802.1594	0.014786
802.3958	0.015608
802.6322	0.013036
802.8686	0.014660
803.1051	0.013774
803.3415	0.014828
803.5779	0.014385
803.8144	0.015587
804.0508	0.014955
804.2873	0.015018
804.5238	0.015377
804.7603	0.015608
804.9968	0.015925
805.2333	0.015081
805.4698	0.014048
805.7063	0.013331
805.9428	0.014575
806.1794	0.016726
806.4159	0.017822
806.6525	0.019088
806.8890	0.021344
807.1256	0.021470
807.3622	0.018455
807.5988	0.018856
807.8354	0.017759
808.0720	0.019088
808.3086	0.017886
808.5452	0.019045
808.7818	0.019551
809.0185	0.019256
809.2551	0.017590
809.4918	0.019277
809.7284	0.018392
809.9651	0.016621
810.2018	0.016157
810.4385	0.016262
810.6752	0.016768
810.9119	0.015377
811.1486	0.015145
811.3853	0.016178
811.6221	0.015904
811.8588	0.013373
812.0956	0.014006
812.3323	0.013416
812.5691	0.013521
812.8059	0.013120
813.0427	0.013521
813.2795	0.012087
813.5163	0.011940
813.7531	0.014617
813.9899	0.016642
814.2267	0.015883
814.4636	0.016789
814.7004	0.016283
814.9373	0.016325
815.1742	0.016157
815.4110	0.014976
815.6479	0.014048
815.8848	0.011497
816.1217	0.012572
816.3586	0.012193
816.5955	0.011708
816.8324	0.011919
817.0694	0.012129
817.3063	0.012509
817.5433	0.012720
817.7802	0.013268
818.0172	0.012193
818.2542	0.012256
818.4912	0.012108
818.7282	0.011202
818.9652	0.010906
819.2022	0.013458
819.4392	0.010400
819.6762	0.008819
819.9133	0.010632
820.1503	0.010885
820.3874	0.010991
820.6244	0.011138
820.8615	0.013542
821.0986	0.014217
821.3357	0.013036
821.5727	0.014849
821.8099	0.013310
822.0470	0.012319
822.2841	0.012361
822.5212	0.012087
822.7584	0.011897
822.9955	0.010885
823.2327	0.010717
823.4698	0.009873
823.7070	0.010443
823.9442	0.009705
824.1814	0.009620
824.4186	0.008039
824.6558	0.009873
824.8930	0.008903
825.1302	0.010190
825.3675	0.008840
825.6047	0.010885
825.8419	0.012973
826.0792	0.010295
826.3165	0.011181
826.5537	0.011434
826.7910	0.012277
827.0283	0.010548
827.2656	0.010906
827.5029	0.010253
827.7402	0.011623
827.9776	0.012530
828.2149	0.011729
828.4522	0.010084
828.6896	0.009831
828.9270	0.008840
829.1643	0.010421
829.4017	0.011159
829.6391	0.010253
829.8765	0.010949
830.1139	0.010885
830.3513	0.009156
830.5887	0.010379
830.8261	0.008756
831.0636	0.007807
831.3010	0.007280
831.5385	0.009156
831.7759	0.006478
832.0134	0.008102
832.2509	0.006521
832.4884	0.006225
832.7259	0.006331
832.9634	0.009093
833.2009	0.006689
833.4384	0.008482
833.6759	0.007259
833.9135	0.010021
834.1510	0.007596
834.3886	0.008186
834.6261	0.009304
834.8637	0.011223
835.1013	0.009557
835.3389	0.009283
835.5765	0.007533
835.8141	0.008798
836.0517	0.010126
836.2893	0.009198
836.5269	0.008671
836.7646	0.007849
837.0022	0.006394
837.2399	0.006647
837.4775	0.007828
837.7152	0.005635
837.9529	0.008060
838.1906	0.007280
838.4283	0.005888
838.6660	0.006563
838.9037	0.005108
839.1414	0.004918
839.3791	0.006099
839.6169	0.005846
839.8546	0.006183
840.0924	0.006732
840.3302	0.006247
840.5679	0.006204
840.8057	0.005572
841.0435	0.006225
841.2813	0.006225
841.5191	0.006795
841.7569	0.005298
841.9947	0.007701
842.2326	0.004855
842.4704	0.004813
842.7082	0.005108
842.9461	0.005509
843.1840	0.006331
843.4218	0.004876
843.6597	0.005677
843.8976	0.004159
844.1355	0.004876
844.3734	0.006457
844.6113	0.004918
844.8492	0.004496
845.0872	0.004328
845.3251	0.005930
845.5631	0.005551
845.8010	0.005003
846.0390	0.004897
846.2770	0.005614
846.5149	0.003990
846.7529	0.004686
846.9909	0.004918
847.2289	0.003463
847.4669	0.003505
847.7050	0.004686
847.9430	0.004981
848.1810	0.005804
848.4191	0.003843
848.6571	0.005677
848.8952	0.003780
849.1333	0.005340
849.3713	0.003590
849.6094	0.003927
849.8475	0.003674
850.0856	0.004201
850.3237	0.004581
850.5619	0.005213
850.8000	0.003189
851.0381	0.005656
851.2763	0.003653
851.5144	0.004243
851.7526	0.004960
851.9908	0.004222
852.2289	0.005045
852.4671	0.004560
852.7053	0.006605
852.9435	0.006753
853.1817	0.008988
853.4200	0.009747
853.6582	0.011181
853.8964	0.012003
854.1347	0.012530
854.3729	0.012488
854.6112	0.011455
854.8495	0.011729
855.0877	0.011897
855.3260	0.011982
855.5643	0.011202
855.8026	0.010674
856.0409	0.009283
856.2792	0.010000
856.5176	0.010063
856.7559	0.011855
856.9942	0.009810
857.2326	0.010696
857.4710	0.008439
857.7093	0.009515
857.9477	0.008271
858.1861	0.009051
858.4245	0.008587
858.6629	0.009283
858.9013	0.008967
859.1397	0.008229
859.3781	0.007891
859.6166	0.008292
859.8550	0.007807
860.0935	0.008650
860.3319	0.006542
860.5704	0.007744
860.8089	0.005593
861.0473	0.005340
861.2858	0.005719
861.5243	0.006605
861.7628	0.005424
862.0013	0.007596
862.2399	0.006247
862.4784	0.005424
862.7169	0.005066
862.9555	0.006183
863.1940	0.006036
863.4326	0.006457
863.6712	0.004749
863.9098	0.007533
864.1483	0.005762
864.3869	0.006078
864.6255	0.005909
864.8642	0.005846
865.1028	0.004665
865.3414	0.006500
865.5800	0.003801
865.8187	0.003906
866.0573	0.005087
866.2960	0.005445
866.5347	0.003737
866.7733	0.005108
867.0120	0.004328
867.2507	0.004075
867.4894	0.005719
867.7281	0.005509
867.9669	0.005213
868.2056	0.005635
868.4443	0.003716
868.6831	0.004771
868.9218	0.004771
869.1606	0.003569
869.3993	0.004581
869.6381	0.004813
869.8769	0.004054
870.1157	0.005783
870.3545	0.006478
870.5933	0.005319
870.8321	0.004665
871.0709	0.005087
871.3097	0.005825
871.5486	0.004623
871.7874	0.004370
872.0263	0.005445
872.2651	0.003674
872.5040	0.005593
872.7429	0.006078
872.9818	0.003548
873.2207	0.004707
873.4596	0.004623
873.6985	0.004180
873.9374	0.004265
874.1763	0.004855
874.4153	0.003400
874.6542	0.005530
874.8932	0.003484
875.1321	0.004265
875.3711	0.005530
875.6101	0.005593
875.8491	0.005256
876.0880	0.004792
876.3270	0.005509
876.5661	0.005382
876.8051	0.004243
877.0441	0.004433
877.2831	0.003590
877.5222	0.006605
877.7612	0.005256
878.0003	0.006457
878.2393	0.003400
878.4784	0.007406
878.7175	0.005066
878.9566	0.005698
879.1957	0.005804
879.4348	0.007090
879.6739	0.004897
879.9130	0.005319
880.1521	0.006732
880.3913	0.005804
880.6304	0.006141
880.8696	0.007786
881.1087	0.007427
881.3479	0.007554
881.5871	0.007174
881.8262	0.005972
882.0654	0.007174
882.3046	0.006183
882.5438	0.005846
882.7831	0.005719
883.0223	0.006331
883.2615	0.005614
883.5007	0.005466
883.7400	0.005867
883.9792	0.006015
884.2185	0.006626
884.4578	0.007238
884.6971	0.006310
884.9363	0.005277
885.1756	0.005445
885.4149	0.004159
885.6542	0.005783
885.8936	0.006774
886.1329	0.007976
886.3722	0.004454
886.6116	0.004349
886.8509	0.004475
887.0903	0.005888
887.3296	0.005066
887.5690	0.006036
887.8084	0.006120
888.0478	0.004370
888.2872	0.005572
888.5266	0.003822
888.7660	0.003758
889.0054	0.004286
889.2448	0.004454
889.4843	0.004433
889.7237	0.004433
889.9632	0.003927
890.2026	0.002514
890.4421	0.002493
890.6816	0.003737
890.9211	0.003126
891.1606	0.002936
891.4001	0.001861
891.6396	0.003885
891.8791	0.004897
892.1186	0.005340
892.3581	0.007090
892.5977	0.004707
892.8372	0.004265
893.0768	0.002999
893.3163	0.005340
893.5559	0.004876
893.7955	0.004834
894.0351	0.003252
894.2747	0.004897
894.5143	0.005466
894.7539	0.003780
894.9935	0.003042
895.2331	0.004581
895.4727	0.004897
895.7124	0.003969
895.9520	0.003484
896.1917	0.003716
896.4314	0.005213
896.6710	0.004496
896.9107	0.006162
897.1504	0.003295
897.3901	0.004265
897.6298	0.006183
897.8695	0.003274
898.1092	0.003358
898.3489	0.004180
898.5887	0.004328
898.8284	0.004011
899.0682	0.003505
899.3079	0.004876
899.5477	0.004222
899.7875	0.004011
900.0272	0.004033
900.2670	0.004011
900.5068	0.004328
900.7466	0.003463
900.9864	0.004370
901.2263	0.004286
901.4661	0.004581
901.7059	0.002409
901.9458	0.004370
902.1856	0.004433
902.4255	0.004011
902.6654	0.004539
902.9052	0.003569
903.1451	0.003548
903.3850	0.003885
903.6249	0.002536
903.8648	0.003295
904.1047	0.003020
904.3446	0.002810
904.5846	0.003105
904.8245	0.005762
905.0644	0.004159
905.3044	0.003780
905.5444	0.004496
905.7843	0.005466
906.0243	0.004518
906.2643	0.006542
906.5043	0.003484
906.7443	0.003843
906.9843	0.004222
907.2243	0.003337
907.4643	0.004243
907.7043	0.004665
907.9444	0.004117
908.1844	0.003505
908.4245	0.002662
908.6645	0.003105
908.9046	0.002852
909.1447	0.003632
909.3847	0.003126
909.6248	0.003548
909.8649	0.002219
910.1050	0.003020
910.3452	0.003042
910.5853	0.004665
910.8254	0.004412
911.0655	0.004728
911.3057	0.001566
911.5458	0.003421
911.7860	0.002725
912.0262	0.004307
912.2663	0.003527
912.5065	0.003801
912.7467	0.003400
912.9869	0.003147
913.2271	0.003590
913.4673	0.003948
913.7075	0.003379
913.9478	0.004665
914.1880	0.001313
914.4283	0.005066
914.6685	0.003548
914.9088	0.003611
915.1490	0.002915
915.3893	0.003463
915.6296	0.002620
915.8699	0.002282
916.1102	0.002915
916.3505	0.003400
916.5908	0.005087
916.8311	0.003611
917.0714	0.003168
917.3118	0.003274
917.5521	0.004834
917.7925	0.003906
918.0328	0.004243
918.2732	0.003316
918.5136	0.003063
918.7539	0.004623
918.9943	0.003295
919.2347	0.004349
919.4751	0.004771
919.7155	0.003822
919.9560	0.004454
920.1964	0.002093
920.4368	0.003927
920.6773	0.003147
920.9177	0.003548
921.1582	0.004475
921.3986	0.003337
921.6391	0.003822
921.8796	0.002051
922.1201	0.002852
922.3606	0.003737
922.6011	0.003020
922.8416	0.001671
923.0821	0.003505
923.3226	0.003653
923.5631	0.003463
923.8037	0.002114
924.0442	0.003295
924.2848	0.002135
924.5254	0.003548
924.7659	0.002219
925.0065	0.003780
925.2471	0.002198
925.4877	0.002852
925.7283	0.002219
925.9689	0.004644
926.2095	0.003484
926.4501	0.002599
926.6908	0.001060
926.9314	0.002578
927.1720	0.001861
927.4127	0.003126
927.6533	0.001713
927.8940	0.002683
928.1347	0.001713
928.3754	0.001945
928.6161	0.002367
928.8568	0.002767
929.0975	0.001249
929.3382	0.003948
929.5789	0.002325
929.8196	0.002936
930.0604	0.001734
930.3011	0.001334
930.5419	0.002282
930.7826	0.002325
931.0234	0.003020
931.2642	0.003484
931.5049	0.001776
931.7457	0.001249
931.9865	0.001060
932.2273	0.002810
932.4681	0.003337
932.7089	0.002767
932.9498	0.001650
933.1906	0.003189
933.4314	0.000849
933.6723	0.002978
933.9131	0.002388
934.1540	0.002578
934.3949	0.001987
934.6358	0.003358
934.8766	0.002894
935.1175	0.003210
935.3584	0.002282
935.5993	0.001608
935.8403	0.002894
936.0812	0.002261
936.3221	0.002831
936.5630	0.003020
936.8040	0.002936
937.0449	0.001734
937.2859	0.002599
937.5269	0.001355
937.7678	0.001966
938.0088	0.002114
938.2498	0.002641
938.4908	0.001270
938.7318	0.001270
938.9728	0.000469
939.2138	0.002620
939.4549	0.002704
939.6959	0.002536
939.9369	0.001165
940.1780	0.002936
940.4190	0.000975
940.6601	0.002325
940.9012	0.002557
941.1422	0.000490
941.3833	0.000785
941.6244	0.002578
941.8655	0.001334
942.1066	0.001270
942.3477	-0.000058
942.5889	0.001776
942.8300	0.000427
943.0711	0.001228
943.3123	0.001945
943.5534	0.001882
943.7946	0.000996
944.0357	0.001439
944.2769	0.001650
944.5181	0.000975
944.7593	0.001060
945.0005	0.001840
945.2417	0.001397
945.4829	0.003758
945.7241	0.001270
945.9653	0.002367
946.2066	0.001629
946.4478	0.000954
946.6891	0.002472
946.9303	0.001608
947.1716	0.000490
947.4128	0.002873
947.6541	0.001270
947.8954	0.001903
948.1367	0.001671
948.3780	0.000849
948.6193	0.000912
948.8606	0.000743
949.1019	0.001038
949.3433	0.000996
949.5846	0.002451
949.8259	0.001734
950.0673	0.002177
950.3086	0.001545
950.5500	0.001587
950.7914	0.001418
951.0327	0.001713
951.2741	0.002177
951.5155	0.000617
951.7569	0.001481
951.9983	0.001608
952.2398	0.001502
952.4812	0.002831
952.7226	0.002029
952.9640	0.001840
953.2055	0.001291
953.4469	0.000954
953.6884	0.002135
953.9299	0.002177
954.1713	0.002514
954.4128	0.002029
954.6543	0.001966
954.8958	0.001439
955.1373	-0.000016
955.3788	0.001545
955.6203	0.001523
955.8618	0.001882
956.1034	0.001566
956.3449	0.001439
956.5865	0.000575
956.8280	0.000996
957.0696	0.000954
957.3111	0.000596
957.5527	0.001566
957.7943	0.001502
958.0359	0.001418
958.2775	0.001165
958.5191	0.000933
958.7607	0.000764
959.0023	0.001671
959.2439	0.000828
959.4856	0.001123
959.7272	0.001228
959.9688	0.000659
960.2105	0.001397
960.4522	0.001734
960.6938	0.000532
960.9355	0.002557
961.1772	0.000807
961.4189	0.000996
961.6606	-0.000121
961.9023	0.000343
962.1440	0.001270
962.3857	0.002957
962.6274	0.001376
962.8692	0.000153
963.1109	-0.000838
963.3527	0.002282
963.5944	0.000933
963.8362	0.001228
964.0779	0.000047
964.3197	0.001502
964.5615	0.001439
964.8033	0.001228
965.0451	0.000659
965.2869	0.000954
965.5287	-0.000227
965.7705	0.001017
966.0123	0.000596
966.2542	0.000490
966.4960	0.001144
966.7379	0.001081
966.9797	0.002051
967.2216	0.000701
967.4634	0.001313
967.7053	0.001481
967.9472	0.000490
968.1891	0.001713
968.4310	0.001608
968.6729	0.000828
968.9148	0.000870
969.1567	0.000174
969.3987	0.001650
969.6406	0.001755
969.8825	0.000996
970.1245	0.001017
970.3664	0.001144
970.6084	0.001945
970.8504	0.001924
971.0923	0.002641
971.3343	0.000954
971.5763	0.001798
971.8183	0.001376
972.0603	0.000575
972.3023	0.000722
972.5443	0.000490
972.7864	0.001249
973.0284	0.001523
973.2704	-0.000353
973.5125	0.000912
973.7545	0.001945
973.9966	0.001776
974.2387	0.001334
974.4807	0.000448
974.7228	0.001291
974.9649	0.001207
975.2070	0.000026
975.4491	0.001228
975.6912	0.000659
975.9333	0.001102
976.1755	-0.000944
976.4176	0.001819
976.6597	0.000912
976.9019	0.001903
977.1440	0.001355
977.3862	0.001987
977.6283	0.001819
977.8705	0.000638
978.1127	0.001291
978.3549	0.001629
978.5971	0.000364
978.8393	0.001692
979.0815	0.001355
979.3237	0.000237
979.5659	-0.000163
979.8082	0.001481
980.0504	0.000807
980.2926	0.002578
980.5349	0.002620
980.7771	0.001313
981.0194	0.001334
981.2617	0.000954
981.5040	0.000638
981.7462	0.001587
981.9885	-0.000206
982.2308	0.001249
982.4731	0.001650
982.7155	0.001017
982.9578	0.001228
983.2001	0.001270
983.4424	0.000322
983.6848	0.001207
983.9271	0.000807
984.1695	0.000743
984.4118	0.000785
984.6542	0.002282
984.8966	0.000596
985.1390	0.001545
985.3814	-0.001534
985.6238	0.001165
985.8662	0.001460
986.1086	0.001861
986.3510	-0.000058
986.5934	0.000870
986.8358	0.000343
987.0783	0.000722
987.3207	-0.000311
987.5632	0.000975
987.8056	-0.000142
988.0481	0.000870
988.2906	-0.000395
988.5331	0.001038
988.7756	0.002156
989.0180	0.002282
989.2605	-0.000248
989.5031	0.002156
989.7456	0.001334
989.9881	0.000870
990.2306	0.000575
990.4732	0.001903
990.7157	0.001460
990.9582	0.001355
991.2008	0.001228
991.4434	0.001566
991.6859	-0.001070
991.9285	0.000153
992.1711	-0.000669
992.4137	0.000785
992.6563	-0.000206
992.8989	-0.000037
993.1415	0.000870
993.3841	0.001334
993.6267	0.001798
993.8694	0.001207
994.1120	0.001123
994.3547	0.001692
994.5973	0.000532
994.8400	0.002051
995.0826	0.000891
995.3253	0.000575
995.5680	0.001439
995.8107	0.002008
996.0534	0.001671
996.2961	-0.000986
996.5388	-0.000480
996.7815	0.001313
997.0242	-0.000585
997.2670	0.000195
997.5097	0.001439
997.7524	0.000322
997.9952	0.000933
998.2379	-0.000859
998.4807	0.001987
998.7235	0.001481
998.9662	0.001819
999.2090	0.001397
999.4518	0.000385
999.6946	0.001249
999.9374	0.001903
1000.1802	0.001692
1000.4230	0.000701
1000.6659	0.001439
1000.9087	0.001313
1001.1515	0.000638
1001.3944	0.001355
1001.6372	-0.000986
1001.8801	0.000511
1002.1230	0.000111
1002.3658	0.001165
1002.6087	0.000047
1002.8516	0.000153
1003.0945	-0.000691
1003.3374	0.000722
1003.5803	0.000870
1003.8232	0.000279
1004.0661	0.000448
1004.3091	0.000701
1004.5520	0.001608
1004.7949	0.000575
1005.0379	0.000912
1005.2808	0.000891
1005.5238	0.000596
1005.7667	0.001355
1006.0097	-0.000648
1006.2527	0.001123
1006.4957	0.002240
1006.7387	0.001060
1006.9817	0.000364
1007.2247	-0.000944
1007.4677	0.000785
1007.7107	0.000406
1007.9538	0.001713
1008.1968	-0.000311
1008.4398	0.000596
1008.6829	0.001523
1008.9259	0.000090
1009.1690	0.001334
1009.4121	0.000553
1009.6551	-0.000585
1009.8982	0.000343
1010.1413	-0.000332
1010.3844	0.000490
1010.6275	0.002219
1010.8706	0.000490
1011.1137	0.002620
1011.3568	0.000153
1011.6000	0.000490
1011.8431	0.000996
1012.0863	0.001840
1012.3294	0.000617
1012.5726	0.000870
1012.8157	-0.000269
1013.0589	0.001987
1013.3021	0.001228
1013.5452	0.000912
1013.7884	0.000975
1014.0316	0.000469
1014.2748	0.000996
1014.5180	0.002177
1014.7613	0.000364
1015.0045	0.001060
1015.2477	0.000954
1015.4909	0.000385
1015.7342	-0.000353
1015.9774	0.000617
1016.2207	0.000996
1016.4640	0.000174
1016.7072	-0.000606
1016.9505	0.000596
1017.1938	0.000828
1017.4371	0.000322
1017.6804	0.000132
1017.9237	0.000996
1018.1670	0.001186
1018.4103	0.002367
1018.6536	0.000532
1018.8969	0.000617
1019.1403	0.001291
1019.3836	0.000891
1019.6270	0.000174
1019.8703	-0.000100
1020.1137	0.000279
1020.3571	0.001882
1020.6004	0.000448
1020.8438	0.000912
1021.0872	0.000553
1021.3306	0.000026
1021.5740	0.001270
1021.8174	0.001123
1022.0608	0.001397
1022.3042	-0.000100
1022.5477	0.000701
1022.7911	0.001038
1023.0345	0.000427
