# Wavelength (nm)	Intensity (a.u.)
197.7802	0.000872
197.9842	-0.000816
198.1882	0.000429
198.3922	0.000619
198.5963	0.000239
198.8003	0.000070
199.0044	-0.000288
199.2085	-0.000162
199.4126	0.000492
199.6168	-0.000014
199.8209	0.000893
200.0251	-0.000584
200.2292	0.000893
200.4334	-0.000373
200.6376	0.000091
200.8418	-0.000331
201.0461	0.000028
201.2503	-0.000373
201.4546	0.002582
201.6589	-0.000816
201.8631	0.000345
202.0674	-0.000098
202.2718	-0.000056
202.4761	0.001252
202.6805	0.000281
202.8848	-0.000985
203.0892	-0.001365
203.2936	0.000324
203.4980	0.002075
203.7024	0.000155
203.9069	-0.000689
204.1113	-0.001069
204.3158	-0.000077
204.5203	0.001020
204.7248	0.000915
204.9293	0.000619
205.1338	0.000598
205.3384	-0.000056
205.5430	-0.000141
205.7475	0.000429
205.9521	-0.000162
206.1567	-0.000120
206.3614	-0.000352
206.5660	0.000767
206.7706	0.000408
206.9753	-0.000605
207.1800	0.000640
207.3847	0.000387
207.5894	0.001105
207.7941	-0.000436
207.9989	0.000324
208.2036	0.000535
208.4084	0.002075
208.6132	-0.000267
208.8180	0.001442
209.0228	0.000345
209.2276	0.000492
209.4325	0.000260
209.6373	-0.000922
209.8422	-0.000689
210.0471	0.000492
210.2520	0.000746
210.4569	0.000366
210.6618	0.000788
210.8668	0.001717
211.0718	-0.000162
211.2767	-0.001048
211.4817	0.000113
211.6867	0.002075
211.8918	0.000049
212.0968	0.000366
212.3018	-0.000162
212.5069	0.001337
212.7120	0.000408
212.9171	0.000893
213.1222	-0.000542
213.3273	0.001105
213.5325	-0.000267
213.7376	0.000007
213.9428	0.000134
214.1480	0.001358
214.3532	-0.000183
214.5584	0.001126
214.7636	0.000113
214.9689	-0.000689
215.1741	0.000366
215.3794	-0.000542
215.5847	-0.000879
215.7900	0.000830
215.9953	0.000408
216.2007	0.000767
216.4060	-0.000183
216.6114	0.001105
216.8168	-0.001470
217.0222	0.001252
217.2276	-0.000246
217.4330	0.000408
217.6384	-0.000246
217.8439	-0.000035
218.0494	0.001316
218.2548	0.000134
218.4603	-0.001470
218.6659	0.001252
218.8714	0.000640
219.0769	-0.000246
219.2825	0.000303
219.4881	-0.001175
219.6936	-0.000373
219.8992	0.001189
220.1049	0.001590
220.3105	0.001062
220.5161	0.000197
220.7218	-0.000689
220.9275	0.000366
221.1332	-0.000478
221.3389	0.001400
221.5446	0.000661
221.7503	-0.001386
221.9561	0.000514
222.1618	-0.000774
222.3676	0.001252
222.5734	-0.000098
222.7792	0.000345
222.9850	-0.000162
223.1909	0.000640
223.3967	-0.000415
223.6026	0.000915
223.8085	0.000028
224.0144	0.000936
224.2203	-0.000478
224.4262	0.000598
224.6322	0.000535
224.8381	0.000999
225.0441	0.000408
225.2501	0.000176
225.4561	0.000091
225.6621	0.001379
225.8681	0.000915
226.0742	0.000598
226.2802	0.001506
226.4863	0.000260
226.6924	0.000366
226.8985	0.001041
227.1046	-0.000943
227.3107	-0.000204
227.5169	-0.000647
227.7230	0.000915
227.9292	0.000303
228.1354	0.001316
228.3416	-0.001006
228.5478	-0.000415
228.7541	0.001674
228.9603	0.000028
229.1666	0.000239
229.3729	-0.000246
229.5791	0.000281
229.7855	0.000514
229.9918	0.001168
230.1981	0.001506
230.4045	-0.000711
230.6108	0.000851
230.8172	0.001147
231.0236	-0.000732
231.2300	0.000197
231.4364	0.000091
231.6429	-0.000331
231.8493	0.002160
232.0558	-0.001217
232.2623	-0.000879
232.4688	-0.000563
232.6753	0.000851
232.8818	-0.000267
233.0884	0.001759
233.2949	0.000682
233.5015	0.000176
233.7081	-0.000310
233.9147	-0.000352
234.1213	0.000387
234.3279	-0.001090
234.5346	-0.000542
234.7413	-0.000964
234.9479	0.000682
235.1546	0.000450
235.3613	-0.000162
235.5680	0.000134
235.7748	-0.000183
235.9815	0.000598
236.1883	0.000598
236.3951	0.001147
236.6018	0.000408
236.8087	0.002519
237.0155	0.000176
237.2223	-0.000816
237.4292	0.000725
237.6360	0.000640
237.8429	0.001843
238.0498	0.001041
238.2567	0.001231
238.4636	0.001949
238.6706	-0.001386
238.8775	-0.000056
239.0845	0.000830
239.2915	0.001210
239.4985	0.001632
239.7055	0.001316
239.9125	-0.000626
240.1195	-0.000267
240.3266	0.000049
240.5337	0.000661
240.7407	0.000978
240.9478	0.000556
241.1549	-0.001703
241.3621	0.000872
241.5692	-0.000183
241.7764	0.000049
241.9835	-0.000795
242.1907	0.000556
242.3979	0.000366
242.6051	0.000408
242.8124	-0.001808
243.0196	-0.000415
243.2269	0.000535
243.4341	-0.000204
243.6414	-0.000310
243.8487	0.000176
244.0560	0.000598
244.2634	0.001041
244.4707	-0.000141
244.6781	0.001970
244.8854	-0.000795
245.0928	0.000619
245.3002	-0.001766
245.5076	0.000028
245.7151	0.001083
245.9225	0.000176
246.1300	0.000303
246.3375	0.000619
246.5449	-0.000964
246.7524	0.000619
246.9600	0.000872
247.1675	0.000640
247.3750	0.000281
247.5826	0.001337
247.7902	0.001843
247.9978	0.000492
248.2054	-0.000901
248.4130	0.000682
248.6206	-0.000120
248.8283	-0.000141
249.0359	0.000408
249.2436	0.001294
249.4513	-0.000373
249.6590	0.000915
249.8667	0.000535
250.0745	0.000091
250.2822	0.001083
250.4900	0.000556
250.6978	0.000661
250.9056	0.001316
251.1134	0.000049
251.3212	0.000155
251.5290	0.001189
251.7369	-0.000605
251.9447	0.000725
252.1526	-0.000816
252.3605	0.000239
252.5684	0.001147
252.7763	0.000704
252.9843	0.000535
253.1922	0.000450
253.4002	0.001632
253.6082	0.000197
253.8162	-0.000626
254.0242	0.000134
254.2322	-0.000732
254.4402	0.000872
254.6483	0.000408
254.8564	-0.000288
255.0644	-0.000521
255.2725	0.001358
255.4806	-0.000014
255.6888	-0.000331
255.8969	0.001041
256.1051	-0.000035
256.3132	0.000682
256.5214	0.000851
256.7296	0.001252
256.9378	-0.000141
257.1460	-0.000225
257.3543	-0.000352
257.5625	0.001041
257.7708	0.000640
257.9791	-0.000077
258.1874	0.000324
258.3957	-0.000120
258.6040	-0.000373
258.8124	0.000091
259.0207	0.000049
259.2291	0.001294
259.4375	0.001062
259.6459	0.000851
259.8543	0.000725
260.0627	0.001168
260.2711	0.000134
260.4796	0.001632
260.6881	0.001210
260.8965	0.000851
261.1050	0.000324
261.3135	-0.000246
261.5221	-0.000183
261.7306	0.000070
261.9392	-0.000098
262.1477	0.000134
262.3563	0.000492
262.5649	0.000408
262.7735	-0.000943
262.9822	0.000471
263.1908	0.001189
263.3995	0.001484
263.6081	-0.001048
263.8168	0.000788
264.0255	0.000070
264.2342	0.000704
264.4429	-0.000331
264.6517	0.001273
264.8604	-0.001280
265.0692	0.000281
265.2780	-0.000246
265.4868	0.000471
265.6956	0.001358
265.9044	0.000957
266.1133	-0.000922
266.3221	0.001717
266.5310	-0.000394
266.7399	0.000450
266.9488	-0.000858
267.1577	0.001674
267.3666	-0.000162
267.5755	0.001885
267.7845	0.000725
267.9935	-0.001048
268.2024	0.001020
268.4114	0.000577
268.6205	0.001105
268.8295	0.000577
269.0385	0.000113
269.2476	0.001105
269.4566	0.000281
269.6657	-0.000014
269.8748	0.000408
270.0839	-0.000732
270.2931	0.000809
270.5022	0.000450
270.7114	-0.001027
270.9205	0.000091
271.1297	-0.000478
271.3389	0.000704
271.5481	0.000345
271.7573	0.001041
271.9666	-0.000056
272.1758	0.001020
272.3851	-0.000225
272.5944	0.001020
272.8037	-0.000605
273.0130	0.000049
273.2223	-0.000478
273.4316	0.000872
273.6410	0.000260
273.8504	0.000471
274.0597	-0.000816
274.2691	0.000577
274.4785	-0.001470
274.6880	0.000471
274.8974	0.001252
275.1069	0.000767
275.3163	0.001210
275.5258	0.000725
275.7353	-0.000098
275.9448	0.000514
276.1543	-0.001027
276.3639	0.000872
276.5734	-0.000077
276.7830	0.000155
276.9926	0.000514
277.2022	0.000851
277.4118	0.000957
277.6214	-0.000098
277.8310	-0.000098
278.0407	0.000725
278.2503	0.000830
278.4600	0.000197
278.6697	0.000091
278.8794	0.000239
279.0891	0.001083
279.2989	-0.000436
279.5086	-0.000668
279.7184	0.000028
279.9281	-0.000056
280.1379	-0.001027
280.3477	0.001506
280.5576	0.000450
280.7674	0.000619
280.9772	0.000492
281.1871	-0.000478
281.3970	-0.000098
281.6069	0.000915
281.8168	0.000324
282.0267	0.000788
282.2366	0.001780
282.4466	-0.001513
282.6565	-0.000816
282.8665	-0.000267
283.0765	-0.000310
283.2865	0.001020
283.4965	-0.000120
283.7065	0.000598
283.9166	-0.000563
284.1266	0.001316
284.3367	0.000535
284.5468	-0.000985
284.7569	0.000577
284.9670	0.001695
285.1771	0.001189
285.3873	0.000619
285.5974	0.000134
285.8076	-0.000141
286.0178	-0.000225
286.2280	0.001316
286.4382	0.000324
286.6484	-0.000267
286.8587	-0.000288
287.0689	0.000746
287.2792	0.000598
287.4895	-0.001618
287.6998	-0.000584
287.9101	0.000936
288.1204	0.000619
288.3308	0.000556
288.5411	-0.000056
288.7515	0.000788
288.9619	0.000028
289.1723	0.000957
289.3827	0.000915
289.5931	0.002730
289.8035	0.000408
290.0140	-0.001112
290.2245	-0.000732
290.4349	0.000176
290.6454	0.000767
290.8559	0.001273
291.0665	0.000514
291.2770	0.001210
291.4875	0.000218
291.6981	-0.000077
291.9087	0.000851
292.1193	-0.000647
292.3299	0.000113
292.5405	0.000535
292.7511	0.001294
292.9618	0.000957
293.1724	0.001252
293.3831	-0.000500
293.5938	0.000704
293.8045	0.001590
294.0152	0.000830
294.2260	-0.000521
294.4367	0.000957
294.6475	0.000176
294.8582	0.001780
295.0690	0.000155
295.2798	0.001674
295.4906	-0.001154
295.7015	-0.000373
295.9123	-0.000056
296.1232	0.001083
296.3340	-0.001555
296.5449	0.000577
296.7558	0.000134
296.9667	0.001801
297.1777	0.000070
297.3886	0.000260
297.5995	-0.000436
297.8105	0.000788
298.0215	0.001273
298.2325	0.000577
298.4435	-0.000647
298.6545	-0.000457
298.8656	0.000197
299.0766	-0.000183
299.2877	0.000725
299.4988	0.000197
299.7099	-0.000077
299.9210	-0.000204
300.1321	-0.000436
300.3432	0.001210
300.5544	0.000134
300.7655	0.000746
300.9767	-0.000774
301.1879	-0.000500
301.3991	-0.000858
301.6103	0.000471
301.8215	0.000450
302.0328	0.000514
302.2441	-0.000246
302.4553	0.001083
302.6666	-0.000478
302.8779	0.001168
303.0892	-0.000014
303.3006	0.000957
303.5119	-0.000500
303.7233	-0.000774
303.9346	-0.000605
304.1460	0.000281
304.3574	-0.001069
304.5688	-0.000183
304.7803	0.001083
304.9917	0.000725
305.2031	0.000028
305.4146	0.001801
305.6261	0.001527
305.8376	0.000915
306.0491	-0.000141
306.2606	0.000113
306.4722	0.000324
306.6837	0.002455
306.8953	0.001738
307.1069	-0.000035
307.3184	-0.000246
307.5301	0.001885
307.7417	0.000746
307.9533	0.000978
308.1650	0.000514
308.3766	0.001231
308.5883	0.001611
308.8000	0.000809
309.0117	-0.000457
309.2234	0.001105
309.4351	0.001273
309.6469	0.001273
309.8586	0.000450
310.0704	-0.000310
310.2822	0.000830
310.4940	0.000872
310.7058	0.001020
310.9176	0.001316
311.1295	0.000514
311.3413	0.000830
311.5532	0.001527
311.7651	0.001801
311.9770	-0.000711
312.1889	0.001168
312.4008	0.001337
312.6127	0.000851
312.8247	0.000640
313.0366	0.003131
313.2486	0.000260
313.4606	0.001421
313.6726	0.000387
313.8846	0.000682
314.0967	0.000134
314.3087	0.001379
314.5208	0.001527
314.7328	0.001337
314.9449	0.000936
315.1570	0.002202
315.3692	0.002392
315.5813	0.001569
315.7934	0.002118
316.0056	0.002392
316.2177	0.000872
316.4299	0.001484
316.6421	-0.000711
316.8543	0.001907
317.0666	0.000725
317.2788	0.001527
317.4911	0.000704
317.7033	0.001020
317.9156	0.001970
318.1279	0.000324
318.3402	0.001780
318.5525	0.001168
318.7649	0.002075
318.9772	0.002286
319.1896	-0.000183
319.4019	0.001210
319.6143	0.001843
319.8267	0.001759
320.0392	0.000324
320.2516	0.002244
320.4640	0.001632
320.6765	0.000471
320.8890	0.000893
321.1014	0.001463
321.3139	0.000239
321.5265	0.001780
321.7390	0.001611
321.9515	0.003046
322.1641	0.001780
322.3766	0.000872
322.5892	0.000915
322.8018	0.001590
323.0144	0.002286
323.2270	0.002624
323.4397	0.001717
323.6523	0.001695
323.8650	0.001337
324.0777	0.003321
324.2904	0.002624
324.5031	0.001885
324.7158	0.002793
324.9285	0.002709
325.1412	0.001674
325.3540	0.001484
325.5668	0.001421
325.7796	0.003257
325.9924	0.001864
326.2052	0.002097
326.4180	0.002244
326.6308	0.003067
326.8437	0.002286
327.0566	0.003553
327.2694	0.003173
327.4823	0.002920
327.6952	0.001717
327.9082	0.001885
328.1211	0.002455
328.3340	0.002012
328.5470	0.002118
328.7600	0.003616
328.9730	0.002118
329.1860	0.002054
329.3990	0.003257
329.6120	0.003257
329.8251	0.003131
330.0381	0.003869
330.2512	0.002687
330.4643	0.001611
330.6774	0.003553
330.8905	0.002160
331.1036	0.001463
331.3167	0.003067
331.5299	0.003067
331.7431	0.003342
331.9562	0.004587
332.1694	0.002920
332.3826	0.003173
332.5959	0.003743
332.8091	0.003152
333.0223	0.002751
333.2356	0.004481
333.4489	0.005642
333.6622	0.002666
333.8755	0.004819
334.0888	0.004080
334.3021	0.002730
334.5154	0.004038
334.7288	0.004503
334.9422	0.004207
335.1555	0.004080
335.3689	0.005790
335.5823	0.005832
335.7958	0.003806
336.0092	0.004671
336.2227	0.003236
336.4361	0.005516
336.6496	0.004334
336.8631	0.004460
337.0766	0.004693
337.2901	0.003067
337.5036	0.004756
337.7172	0.006423
337.9307	0.004798
338.1443	0.005262
338.3579	0.005938
338.5715	0.005642
338.7851	0.006465
338.9987	0.006318
339.2124	0.004671
339.4260	0.004798
339.6397	0.004376
339.8533	0.006676
340.0670	0.005136
340.2807	0.006719
340.4945	0.005853
340.7082	0.007077
340.9219	0.005896
341.1357	0.006275
341.3495	0.006487
341.5633	0.005600
341.7771	0.005051
341.9909	0.003912
342.2047	0.007415
342.4185	0.005917
342.6324	0.005030
342.8463	0.006740
343.0601	0.006529
343.2740	0.006782
343.4879	0.006001
343.7019	0.006824
343.9158	0.006423
344.1297	0.006149
344.3437	0.006550
344.5577	0.006402
344.7717	0.007394
344.9857	0.005051
345.1997	0.007289
345.4137	0.005938
345.6277	0.006465
345.8418	0.007289
346.0559	0.005938
346.2699	0.006233
346.4840	0.005094
346.6981	0.006803
346.9123	0.006782
347.1264	0.005874
347.3406	0.007711
347.5547	0.006993
347.7689	0.008893
347.9831	0.006550
348.1973	0.008048
348.4115	0.008449
348.6257	0.006508
348.8400	0.008006
349.0542	0.007120
349.2685	0.008196
349.4828	0.008154
349.6971	0.009040
349.9114	0.008766
350.1257	0.008344
350.3400	0.007542
350.5544	0.008703
350.7687	0.006676
350.9831	0.009019
351.1975	0.008724
351.4119	0.008449
351.6263	0.008893
351.8407	0.007035
352.0552	0.008871
352.2696	0.007415
352.4841	0.008871
352.6986	0.008639
352.9131	0.009610
353.1276	0.008344
353.3421	0.008914
353.5566	0.009547
353.7712	0.010539
353.9858	0.007690
354.2003	0.007753
354.4149	0.010201
354.6295	0.008850
354.8441	0.009272
355.0588	0.009462
355.2734	0.010096
355.4881	0.009842
355.7027	0.011003
355.9174	0.008597
356.1321	0.009758
356.3468	0.008618
356.5615	0.009547
356.7763	0.008850
356.9910	0.009104
357.2058	0.007922
357.4206	0.009695
357.6353	0.008112
357.8501	0.009990
358.0650	0.011573
358.2798	0.010264
358.4946	0.008048
358.7095	0.010877
358.9243	0.010539
359.1392	0.010581
359.3541	0.010243
359.5690	0.010792
359.7839	0.008154
359.9989	0.009505
360.2138	0.008956
360.4288	0.009990
360.6438	0.010750
360.8587	0.010623
361.0737	0.009019
361.2888	0.008428
361.5038	0.009378
361.7188	0.011088
361.9339	0.009863
362.1489	0.010708
362.3640	0.010180
362.5791	0.009526
362.7942	0.009526
363.0093	0.011024
363.2245	0.011066
363.4396	0.010096
363.6548	0.010138
363.8699	0.011974
364.0851	0.010476
364.3003	0.009673
364.5155	0.009589
364.7308	0.011552
364.9460	0.011763
365.1612	0.010518
365.3765	0.012797
365.5918	0.010961
365.8071	0.011742
366.0224	0.011341
366.2377	0.011045
366.4530	0.011573
366.6684	0.011805
366.8837	0.011636
367.0991	0.011974
367.3145	0.012058
367.5299	0.012058
367.7453	0.012143
367.9607	0.012523
368.1761	0.013852
368.3916	0.012080
368.6070	0.011679
368.8225	0.012417
369.0380	0.012818
369.2535	0.013662
369.4690	0.014570
369.6845	0.012966
369.9001	0.013261
370.1156	0.013240
370.3312	0.015203
370.5468	0.013684
370.7624	0.012692
370.9780	0.011341
371.1936	0.012734
371.4092	0.014021
371.6249	0.014443
371.8405	0.012248
372.0562	0.012417
372.2719	0.012755
372.4876	0.013240
372.7033	0.014760
372.9190	0.013029
373.1348	0.013557
373.3505	0.014465
373.5663	0.014275
373.7820	0.015119
373.9978	0.013557
374.2136	0.015942
374.4294	0.013747
374.6453	0.016216
374.8611	0.016849
375.0770	0.017419
375.2928	0.015077
375.5087	0.018137
375.7246	0.016638
375.9405	0.016849
376.1564	0.017841
376.3724	0.016343
376.5883	0.015604
376.8043	0.017630
377.0203	0.016786
377.2362	0.016828
377.4522	0.018538
377.6682	0.017525
377.8843	0.018137
378.1003	0.019445
378.3164	0.017166
378.5324	0.019614
378.7485	0.018855
378.9646	0.020480
379.1807	0.019910
379.3968	0.020522
379.6129	0.020226
379.8291	0.021218
380.0452	0.020142
380.2614	0.019678
380.4776	0.020606
380.6938	0.019530
380.9100	0.020248
381.1262	0.020691
381.3424	0.019741
381.5587	0.020649
381.7749	0.021134
381.9912	0.021113
382.2075	0.020712
382.4238	0.019593
382.6401	0.022020
382.8564	0.021809
383.0728	0.021873
383.2891	0.021809
383.5055	0.019804
383.7219	0.022844
383.9382	0.024384
384.1546	0.024089
384.3711	0.021957
384.5875	0.022210
384.8039	0.024806
385.0204	0.023624
385.2368	0.023498
385.4533	0.024089
385.6698	0.023329
385.8863	0.023076
386.1028	0.023603
386.3194	0.023181
386.5359	0.023434
386.7525	0.024870
386.9690	0.024891
387.1856	0.024405
387.4022	0.026073
387.6188	0.025039
387.8355	0.026009
388.0521	0.024680
388.2687	0.026073
388.4854	0.026769
388.7021	0.025503
388.9188	0.026748
389.1355	0.025672
389.3522	0.024511
389.5689	0.026854
389.7856	0.026326
390.0024	0.025672
390.2192	0.026495
390.4359	0.025250
390.6527	0.026453
390.8695	0.026157
391.0863	0.026854
391.3032	0.026875
391.5200	0.028458
391.7369	0.028310
391.9537	0.029703
392.1706	0.027993
392.3875	0.031412
392.6044	0.030231
392.8213	0.030568
393.0383	0.031244
393.2552	0.030779
393.4722	0.031898
393.6891	0.030315
393.9061	0.030526
394.1231	0.030062
394.3401	0.031159
394.5572	0.030653
394.7742	0.029576
394.9912	0.031434
395.2083	0.031792
395.4254	0.029893
395.6425	0.032003
395.8596	0.029830
396.0767	0.030737
396.2938	0.030632
396.5109	0.030484
396.7281	0.031729
396.9453	0.031286
397.1624	0.032995
397.3796	0.033671
397.5968	0.037934
397.8140	0.034663
398.0313	0.036056
398.2485	0.036837
398.4658	0.035824
398.6830	0.036879
398.9003	0.037385
399.1176	0.035739
399.3349	0.037111
399.5522	0.033481
399.7696	0.037407
399.9869	0.032890
400.2043	0.033776
400.4216	0.034578
400.6390	0.034895
400.8564	0.033903
401.0738	0.036393
401.2912	0.036668
401.5087	0.036161
401.7261	0.033354
401.9436	0.035127
402.1610	0.033439
402.3785	0.035190
402.5960	0.032995
402.8135	0.034409
403.0310	0.034325
403.2486	0.036119
403.4661	0.035465
403.6837	0.035401
403.9013	0.036225
404.1189	0.036203
404.3365	0.035401
404.5541	0.036436
404.7717	0.036457
404.9893	0.036182
405.2070	0.036668
405.4246	0.039179
405.6423	0.036562
405.8600	0.037660
406.0777	0.037892
406.2954	0.035929
406.5131	0.034452
406.7309	0.037259
406.9486	0.035465
407.1664	0.035655
407.3842	0.034642
407.6020	0.034262
407.8198	0.033882
408.0376	0.034874
408.2554	0.032953
408.4733	0.034916
408.6911	0.035634
408.9090	0.037048
409.1269	0.036288
409.3448	0.035613
409.5627	0.034789
409.7806	0.036161
409.9985	0.036963
410.2165	0.036056
410.4344	0.034979
410.6524	0.035866
410.8704	0.033291
411.0884	0.034747
411.3064	0.034853
411.5244	0.034536
411.7424	0.036161
411.9605	0.032827
412.1785	0.034030
412.3966	0.037153
412.6147	0.037090
412.8328	0.038209
413.0509	0.035887
413.2690	0.036942
413.4871	0.035697
413.7053	0.039243
413.9234	0.038103
414.1416	0.037343
414.3598	0.038736
414.5780	0.036035
414.7962	0.037554
415.0144	0.036942
415.2326	0.036014
415.4509	0.036541
415.6692	0.037554
415.8874	0.035401
416.1057	0.036858
416.3240	0.036288
416.5423	0.036921
416.7606	0.036415
416.9790	0.038398
417.1973	0.039707
417.4157	0.037934
417.6341	0.036752
417.8524	0.036520
418.0708	0.037069
418.2893	0.035676
418.5077	0.039348
418.7261	0.035085
418.9446	0.038103
419.1630	0.036879
419.3815	0.039580
419.6000	0.038610
419.8185	0.040192
420.0370	0.037681
420.2555	0.039095
420.4741	0.037850
420.6926	0.040551
420.9112	0.041016
421.1298	0.043506
421.3483	0.042029
421.5669	0.044836
421.7856	0.044604
422.0042	0.048529
422.2228	0.046756
422.4415	0.045722
422.6601	0.043168
422.8788	0.044815
423.0975	0.046018
423.3162	0.043696
423.5349	0.042366
423.7536	0.046630
423.9724	0.041923
424.1911	0.045532
424.4099	0.042029
424.6287	0.041227
424.8475	0.042155
425.0663	0.040952
425.2851	0.041733
425.5039	0.044245
425.7228	0.043675
425.9416	0.040446
426.1605	0.040256
426.3793	0.037195
426.5982	0.041058
426.8171	0.039939
427.0361	0.039264
427.2550	0.040171
427.4739	0.041754
427.6929	0.043654
427.9118	0.040720
428.1308	0.042662
428.3498	0.040678
428.5688	0.038926
428.7878	0.043358
429.0068	0.041881
429.2259	0.041670
429.4449	0.043295
429.6640	0.043823
429.8831	0.047875
430.1022	0.047411
430.3213	0.048761
430.5404	0.050070
430.7595	0.049943
430.9787	0.047643
431.1978	0.048044
431.4170	0.046904
431.6362	0.044688
431.8553	0.044329
432.0745	0.041944
432.2938	0.040340
432.5130	0.041733
432.7322	0.038989
432.9515	0.042556
433.1707	0.039369
433.3900	0.039749
433.6093	0.041206
433.8286	0.044646
434.0479	0.049437
434.2673	0.049416
434.4866	0.046967
434.7059	0.044371
434.9253	0.041184
435.1447	0.043337
435.3641	0.042831
435.5835	0.044435
435.8029	0.042873
436.0223	0.043295
436.2418	0.044224
436.4612	0.044582
436.6807	0.047136
436.9001	0.046165
437.1196	0.044625
437.3391	0.045448
437.5586	0.044772
437.7782	0.043675
437.9977	0.045490
438.2173	0.044941
438.4368	0.044414
438.6564	0.045047
438.8760	0.047263
439.0956	0.046144
439.3152	0.049648
439.5348	0.046292
439.7545	0.046925
439.9741	0.047179
440.1938	0.046060
440.4135	0.043464
440.6331	0.045617
440.8528	0.042240
441.0725	0.048170
441.2923	0.050492
441.5120	0.052476
441.7318	0.054122
441.9515	0.055769
442.1713	0.056486
442.3911	0.054692
442.6109	0.054038
442.8307	0.053953
443.0505	0.052434
443.2703	0.050893
443.4902	0.055747
443.7101	0.058280
443.9299	0.055051
444.1498	0.056803
444.3697	0.055114
444.5896	0.057267
444.8095	0.053595
445.0295	0.056296
445.2494	0.054798
445.4694	0.053447
445.6894	0.055621
445.9093	0.051505
446.1293	0.053806
446.3493	0.052349
446.5694	0.057352
446.7894	0.054967
447.0094	0.054038
447.2295	0.055494
447.4496	0.055389
447.6696	0.052539
447.8897	0.053025
448.1098	0.054924
448.3300	0.051927
448.5501	0.050978
448.7702	0.053827
448.9904	0.051547
449.2106	0.054481
449.4307	0.050640
449.6509	0.052919
449.8711	0.055135
450.0914	0.056043
450.3116	0.049036
450.5318	0.053088
450.7521	0.052772
450.9724	0.053869
451.1926	0.053426
451.4129	0.051083
451.6332	0.050028
451.8535	0.049880
452.0739	0.048909
452.2942	0.051737
452.5146	0.050133
452.7349	0.048529
452.9553	0.051146
453.1757	0.050281
453.3961	0.047263
453.6165	0.050956
453.8369	0.045321
454.0574	0.048930
454.2778	0.047685
454.4983	0.048297
454.7188	0.046693
454.9393	0.048065
455.1597	0.047917
455.3803	0.049036
455.6008	0.050682
455.8213	0.051590
456.0419	0.049542
456.2624	0.048382
456.4830	0.046250
456.7036	0.048192
456.9242	0.050619
457.1448	0.048783
457.3654	0.051843
457.5860	0.049732
457.8067	0.048951
458.0274	0.051484
458.2480	0.053679
458.4687	0.052054
458.6894	0.052181
458.9101	0.054354
459.1308	0.053742
459.3516	0.054017
459.5723	0.054038
459.7931	0.051590
460.0138	0.052159
460.2346	0.054270
460.4554	0.054650
460.6762	0.052075
460.8970	0.050703
461.1178	0.050450
461.3387	0.051885
461.5595	0.049711
461.7804	0.053658
462.0013	0.051927
462.2222	0.051569
462.4431	0.045005
462.6640	0.047305
462.8849	0.049563
463.1059	0.044857
463.3268	0.048360
463.5478	0.048783
463.7687	0.050978
463.9897	0.051505
464.2107	0.053764
464.4317	0.055684
464.6528	0.052940
464.8738	0.053806
465.0948	0.058069
465.3159	0.059335
465.5370	0.056887
465.7581	0.059420
465.9792	0.061552
466.2003	0.058449
466.4214	0.055895
466.6425	0.053932
466.8637	0.051801
467.0848	0.051801
467.3060	0.051906
467.5272	0.049859
467.7484	0.048656
467.9696	0.048382
468.1908	0.047981
468.4120	0.049395
468.6333	0.049690
468.8545	0.047622
469.0758	0.047326
469.2970	0.046102
469.5183	0.046060
469.7396	0.045553
469.9610	0.045427
470.1823	0.042071
470.4036	0.044224
470.6250	0.043105
470.8463	0.040488
471.0677	0.041163
471.2891	0.041628
471.5105	0.042134
471.7319	0.041923
471.9533	0.045574
472.1748	0.042704
472.3962	0.045110
472.6177	0.041860
472.8391	0.043464
473.0606	0.044582
473.2821	0.048065
473.5036	0.047854
473.7251	0.045997
473.9467	0.047685
474.1682	0.046018
474.3898	0.046419
474.6113	0.047558
474.8329	0.046271
475.0545	0.048635
475.2761	0.049669
475.4977	0.054566
475.7193	0.052518
475.9410	0.049141
476.1626	0.049669
476.3843	0.048867
476.6060	0.049922
476.8277	0.050429
477.0494	0.048213
477.2711	0.047833
477.4928	0.045511
477.7145	0.046271
477.9363	0.049184
478.1580	0.048888
478.3798	0.052371
478.6016	0.051822
478.8234	0.050281
479.0452	0.049247
479.2670	0.050070
479.4888	0.049395
479.7107	0.052560
479.9325	0.050049
480.1544	0.050218
480.3763	0.054460
480.5982	0.055325
480.8201	0.051104
481.0420	0.052202
481.2639	0.050534
481.4859	0.052919
481.7078	0.052940
481.9298	0.054798
482.1517	0.055241
482.3737	0.056170
482.5957	0.054186
482.8177	0.054798
483.0398	0.051189
483.2618	0.052307
483.4838	0.052961
483.7059	0.053447
483.9280	0.055769
484.1501	0.053975
484.3721	0.054840
484.5943	0.057520
484.8164	0.060961
485.0385	0.060834
485.2606	0.061995
485.4828	0.063493
485.7050	0.083797
485.9271	0.138714
486.1493	0.196122
486.3715	0.202517
486.5937	0.171428
486.8160	0.134092
487.0382	0.116342
487.2605	0.110601
487.4827	0.101336
487.7050	0.084367
487.9273	0.069361
488.1496	0.062121
488.3719	0.058808
488.5942	0.056275
488.8165	0.055135
489.0389	0.057605
489.2612	0.054017
489.4836	0.054566
489.7060	0.055832
489.9284	0.052286
490.1508	0.052624
490.3732	0.055874
490.5956	0.051400
490.8180	0.050851
491.0405	0.053173
491.2630	0.054291
491.4854	0.054924
491.7079	0.050788
491.9304	0.052117
492.1529	0.050640
492.3755	0.051125
492.5980	0.050724
492.8205	0.055135
493.0431	0.053700
493.2657	0.050640
493.4882	0.052075
493.7108	0.056972
493.9334	0.053742
494.1561	0.053489
494.3787	0.054122
494.6013	0.055579
494.8240	0.053363
495.0466	0.056465
495.2693	0.053764
495.4920	0.049563
495.7147	0.049268
495.9374	0.049964
496.1601	0.051547
496.3829	0.057689
496.6056	0.058196
496.8284	0.058280
497.0511	0.056803
497.2739	0.058238
497.4967	0.054291
497.7195	0.051758
497.9423	0.050323
498.1652	0.050830
498.3880	0.046967
498.6109	0.051442
498.8337	0.049964
499.0566	0.053531
499.2795	0.053721
499.5024	0.055959
499.7253	0.054354
499.9482	0.056233
500.1712	0.056908
500.3941	0.054924
500.6171	0.052919
500.8400	0.053426
501.0630	0.054080
501.2860	0.053975
501.5090	0.055135
501.7320	0.058196
501.9551	0.056043
502.1781	0.054397
502.4012	0.056127
502.6242	0.055579
502.8473	0.057140
503.0704	0.057162
503.2935	0.054692
503.5166	0.059800
503.7397	0.057837
503.9628	0.056676
504.1860	0.058006
504.4092	0.053890
504.6323	0.052349
504.8555	0.053616
505.0787	0.050049
505.3019	0.055030
505.5251	0.051294
505.7483	0.052202
505.9716	0.052476
506.1948	0.050091
506.4181	0.052244
506.6414	0.055874
506.8647	0.055790
507.0880	0.056634
507.3113	0.050281
507.5346	0.049310
507.7579	0.047432
507.9813	0.047263
508.2046	0.050577
508.4280	0.050070
508.6514	0.052096
508.8748	0.049880
509.0982	0.049901
509.3216	0.049880
509.5450	0.047727
509.7685	0.047959
509.9919	0.049986
510.2154	0.048550
510.4388	0.050007
510.6623	0.048213
510.8858	0.050492
511.1093	0.050218
511.3329	0.048614
511.5564	0.050408
511.7799	0.047981
512.0035	0.050112
512.2270	0.050956
512.4506	0.047981
512.6742	0.045553
512.8978	0.046777
513.1214	0.046250
513.3451	0.048951
513.5687	0.046102
513.7923	0.046566
514.0160	0.046271
514.2397	0.044730
514.4634	0.046018
514.6871	0.047284
514.9108	0.043443
515.1345	0.045068
515.3582	0.043021
515.5819	0.042472
515.8057	0.040340
516.0295	0.040910
516.2532	0.044582
516.4770	0.042514
516.7008	0.045638
516.9246	0.041058
517.1485	0.043084
517.3723	0.045659
517.5961	0.041944
517.8200	0.043147
518.0439	0.040868
518.2677	0.041501
518.4916	0.041649
518.7155	0.042345
518.9395	0.039369
519.1634	0.042514
519.3873	0.041311
519.6113	0.043211
519.8352	0.044287
520.0592	0.041459
520.2832	0.040425
520.5072	0.039728
520.7312	0.037238
520.9552	0.038061
521.1792	0.041142
521.4033	0.039981
521.6273	0.039834
521.8514	0.037808
522.0755	0.036794
522.2996	0.036014
522.5237	0.040361
522.7478	0.038230
522.9719	0.038209
523.1960	0.038420
523.4202	0.038103
523.6443	0.039517
523.8685	0.037385
524.0927	0.039074
524.3169	0.039918
524.5411	0.038926
524.7653	0.039095
524.9895	0.038145
525.2138	0.040129
525.4380	0.038377
525.6623	0.038420
525.8865	0.038631
526.1108	0.038398
526.3351	0.037575
526.5594	0.038187
526.7837	0.038356
527.0081	0.036837
527.2324	0.037955
527.4568	0.040340
527.6811	0.040066
527.9055	0.038525
528.1299	0.036182
528.3543	0.039032
528.5787	0.038356
528.8031	0.039580
529.0276	0.041585
529.2520	0.041564
529.4765	0.041564
529.7009	0.043717
529.9254	0.041797
530.1499	0.040361
530.3744	0.037955
530.5989	0.040995
530.8234	0.037618
531.0480	0.040657
531.2725	0.039496
531.4971	0.040235
531.7217	0.037892
531.9462	0.037470
532.1708	0.041184
532.3954	0.038905
532.6200	0.036225
532.8447	0.038652
533.0693	0.039728
533.2940	0.042810
533.5186	0.045511
533.7433	0.048149
533.9680	0.044139
534.1927	0.045659
534.4174	0.044688
534.6421	0.046123
534.8668	0.046419
535.0916	0.047052
535.3163	0.047179
535.5411	0.046630
535.7659	0.046545
535.9907	0.045110
536.2155	0.046862
536.4403	0.043802
536.6651	0.042704
536.8899	0.040889
537.1148	0.040931
537.3396	0.041396
537.5645	0.040382
537.7894	0.042071
538.0143	0.041839
538.2392	0.045532
538.4641	0.044772
538.6890	0.043992
538.9139	0.045638
539.1389	0.047221
539.3638	0.048360
539.5888	0.049563
539.8138	0.051379
540.0388	0.048698
540.2638	0.046503
540.4888	0.045173
540.7138	0.046841
540.9389	0.047200
541.1639	0.045764
541.3890	0.049036
541.6140	0.048487
541.8391	0.048424
542.0642	0.045490
542.2893	0.049395
542.5144	0.049141
542.7396	0.049036
542.9647	0.047854
543.1899	0.051379
543.4150	0.048360
543.6402	0.048382
543.8654	0.048972
544.0906	0.050218
544.3158	0.051737
544.5410	0.051653
544.7662	0.054755
544.9915	0.054017
545.2167	0.050978
545.4420	0.053848
545.6673	0.050893
545.8926	0.049732
546.1179	0.048593
546.3432	0.048466
546.5685	0.046419
546.7938	0.048698
547.0192	0.045912
547.2445	0.044435
547.4699	0.050577
547.6953	0.050260
547.9206	0.049838
548.1460	0.053890
548.3715	0.056803
548.5969	0.059124
548.8223	0.055051
549.0478	0.057204
549.2732	0.053194
549.4987	0.051336
549.7242	0.048445
549.9496	0.051210
550.1751	0.046967
550.4007	0.052286
550.6262	0.047432
550.8517	0.047031
551.0773	0.047200
551.3028	0.044794
551.5284	0.044772
551.7540	0.042831
551.9796	0.048424
552.2052	0.051294
552.4308	0.053173
552.6564	0.055642
552.8820	0.055114
553.1077	0.051210
553.3333	0.053932
553.5590	0.052434
553.7847	0.052856
554.0104	0.054650
554.2361	0.052961
554.4618	0.050302
554.6875	0.050302
554.9132	0.049331
555.1390	0.051210
555.3648	0.048698
555.5905	0.050007
555.8163	0.053975
556.0421	0.056507
556.2679	0.057267
556.4937	0.056697
556.7195	0.057225
556.9454	0.053658
557.1712	0.051020
557.3971	0.051146
557.6230	0.049711
557.8488	0.050978
558.0747	0.053088
558.3006	0.054397
558.5266	0.050682
558.7525	0.049141
558.9784	0.047981
559.2044	0.046820
559.4303	0.044667
559.6563	0.046967
559.8823	0.046060
560.1083	0.049458
560.3343	0.050724
560.5603	0.055135
560.7863	0.057330
561.0124	0.058280
561.2384	0.060264
561.4645	0.062818
561.6905	0.062607
561.9166	0.060792
562.1427	0.061362
562.3688	0.059779
562.5949	0.058048
562.8211	0.057795
563.0472	0.056634
563.2733	0.055853
563.4995	0.058576
563.7257	0.062797
563.9519	0.058702
564.1781	0.061446
564.4043	0.060285
564.6305	0.060771
564.8567	0.063134
565.0829	0.061277
565.3092	0.062016
565.5355	0.063578
565.7617	0.064760
565.9880	0.062248
566.2143	0.063113
566.4406	0.063092
566.6669	0.064971
566.8932	0.065920
567.1196	0.064654
567.3459	0.071070
567.5723	0.077360
567.7987	0.081813
568.0250	0.082847
568.2514	0.081623
568.4778	0.084726
568.7043	0.091543
568.9307	0.092303
569.1571	0.097052
569.3836	0.108639
569.6100	0.111826
569.8365	0.121239
570.0630	0.138778
570.2895	0.144941
570.5160	0.146756
570.7425	0.146608
570.9690	0.152138
571.1956	0.160137
571.4221	0.169803
571.6487	0.176346
571.8752	0.174953
572.1018	0.186561
572.3284	0.190402
572.5550	0.189073
572.7816	0.176599
573.0082	0.164400
573.2349	0.154417
573.4615	0.170373
573.6882	0.187194
573.9149	0.200765
574.1415	0.205873
574.3682	0.210432
574.5949	0.223644
574.8216	0.226916
575.0484	0.227971
575.2751	0.227612
575.5018	0.232720
575.7286	0.226979
575.9554	0.218959
576.1821	0.206169
576.4089	0.205831
576.6357	0.213323
576.8626	0.218642
577.0894	0.232931
577.3162	0.237110
577.5431	0.237447
577.7699	0.244349
577.9968	0.303783
578.2237	0.313998
578.4505	0.301525
578.6774	0.278836
578.9044	0.266763
579.1313	0.252348
579.3582	0.239769
579.5851	0.236983
579.8121	0.247789
580.0391	0.255767
580.2660	0.250913
580.4930	0.260938
580.7200	0.254437
580.9470	0.245088
581.1741	0.252897
581.4011	0.290655
581.6281	0.352622
581.8552	0.388860
582.0822	0.389282
582.3093	0.381157
582.5364	0.369169
582.7635	0.343420
582.9906	0.306548
583.2177	0.286645
583.4449	0.264948
583.6720	0.241141
583.8991	0.234682
584.1263	0.224404
584.3535	0.223285
584.5807	0.229575
584.8079	0.231411
585.0351	0.242492
585.2623	0.262226
585.4895	0.274361
585.7167	0.281854
585.9440	0.271449
586.1713	0.264484
586.3985	0.252876
586.6258	0.234007
586.8531	0.230398
587.0804	0.233311
587.3077	0.246312
587.5350	0.263323
587.7624	0.265729
587.9897	0.262838
588.2171	0.251462
588.4445	0.236012
588.6718	0.229659
588.8992	0.224425
589.1266	0.212775
589.3540	0.203171
589.5815	0.192175
589.8089	0.186371
590.0363	0.182023
590.2638	0.182129
590.4913	0.176810
590.7187	0.167587
590.9462	0.162501
591.1737	0.156422
591.4012	0.148529
591.6288	0.145046
591.8563	0.147241
592.0838	0.148381
592.3114	0.143062
592.5389	0.147178
592.7665	0.167629
592.9941	0.204480
593.2217	0.220457
593.4493	0.225311
593.6769	0.224953
593.9046	0.218515
594.1322	0.212817
594.3598	0.200343
594.5875	0.189411
594.8152	0.189600
595.0429	0.199584
595.2705	0.211065
595.4983	0.216743
595.7260	0.211656
595.9537	0.202707
596.1814	0.189474
596.4092	0.181707
596.6369	0.166806
596.8647	0.156443
597.0925	0.155599
597.3203	0.158512
597.5481	0.161867
597.7759	0.164949
598.0037	0.165878
598.2315	0.157646
598.4594	0.152349
598.6872	0.153953
598.9151	0.172653
599.1430	0.189643
599.3709	0.196608
599.5988	0.202454
599.8267	0.190255
600.0546	0.190698
600.2825	0.200386
600.5105	0.199795
600.7384	0.197410
600.9664	0.196270
601.1944	0.201378
601.4223	0.202348
601.6503	0.199541
601.8783	0.191057
602.1064	0.180947
602.3344	0.178604
602.5624	0.178858
602.7905	0.179892
603.0185	0.184936
603.2466	0.185759
603.4747	0.198486
603.7028	0.202032
603.9309	0.201103
604.1590	0.193948
604.3871	0.187849
604.6152	0.178647
604.8434	0.174826
605.0715	0.165941
605.2997	0.166089
605.5279	0.167925
605.7561	0.173075
605.9843	0.183205
606.2125	0.188165
606.4407	0.183015
606.6689	0.171133
606.8972	0.165983
607.1254	0.167925
607.3537	0.162290
607.5819	0.167038
607.8102	0.169444
608.0385	0.168748
608.2668	0.162311
608.4951	0.160285
608.7235	0.153383
608.9518	0.153911
609.1801	0.150977
609.4085	0.144941
609.6369	0.142260
609.8653	0.139833
610.0936	0.148149
610.3220	0.155071
610.5505	0.163619
610.7789	0.154016
611.0073	0.146144
611.2357	0.147663
611.4642	0.143083
611.6927	0.142577
611.9211	0.143780
612.1496	0.147579
612.3781	0.140382
612.6066	0.135760
612.8351	0.135506
613.0637	0.134156
613.2922	0.135823
613.5208	0.133501
613.7493	0.136245
613.9779	0.133164
614.2065	0.130947
614.4351	0.133142
614.6637	0.137047
614.8923	0.131792
615.1209	0.132784
615.3495	0.127317
615.5782	0.138145
615.8068	0.138334
616.0355	0.141543
616.2642	0.133839
616.4929	0.123793
616.7216	0.117988
616.9503	0.114928
617.1790	0.115224
617.4077	0.114042
617.6365	0.111994
617.8652	0.115203
618.0940	0.115456
618.3227	0.116954
618.5515	0.111804
618.7803	0.108090
619.0091	0.100027
619.2379	0.096946
619.4667	0.095384
619.6956	0.092978
619.9244	0.094920
620.1533	0.097389
620.3821	0.101758
620.6110	0.101800
620.8399	0.098719
621.0688	0.088968
621.2977	0.083649
621.5266	0.078120
621.7556	0.076262
621.9845	0.080019
622.2135	0.084620
622.4424	0.085274
622.6714	0.089348
622.9004	0.086414
623.1294	0.087955
623.3584	0.091522
623.5874	0.094624
623.8164	0.093653
624.0454	0.093105
624.2745	0.089095
624.5035	0.089074
624.7326	0.094181
624.9617	0.096693
625.1908	0.093020
625.4199	0.090065
625.6490	0.085887
625.8781	0.082953
626.1072	0.083079
626.3364	0.077782
626.5655	0.078753
626.7947	0.073519
627.0238	0.075397
627.2530	0.071619
627.4822	0.075735
627.7114	0.072126
627.9406	0.075249
628.1698	0.070733
628.3991	0.065541
628.6283	0.060728
628.8576	0.061636
629.0868	0.057204
629.3161	0.061573
629.5454	0.062079
629.7747	0.066891
630.0040	0.066511
630.2333	0.063367
630.4626	0.059631
630.6920	0.061425
630.9213	0.059905
631.1507	0.058111
631.3801	0.055832
631.6094	0.051970
631.8388	0.053890
632.0682	0.053236
632.2976	0.054080
632.5271	0.052413
632.7565	0.049817
632.9859	0.050492
633.2154	0.046187
633.4448	0.047875
633.6743	0.045005
633.9038	0.045427
634.1333	0.043422
634.3628	0.047812
634.5923	0.043485
634.8218	0.045828
635.0514	0.042957
635.2809	0.042303
635.5105	0.041670
635.7400	0.041311
635.9696	0.042915
636.1992	0.043548
636.4288	0.047706
636.6584	0.045469
636.8880	0.049986
637.1177	0.048424
637.3473	0.045912
637.5770	0.043717
637.8066	0.043042
638.0363	0.041881
638.2660	0.044160
638.4957	0.045891
638.7254	0.044224
638.9551	0.041797
639.1848	0.043591
639.4145	0.043485
639.6443	0.042347
639.8740	0.040888
640.1038	0.039714
640.3336	0.038563
640.5633	0.037175
640.7931	0.037946
641.0229	0.037535
641.2528	0.037571
641.4826	0.037184
641.7124	0.035124
641.9423	0.034412
642.1721	0.033607
642.4020	0.031439
642.6319	0.031332
642.8617	0.030050
643.0916	0.030782
643.3216	0.030469
643.5515	0.032004
643.7814	0.031796
644.0113	0.030399
644.2413	0.030907
644.4712	0.028887
644.7012	0.029822
644.9312	0.027588
645.1612	0.027771
645.3912	0.028199
645.6212	0.028237
645.8512	0.028945
646.0812	0.028107
646.3113	0.025482
646.5413	0.025656
646.7714	0.026204
647.0015	0.024929
647.2316	0.025110
647.4616	0.023397
647.6918	0.026309
647.9219	0.028320
648.1520	0.028987
648.3821	0.030446
648.6123	0.033502
648.8424	0.030666
649.0726	0.034165
649.3028	0.035483
649.5329	0.034778
649.7631	0.033887
649.9933	0.033592
650.2236	0.032321
650.4538	0.031179
650.6840	0.030937
650.9143	0.029941
651.1445	0.029671
651.3748	0.028112
651.6051	0.028683
651.8354	0.029819
652.0657	0.030101
652.2960	0.031183
652.5263	0.033091
652.7566	0.033087
652.9870	0.033587
653.2173	0.032076
653.4477	0.032939
653.6780	0.032058
653.9084	0.032991
654.1388	0.031844
654.3692	0.034224
654.5996	0.034339
654.8300	0.036034
655.0605	0.039830
655.2909	0.064747
655.5213	0.183101
655.7518	0.528055
655.9823	0.984272
656.2128	1.000000
656.4433	1.000000
656.6738	1.000000
656.9043	1.000000
657.1348	1.000000
657.3653	0.899020
657.5959	0.721623
657.8264	0.617027
658.0570	0.540968
658.2875	0.493353
658.5181	0.453390
658.7487	0.406032
658.9793	0.383485
659.2099	0.377569
659.4406	0.320038
659.6712	0.238356
659.9018	0.149386
660.1325	0.089037
660.3632	0.055471
660.5938	0.038393
660.8245	0.030556
661.0552	0.024886
661.2859	0.025199
661.5166	0.024412
661.7474	0.023785
661.9781	0.023419
662.2088	0.022986
662.4396	0.021914
662.6704	0.022085
662.9011	0.022807
663.1319	0.021602
663.3627	0.021369
663.5935	0.020667
663.8243	0.023097
664.0552	0.021940
664.2860	0.020536
664.5168	0.020780
664.7477	0.023913
664.9786	0.022925
665.2094	0.024143
665.4403	0.025320
665.6712	0.026606
665.9021	0.026628
666.1330	0.026356
666.3640	0.024903
666.5949	0.023515
666.8259	0.024427
667.0568	0.022355
667.2878	0.020840
667.5188	0.020671
667.7497	0.020943
667.9807	0.023169
668.2117	0.021069
668.4428	0.022886
668.6738	0.021936
668.9048	0.021493
669.1359	0.021788
669.3669	0.020691
669.5980	0.020332
669.8291	0.020691
670.0602	0.021493
670.2913	0.021598
670.5224	0.024574
670.7535	0.022147
670.9846	0.022379
671.2157	0.022358
671.4469	0.023456
671.6781	0.027297
671.9092	0.028964
672.1404	0.030589
672.3716	0.034473
672.6028	0.035655
672.8340	0.037343
673.0652	0.035486
673.2964	0.034093
673.5277	0.031687
673.7589	0.032995
673.9902	0.030526
674.2214	0.029555
674.4527	0.028774
674.6840	0.030674
674.9153	0.026748
675.1466	0.025819
675.3779	0.028437
675.6093	0.027635
675.8406	0.027234
676.0719	0.026073
676.3033	0.026305
676.5347	0.026748
676.7661	0.025693
676.9974	0.025334
677.2288	0.024975
677.4602	0.025123
677.6917	0.025039
677.9231	0.029281
678.1545	0.029175
678.3860	0.029006
678.6174	0.031223
678.8489	0.029175
679.0804	0.031687
679.3119	0.032383
679.5434	0.035296
679.7749	0.035127
680.0064	0.034431
680.2379	0.036921
680.4694	0.034747
680.7010	0.035929
680.9325	0.031666
681.1641	0.033629
681.3957	0.034853
681.6273	0.034008
681.8589	0.035845
682.0905	0.036478
682.3221	0.033945
682.5537	0.033966
682.7854	0.031244
683.0170	0.031497
683.2487	0.029196
683.4803	0.030822
683.7120	0.030294
683.9437	0.033164
684.1754	0.033861
684.4071	0.033903
684.6388	0.032911
684.8705	0.036900
685.1023	0.040171
685.3340	0.041079
685.5658	0.046208
685.7975	0.045385
686.0293	0.045638
686.2611	0.044815
686.4929	0.043633
686.7247	0.044582
686.9565	0.043823
687.1883	0.044857
687.4202	0.045279
687.6520	0.044646
687.8838	0.043443
688.1157	0.042451
688.3476	0.041628
688.5795	0.038272
688.8114	0.039728
689.0433	0.038863
689.2752	0.037301
689.5071	0.038082
689.7390	0.037385
689.9710	0.037575
690.2029	0.034578
690.4349	0.035064
690.6669	0.034367
690.8988	0.033882
691.1308	0.034409
691.3628	0.037955
691.5948	0.040467
691.8269	0.038905
692.0589	0.038673
692.2909	0.037385
692.5230	0.039264
692.7550	0.039158
692.9871	0.037913
693.2192	0.039032
693.4513	0.038926
693.6834	0.039939
693.9155	0.038293
694.1476	0.037554
694.3797	0.035591
694.6119	0.034304
694.8440	0.035190
695.0762	0.033734
695.3083	0.036520
695.5405	0.035655
695.7727	0.032658
696.0049	0.030505
696.2371	0.030695
696.4693	0.031412
696.7016	0.032995
696.9338	0.036541
697.1660	0.042409
697.3983	0.040024
697.6306	0.040214
697.8628	0.038398
698.0951	0.038377
698.3274	0.040973
698.5597	0.038209
698.7920	0.038145
699.0243	0.038441
699.2567	0.037322
699.4890	0.037596
699.7214	0.035000
699.9537	0.033586
700.1861	0.034241
700.4185	0.031096
700.6509	0.032003
700.8833	0.033671
701.1157	0.029893
701.3481	0.029070
701.5806	0.029977
701.8130	0.027719
702.0454	0.030463
702.2779	0.028964
702.5104	0.031201
702.7429	0.033249
702.9753	0.031370
703.2078	0.031370
703.4403	0.030526
703.6729	0.031096
703.9054	0.031476
704.1379	0.029534
704.3705	0.027677
704.6030	0.028394
704.8356	0.027191
705.0682	0.025798
705.3008	0.025250
705.5334	0.024680
705.7660	0.024131
705.9986	0.025123
706.2312	0.024806
706.4638	0.026854
706.6965	0.029365
706.9291	0.033270
707.1618	0.036921
707.3945	0.040361
707.6272	0.037829
707.8599	0.038947
708.0926	0.039580
708.3253	0.038694
708.5580	0.038757
708.7907	0.039390
709.0235	0.038968
709.2562	0.034557
709.4890	0.033671
709.7217	0.033734
709.9545	0.035697
710.1873	0.033713
710.4201	0.034705
710.6529	0.034705
710.8857	0.036794
711.1186	0.035148
711.3514	0.032552
711.5842	0.030420
711.8171	0.031919
712.0500	0.033270
712.2828	0.029766
712.5157	0.028943
712.7486	0.027846
712.9815	0.031687
713.2144	0.028711
713.4474	0.029830
713.6803	0.031476
713.9132	0.034599
714.1462	0.033312
714.3791	0.034515
714.6121	0.035127
714.8451	0.033882
715.0781	0.034916
715.3111	0.034198
715.5441	0.036056
715.7771	0.033671
716.0102	0.032763
716.2432	0.035528
716.4762	0.027846
716.7093	0.029217
716.9424	0.028183
717.1754	0.029998
717.4085	0.028795
717.6416	0.027782
717.8747	0.026220
718.1078	0.029429
718.3410	0.029239
718.5741	0.031180
718.8072	0.029070
719.0404	0.029808
719.2736	0.030800
719.5067	0.031412
719.7399	0.030273
719.9731	0.029281
720.2063	0.029851
720.4395	0.029154
720.6727	0.029112
720.9060	0.028732
721.1392	0.030104
721.3725	0.030779
721.6057	0.028183
721.8390	0.031434
722.0723	0.030315
722.3055	0.030420
722.5388	0.029091
722.7721	0.029133
723.0055	0.028690
723.2388	0.029407
723.4721	0.027930
723.7055	0.029281
723.9388	0.031750
724.1722	0.030273
724.4056	0.027909
724.6389	0.026664
724.8723	0.026558
725.1057	0.028415
725.3391	0.029977
725.5726	0.032109
725.8060	0.033481
726.0394	0.035697
726.2729	0.032341
726.5063	0.033523
726.7398	0.035064
726.9733	0.033523
727.2068	0.031560
727.4403	0.034346
727.6738	0.033143
727.9073	0.033206
728.1408	0.034663
728.3743	0.033354
728.6079	0.035296
728.8414	0.036372
729.0750	0.032974
729.3086	0.035233
729.5421	0.033333
729.7757	0.038145
730.0093	0.038209
730.2429	0.037322
730.4766	0.039053
730.7102	0.037723
730.9438	0.040425
731.1775	0.043105
731.4111	0.043780
731.6448	0.042746
731.8785	0.043548
732.1122	0.043907
732.3458	0.042788
732.5795	0.041607
732.8133	0.043105
733.0470	0.042936
733.2807	0.044393
733.5145	0.044456
733.7482	0.042430
733.9820	0.044962
734.2157	0.048508
734.4495	0.051484
734.6833	0.053088
734.9171	0.053637
735.1509	0.049986
735.3847	0.048149
735.6185	0.046292
735.8524	0.048339
736.0862	0.048867
736.3201	0.050893
736.5539	0.048213
736.7878	0.049036
737.0217	0.049901
737.2556	0.047411
737.4895	0.049500
737.7234	0.049585
737.9573	0.047769
738.1912	0.046946
738.4252	0.042535
738.6591	0.041818
738.8931	0.041628
739.1271	0.044139
739.3610	0.044667
739.5950	0.046925
739.8290	0.046208
740.0630	0.047896
740.2970	0.043928
740.5310	0.045574
740.7651	0.041269
740.9991	0.040214
741.2332	0.037111
741.4672	0.036921
741.7013	0.035000
741.9354	0.034388
742.1695	0.033017
742.4036	0.035338
742.6377	0.034916
742.8718	0.035254
743.1059	0.033228
743.3400	0.034030
743.5742	0.033924
743.8083	0.031033
744.0425	0.031961
744.2767	0.030674
744.5108	0.028838
744.7450	0.029787
744.9792	0.030589
745.2134	0.030146
745.4477	0.030547
745.6819	0.029239
745.9161	0.027824
746.1504	0.030568
746.3846	0.029977
746.6189	0.029787
746.8532	0.027423
747.0874	0.029175
747.3217	0.029808
747.5560	0.032953
747.7903	0.032426
748.0247	0.031877
748.2590	0.030885
748.4933	0.029935
748.7277	0.029239
748.9620	0.027803
749.1964	0.029450
749.4308	0.031370
749.6652	0.031813
749.8995	0.034515
750.1339	0.035845
750.3684	0.040361
750.6028	0.038968
750.8372	0.042113
751.0717	0.041184
751.3061	0.037955
751.5406	0.038314
751.7750	0.041965
752.0095	0.040847
752.2440	0.041986
752.4785	0.040509
752.7130	0.039179
752.9475	0.038631
753.1820	0.039390
753.4166	0.038610
753.6511	0.038124
753.8856	0.039728
754.1202	0.045342
754.3548	0.043823
754.5894	0.040235
754.8239	0.040741
755.0585	0.039369
755.2931	0.042071
755.5278	0.044160
755.7624	0.046313
755.9970	0.040615
756.2317	0.045849
756.4663	0.047136
756.7010	0.046862
756.9356	0.051083
757.1703	0.050302
757.4050	0.051864
757.6397	0.056972
757.8744	0.060137
758.1091	0.061256
758.3438	0.061404
758.5786	0.058027
758.8133	0.056001
759.0481	0.054755
759.2828	0.055410
759.5176	0.056592
759.7524	0.060116
759.9872	0.059420
760.2220	0.061615
760.4568	0.063156
760.6916	0.063367
760.9264	0.065351
761.1613	0.063810
761.3961	0.062649
761.6310	0.059483
761.8658	0.054333
762.1007	0.053088
762.3356	0.051104
762.5705	0.049901
762.8054	0.049627
763.0403	0.048234
763.2752	0.048002
763.5101	0.052181
763.7450	0.051125
763.9800	0.053004
764.2149	0.051125
764.4499	0.053173
764.6849	0.056402
764.9198	0.058470
765.1548	0.058576
765.3898	0.059124
765.6248	0.057816
765.8599	0.056106
766.0949	0.055980
766.3299	0.051294
766.5650	0.049289
766.8000	0.042915
767.0351	0.042324
767.2701	0.041248
767.5052	0.040382
767.7403	0.038314
767.9754	0.039770
768.2105	0.037913
768.4456	0.042409
768.6808	0.042725
768.9159	0.049057
769.1510	0.050323
769.3862	0.048550
769.6214	0.046756
769.8565	0.044287
770.0917	0.044350
770.3269	0.044920
770.5621	0.045617
770.7973	0.046165
771.0325	0.044920
771.2677	0.048846
771.5030	0.050766
771.7382	0.048044
771.9735	0.046524
772.2087	0.043802
772.4440	0.041459
772.6793	0.042493
772.9146	0.041248
773.1499	0.040657
773.3852	0.041079
773.6205	0.040615
773.8558	0.038335
774.0911	0.039074
774.3265	0.037470
774.5618	0.035317
774.7972	0.035085
775.0326	0.031750
775.2679	0.030906
775.5033	0.030062
775.7387	0.029576
775.9741	0.029703
776.2095	0.027888
776.4450	0.028795
776.6804	0.027044
776.9158	0.024321
777.1513	0.027508
777.3868	0.026579
777.6222	0.026284
777.8577	0.025017
778.0932	0.025967
778.3287	0.026643
778.5642	0.025819
778.7997	0.029597
779.0352	0.029365
779.2707	0.031961
779.5063	0.032911
779.7418	0.033523
779.9774	0.031138
780.2130	0.030653
780.4485	0.028437
780.6841	0.029513
780.9197	0.029302
781.1553	0.029766
781.3909	0.033185
781.6265	0.034642
781.8622	0.035908
782.0978	0.037702
782.3335	0.035233
782.5691	0.032658
782.8048	0.038314
783.0405	0.034621
783.2761	0.033291
783.5118	0.033502
783.7475	0.034979
783.9832	0.036225
784.2190	0.034705
784.4547	0.033629
784.6904	0.031624
784.9262	0.029597
785.1619	0.029070
785.3977	0.032003
785.6335	0.030336
785.8692	0.031412
786.1050	0.030083
786.3408	0.028880
786.5766	0.031708
786.8124	0.027867
787.0483	0.029977
787.2841	0.027402
787.5199	0.028880
787.7558	0.028690
787.9917	0.031602
788.2275	0.031286
788.4634	0.030146
788.6993	0.030800
788.9352	0.031307
789.1711	0.032573
789.4070	0.031180
789.6429	0.031180
789.8789	0.030231
790.1148	0.026769
790.3507	0.027508
790.5867	0.026030
790.8227	0.025672
791.0586	0.025355
791.2946	0.024553
791.5306	0.024258
791.7666	0.023983
792.0026	0.023519
792.2387	0.022590
792.4747	0.022316
792.7107	0.021324
792.9468	0.022738
793.1828	0.023118
793.4189	0.022421
793.6550	0.022084
793.8910	0.024025
794.1271	0.026157
794.3632	0.030568
794.5993	0.030927
794.8355	0.032510
795.0716	0.031750
795.3077	0.033734
795.5439	0.032932
795.7800	0.031138
796.0162	0.029745
796.2523	0.028838
796.4885	0.026030
796.7247	0.023033
796.9609	0.022020
797.1971	0.023899
797.4333	0.022590
797.6695	0.025461
797.9058	0.023878
798.1420	0.024722
798.3783	0.021957
798.6145	0.022316
798.8508	0.024743
799.0871	0.022780
799.3233	0.024194
799.5596	0.022949
799.7959	0.022084
800.0322	0.022485
800.2686	0.022654
800.5049	0.020501
800.7412	0.020036
800.9776	0.020902
801.2139	0.017736
801.4503	0.020501
801.6867	0.018707
801.9230	0.018601
802.1594	0.019825
802.3958	0.018728
802.6322	0.015815
802.8686	0.018327
803.1051	0.018517
803.3415	0.018179
803.5779	0.018432
803.8144	0.019382
804.0508	0.017335
804.2873	0.016976
804.5238	0.018390
804.7603	0.017841
804.9968	0.018348
805.2333	0.018665
805.4698	0.018390
805.7063	0.018137
805.9428	0.018791
806.1794	0.018876
806.4159	0.022780
806.6525	0.023793
806.8890	0.026621
807.1256	0.025819
807.3622	0.025503
807.5988	0.023751
807.8354	0.023624
808.0720	0.022274
808.3086	0.022358
808.5452	0.023730
808.7818	0.023097
809.0185	0.023582
809.2551	0.021071
809.4918	0.024321
809.7284	0.021619
809.9651	0.018137
810.2018	0.019403
810.4385	0.020712
810.6752	0.018897
810.9119	0.020332
811.1486	0.017145
811.3853	0.018432
811.6221	0.016807
811.8588	0.018475
812.0956	0.017314
812.3323	0.016195
812.5691	0.015879
812.8059	0.015900
813.0427	0.014359
813.2795	0.015098
813.5163	0.014950
813.7531	0.017061
813.9899	0.017989
814.2267	0.018981
814.4636	0.018770
814.7004	0.019488
814.9373	0.016997
815.1742	0.017968
815.4110	0.017567
815.6479	0.015309
815.8848	0.014232
816.1217	0.014106
816.3586	0.013029
816.5955	0.013114
816.8324	0.015520
817.0694	0.013810
817.3063	0.014887
817.5433	0.015562
817.7802	0.015604
818.0172	0.016195
818.2542	0.013979
818.4912	0.013810
818.7282	0.015900
818.9652	0.014317
819.2022	0.013916
819.4392	0.012544
819.6762	0.014317
819.9133	0.012270
820.1503	0.012523
820.3874	0.011995
820.6244	0.013325
820.8615	0.015456
821.0986	0.016681
821.3357	0.015646
821.5727	0.015372
821.8099	0.015731
822.0470	0.014486
822.2841	0.012797
822.5212	0.013114
822.7584	0.014697
822.9955	0.013008
823.2327	0.012860
823.4698	0.012354
823.7070	0.011256
823.9442	0.013346
824.1814	0.010370
824.4186	0.010813
824.6558	0.011510
824.8930	0.011742
825.1302	0.011045
825.3675	0.011278
825.6047	0.011235
825.8419	0.014422
826.0792	0.013240
826.3165	0.014633
826.5537	0.012565
826.7910	0.012185
827.0283	0.011953
827.2656	0.013050
827.5029	0.013979
827.7402	0.013008
827.9776	0.014633
828.2149	0.013072
828.4522	0.013895
828.6896	0.014253
828.9270	0.013430
829.1643	0.012080
829.4017	0.012671
829.6391	0.013494
829.8765	0.012396
830.1139	0.011953
830.3513	0.010180
830.5887	0.013198
830.8261	0.010349
831.0636	0.009652
831.3010	0.009821
831.5385	0.009969
831.7759	0.009906
832.0134	0.007183
832.2509	0.008069
832.4884	0.007626
832.7259	0.008091
832.9634	0.008175
833.2009	0.008682
833.4384	0.009125
833.6759	0.009758
833.9135	0.008745
834.1510	0.009315
834.3886	0.009061
834.6261	0.009990
834.8637	0.011868
835.1013	0.009230
835.3389	0.011446
835.5765	0.011066
835.8141	0.009758
836.0517	0.009758
836.2893	0.010581
836.5269	0.009378
836.7646	0.007795
837.0022	0.007858
837.2399	0.008977
837.4775	0.007267
837.7152	0.006909
837.9529	0.007816
838.1906	0.007331
838.4283	0.005684
838.6660	0.007331
838.9037	0.006951
839.1414	0.004946
839.3791	0.007183
839.6169	0.007035
839.8546	0.006212
840.0924	0.008660
840.3302	0.007943
840.5679	0.005938
840.8057	0.008175
841.0435	0.007795
841.2813	0.007162
841.5191	0.006360
841.7569	0.005727
841.9947	0.008808
842.2326	0.006592
842.4704	0.005262
842.7082	0.005241
842.9461	0.006951
843.1840	0.004608
843.4218	0.005410
843.6597	0.005009
843.8976	0.004946
844.1355	0.005621
844.3734	0.006550
844.6113	0.006128
844.8492	0.006107
845.0872	0.006592
845.3251	0.005706
845.5631	0.003701
845.8010	0.005600
846.0390	0.005600
846.2770	0.005241
846.5149	0.005389
846.7529	0.005136
846.9909	0.003173
847.2289	0.004904
847.4669	0.004777
847.7050	0.006571
847.9430	0.004165
848.1810	0.006845
848.4191	0.005389
848.6571	0.005452
848.8952	0.003785
849.1333	0.004882
849.3713	0.004144
849.6094	0.006233
849.8475	0.004671
850.0856	0.003257
850.3237	0.004334
850.5619	0.003722
850.8000	0.004334
851.0381	0.004840
851.2763	0.005452
851.5144	0.003489
851.7526	0.005980
851.9908	0.005938
852.2289	0.006001
852.4671	0.006297
852.7053	0.006972
852.9435	0.007774
853.1817	0.010454
853.4200	0.012270
853.6582	0.014676
853.8964	0.012586
854.1347	0.012523
854.3729	0.013789
854.6112	0.013979
854.8495	0.015752
855.0877	0.015119
855.3260	0.013810
855.5643	0.013451
855.8026	0.013430
856.0409	0.011890
856.2792	0.013810
856.5176	0.011636
856.7559	0.012755
856.9942	0.010750
857.2326	0.010665
857.4710	0.011130
857.7093	0.012058
857.9477	0.011003
858.1861	0.009441
858.4245	0.010497
858.6629	0.010961
858.9013	0.009146
859.1397	0.010222
859.3781	0.008407
859.6166	0.009990
859.8550	0.008048
860.0935	0.007795
860.3319	0.006951
860.5704	0.006212
860.8089	0.007563
861.0473	0.008196
861.2858	0.008048
861.5243	0.006951
861.7628	0.006149
862.0013	0.005347
862.2399	0.003426
862.4784	0.005600
862.7169	0.005009
862.9555	0.005896
863.1940	0.006402
863.4326	0.007352
863.6712	0.006845
863.9098	0.007289
864.1483	0.007901
864.3869	0.006043
864.6255	0.007879
864.8642	0.006001
865.1028	0.006170
865.3414	0.005030
865.5800	0.005115
865.8187	0.005136
866.0573	0.004798
866.2960	0.005094
866.5347	0.006444
866.7733	0.006128
867.0120	0.005938
867.2507	0.005727
867.4894	0.005642
867.7281	0.005220
867.9669	0.004904
868.2056	0.006043
868.4443	0.005051
868.6831	0.006381
868.9218	0.005283
869.1606	0.005495
869.3993	0.004882
869.6381	0.004144
869.8769	0.004292
870.1157	0.004566
870.3545	0.004481
870.5933	0.005959
870.8321	0.005262
871.0709	0.006149
871.3097	0.005917
871.5486	0.005495
871.7874	0.005727
872.0263	0.004925
872.2651	0.004946
872.5040	0.006423
872.7429	0.004629
872.9818	0.005094
873.2207	0.005706
873.4596	0.005980
873.6985	0.005326
873.9374	0.006191
874.1763	0.005030
874.4153	0.005030
874.6542	0.004629
874.8932	0.004671
875.1321	0.006676
875.3711	0.005959
875.6101	0.005094
875.8491	0.006529
876.0880	0.005917
876.3270	0.006001
876.5661	0.006297
876.8051	0.004334
877.0441	0.006064
877.2831	0.005874
877.5222	0.006064
877.7612	0.004292
878.0003	0.005832
878.2393	0.006022
878.4784	0.007521
878.7175	0.006402
878.9566	0.007563
879.1957	0.005347
879.4348	0.008660
879.6739	0.007605
879.9130	0.008238
880.1521	0.007246
880.3913	0.007879
880.6304	0.007879
880.8696	0.008935
881.1087	0.007711
881.3479	0.008618
881.5871	0.008069
881.8262	0.006888
882.0654	0.004946
882.3046	0.007120
882.5438	0.005642
882.7831	0.007521
883.0223	0.006022
883.2615	0.007289
883.5007	0.006529
883.7400	0.007415
883.9792	0.005769
884.2185	0.007099
884.4578	0.005832
884.6971	0.005473
884.9363	0.005072
885.1756	0.007246
885.4149	0.006634
885.6542	0.006972
885.8936	0.007563
886.1329	0.006487
886.3722	0.006487
886.6116	0.006465
886.8509	0.005452
887.0903	0.003869
887.3296	0.008238
887.5690	0.003891
887.8084	0.004756
888.0478	0.005283
888.2872	0.005305
888.5266	0.005326
888.7660	0.006001
889.0054	0.005558
889.2448	0.004735
889.4843	0.006423
889.7237	0.004819
889.9632	0.006064
890.2026	0.005959
890.4421	0.004946
890.6816	0.004904
890.9211	0.003912
891.1606	0.003701
891.4001	0.004777
891.6396	0.005917
891.8791	0.007225
892.1186	0.005727
892.3581	0.004840
892.5977	0.005706
892.8372	0.004988
893.0768	0.003553
893.3163	0.004904
893.5559	0.005389
893.7955	0.005938
894.0351	0.003743
894.2747	0.004228
894.5143	0.003004
894.7539	0.005072
894.9935	0.003743
895.2331	0.004545
895.4727	0.003468
895.7124	0.004840
895.9520	0.004165
896.1917	0.005917
896.4314	0.005178
896.6710	0.005199
896.9107	0.005283
897.1504	0.005368
897.3901	0.004545
897.6298	0.004629
897.8695	0.004228
898.1092	0.005072
898.3489	0.004228
898.5887	0.004566
898.8284	0.003827
899.0682	0.004587
899.3079	0.004671
899.5477	0.005220
899.7875	0.004714
900.0272	0.004207
900.2670	0.004270
900.5068	0.004165
900.7466	0.004080
900.9864	0.004608
901.2263	0.004017
901.4661	0.003553
901.7059	0.004059
901.9458	0.005663
902.1856	0.004207
902.4255	0.004925
902.6654	0.003574
902.9052	0.004819
903.1451	0.003869
903.3850	0.004946
903.6249	0.003110
903.8648	0.005642
904.1047	0.003637
904.3446	0.004545
904.5846	0.004988
904.8245	0.004545
905.0644	0.005896
905.3044	0.004481
905.5444	0.004355
905.7843	0.005241
906.0243	0.003616
906.2643	0.005389
906.5043	0.004819
906.7443	0.005115
906.9843	0.003194
907.2243	0.003489
907.4643	0.004587
907.7043	0.003511
907.9444	0.003616
908.1844	0.005980
908.4245	0.004587
908.6645	0.005157
908.9046	0.002286
909.1447	0.004756
909.3847	0.003363
909.6248	0.003004
909.8649	0.003278
910.1050	0.004334
910.3452	0.003152
910.5853	0.003088
910.8254	0.003827
911.0655	0.002962
911.3057	0.002814
911.5458	0.003912
911.7860	0.002793
912.0262	0.004418
912.2663	0.004629
912.5065	0.004481
912.7467	0.001949
912.9869	0.004249
913.2271	0.003468
913.4673	0.005326
913.7075	0.003616
913.9478	0.004481
914.1880	0.003236
914.4283	0.004165
914.6685	0.001252
914.9088	0.002139
915.1490	0.002139
915.3893	0.002308
915.6296	0.003215
915.8699	0.004102
916.1102	0.002772
916.3505	0.002498
916.5908	0.004228
916.8311	0.004355
917.0714	0.003912
917.3118	0.003257
917.5521	0.002877
917.7925	0.004080
918.0328	0.004207
918.2732	0.005051
918.5136	0.004925
918.7539	0.002413
918.9943	0.004376
919.2347	0.002920
919.4751	0.003827
919.7155	0.002983
919.9560	0.003215
920.1964	0.005094
920.4368	0.002160
920.6773	0.003194
920.9177	0.004059
921.1582	0.002962
921.3986	0.004017
921.6391	0.004608
921.8796	0.004102
922.1201	0.003912
922.3606	0.003300
922.6011	0.002540
922.8416	0.003574
923.0821	0.005389
923.3226	0.002899
923.5631	0.003827
923.8037	0.001506
924.0442	0.002329
924.2848	0.003004
924.5254	0.002413
924.7659	0.002561
925.0065	0.002223
925.2471	0.001020
925.4877	0.002561
925.7283	0.002624
925.9689	0.004313
926.2095	0.001970
926.4501	0.002772
926.6908	0.001611
926.9314	0.002856
927.1720	0.002920
927.4127	0.003511
927.6533	0.002624
927.8940	0.002772
928.1347	0.002983
928.3754	0.003426
928.6161	0.003321
928.8568	0.002413
929.0975	0.002751
929.3382	0.002286
929.5789	0.003447
929.8196	0.001801
930.0604	0.002476
930.3011	0.002350
930.5419	0.002265
930.7826	0.001738
931.0234	0.001463
931.2642	0.001590
931.5049	0.002582
931.7457	0.001590
931.9865	0.001168
932.2273	0.001864
932.4681	0.001674
932.7089	0.002730
932.9498	0.002983
933.1906	0.001717
933.4314	0.002308
933.6723	0.002434
933.9131	0.001590
934.1540	0.001991
934.3949	0.002308
934.6358	0.002455
934.8766	0.001126
935.1175	0.002687
935.3584	0.003067
935.5993	0.002265
935.8403	0.002265
936.0812	0.000556
936.3221	0.001421
936.5630	0.001885
936.8040	0.001822
937.0449	0.001062
937.2859	0.001632
937.5269	0.002223
937.7678	0.000619
938.0088	0.001780
938.2498	0.002118
938.4908	0.001421
938.7318	0.002181
938.9728	0.001400
939.2138	0.001337
939.4549	0.001991
939.6959	0.001822
939.9369	0.001041
940.1780	0.000746
940.4190	0.001358
940.6601	0.001759
940.9012	0.001231
941.1422	0.001273
941.3833	0.001590
941.6244	0.001780
941.8655	0.002329
942.1066	0.001864
942.3477	0.000830
942.5889	0.001400
942.8300	0.001062
943.0711	-0.000816
943.3123	0.001484
943.5534	0.002603
943.7946	0.000028
944.0357	0.001041
944.2769	0.001590
944.5181	0.001105
944.7593	0.000746
945.0005	0.001020
945.2417	0.001379
945.4829	0.001231
945.7241	0.002561
945.9653	0.000957
946.2066	0.000619
946.4478	0.001928
946.6891	0.000366
946.9303	0.000978
947.1716	0.001294
947.4128	0.001062
947.6541	0.001885
947.8954	-0.000711
948.1367	0.000999
948.3780	0.001759
948.6193	0.001189
948.8606	0.000704
949.1019	0.000915
949.3433	0.001189
949.5846	-0.000373
949.8259	0.000830
950.0673	0.001210
950.3086	0.001337
950.5500	0.001062
950.7914	0.002244
951.0327	0.001885
951.2741	0.001970
951.5155	-0.000689
951.7569	0.000978
951.9983	0.001147
952.2398	0.001400
952.4812	0.000851
952.7226	0.001611
952.9640	0.001548
953.2055	0.001294
953.4469	0.001527
953.6884	0.001041
953.9299	0.000218
954.1713	0.001864
954.4128	0.000556
954.6543	0.001358
954.8958	0.000345
955.1373	0.002181
955.3788	0.000957
955.6203	0.000746
955.8618	0.001337
956.1034	0.000999
956.3449	0.002244
956.5865	0.002160
956.8280	0.002350
957.0696	0.001020
957.3111	0.002054
957.5527	0.000661
957.7943	0.001949
958.0359	0.000345
958.2775	0.000492
958.5191	0.001442
958.7607	-0.000331
959.0023	0.001020
959.2439	-0.001323
959.4856	-0.000098
959.7272	0.000260
959.9688	-0.000183
960.2105	0.000324
960.4522	0.000260
960.6938	0.000049
960.9355	0.000872
961.1772	0.000197
961.4189	-0.000098
961.6606	0.001928
961.9023	0.000957
962.1440	0.000134
962.3857	0.002286
962.6274	0.001801
962.8692	0.001421
963.1109	0.000049
963.3527	0.001949
963.5944	0.000324
963.8362	0.000957
964.0779	0.000535
964.3197	0.001041
964.5615	0.001189
964.8033	0.001252
965.0451	0.001506
965.2869	0.001020
965.5287	0.001463
965.7705	0.000345
966.0123	0.001611
966.2542	0.001864
966.4960	0.001126
966.7379	0.000767
966.9797	0.001041
967.2216	0.001210
967.4634	0.001273
967.7053	0.000408
967.9472	0.000788
968.1891	0.001421
968.4310	0.000134
968.6729	0.001020
968.9148	0.000851
969.1567	0.001126
969.3987	-0.000141
969.6406	0.000450
969.8825	0.000281
970.1245	0.000007
970.3664	-0.000056
970.6084	0.000113
970.8504	0.000324
971.0923	0.002413
971.3343	0.000556
971.5763	0.001358
971.8183	-0.000204
972.0603	0.000514
972.3023	0.000640
972.5443	0.002033
972.7864	-0.001006
973.0284	0.000661
973.2704	-0.000120
973.5125	0.000999
973.7545	-0.000626
973.9966	0.002308
974.2387	-0.000056
974.4807	0.001695
974.7228	-0.000056
974.9649	0.001041
975.2070	0.002033
975.4491	0.000514
975.6912	0.000682
975.9333	0.000028
976.1755	0.001189
976.4176	0.001252
976.6597	-0.000225
976.9019	0.000471
977.1440	0.001126
977.3862	0.000514
977.6283	0.000725
977.8705	0.000619
978.1127	-0.000858
978.3549	0.000851
978.5971	-0.000816
978.8393	0.000640
979.0815	0.000113
979.3237	0.000725
979.5659	0.000492
979.8082	0.001020
980.0504	0.000028
980.2926	0.000113
980.5349	0.000788
980.7771	0.000682
981.0194	0.001548
981.2617	0.001738
981.5040	0.001252
981.7462	0.000704
981.9885	-0.000985
982.2308	0.001991
982.4731	0.000978
982.7155	-0.000267
982.9578	0.000239
983.2001	0.000999
983.4424	-0.000183
983.6848	0.000324
983.9271	-0.000077
984.1695	0.001083
984.4118	0.001337
984.6542	-0.000373
984.8966	-0.000563
985.1390	0.000915
985.3814	0.001126
985.6238	0.001168
985.8662	0.000366
986.1086	0.000915
986.3510	0.000197
986.5934	0.000492
986.8358	0.001168
987.0783	0.001717
987.3207	-0.000668
987.5632	-0.000521
987.8056	-0.000837
988.0481	0.001168
988.2906	0.001885
988.5331	0.000260
988.7756	0.001759
989.0180	0.000535
989.2605	0.000049
989.5031	0.001210
989.7456	-0.000077
989.9881	0.000387
990.2306	0.001843
990.4732	0.000134
990.7157	-0.001871
990.9582	-0.000331
991.2008	-0.000753
991.4434	0.000450
991.6859	-0.000056
991.9285	0.000514
992.1711	0.000408
992.4137	0.000514
992.6563	-0.000584
992.8989	-0.000837
993.1415	-0.000014
993.3841	0.000556
993.6267	0.000957
993.8694	0.000514
994.1120	0.000830
994.3547	0.001611
994.5973	-0.000753
994.8400	0.002054
995.0826	0.001653
995.3253	0.000155
995.5680	-0.001238
995.8107	0.001189
996.0534	0.000619
996.2961	-0.000310
996.5388	0.001780
996.7815	-0.000753
997.0242	0.000324
997.2670	0.001421
997.5097	0.000113
997.7524	-0.000647
997.9952	0.000535
998.2379	0.001358
998.4807	0.000978
998.7235	0.000598
998.9662	-0.001175
999.2090	-0.000098
999.4518	0.000429
999.6946	0.000197
999.9374	0.000366
1000.1802	0.000450
1000.4230	-0.000436
1000.6659	0.000408
1000.9087	-0.000056
1001.1515	-0.000035
1001.3944	0.000134
1001.6372	-0.000689
1001.8801	0.000830
1002.1230	-0.000077
1002.3658	0.000830
1002.6087	-0.000141
1002.8516	-0.000985
1003.0945	-0.001365
1003.3374	0.000598
1003.5803	0.000176
1003.8232	-0.000436
1004.0661	-0.000711
1004.3091	0.001105
1004.5520	0.000366
1004.7949	0.000091
1005.0379	0.001126
1005.2808	0.000598
1005.5238	0.000492
1005.7667	0.000028
1006.0097	-0.001006
1006.2527	-0.000689
1006.4957	-0.000141
1006.7387	0.001421
1006.9817	-0.000077
1007.2247	-0.000542
1007.4677	-0.000331
1007.7107	0.000619
1007.9538	0.000619
1008.1968	0.002012
1008.4398	0.000281
1008.6829	-0.000014
1008.9259	0.000197
1009.1690	0.000598
1009.4121	0.000176
1009.6551	-0.000035
1009.8982	0.000303
1010.1413	0.001105
1010.3844	-0.000035
1010.6275	-0.000879
1010.8706	0.000640
1011.1137	0.000070
1011.3568	-0.000331
1011.6000	-0.000183
1011.8431	0.002434
1012.0863	-0.000436
1012.3294	0.000197
1012.5726	-0.000732
1012.8157	0.000176
1013.0589	-0.000732
1013.3021	0.000260
1013.5452	0.000239
1013.7884	-0.000732
1014.0316	0.000598
1014.2748	0.000324
1014.5180	0.000619
1014.7613	-0.000352
1015.0045	0.000134
1015.2477	-0.001449
1015.4909	-0.000098
1015.7342	0.001991
1015.9774	-0.000584
1016.2207	0.000387
1016.4640	-0.000077
1016.7072	-0.000056
1016.9505	0.000682
1017.1938	-0.001196
1017.4371	0.000535
1017.6804	-0.000647
1017.9237	0.000134
1018.1670	-0.000098
1018.4103	0.000978
1018.6536	-0.001850
1018.8969	0.000366
1019.1403	-0.000901
1019.3836	0.000535
1019.6270	0.001105
1019.8703	-0.000816
1020.1137	0.000260
1020.3571	-0.000056
1020.6004	-0.000098
1020.8438	0.000872
1021.0872	-0.000141
1021.3306	0.000514
1021.5740	-0.000837
1021.8174	0.000450
1022.0608	-0.000077
1022.3042	-0.000457
1022.5477	-0.000753
1022.7911	-0.000056
1023.0345	-0.001027
