# Wavelength	Intensity diff (sample - DMSO)
197.780200 -0.000710
197.984200 -0.001551
198.188200 -0.001245
198.392200 0.000057
198.596300 -0.000591
198.800300 -0.000218
199.004400 0.000061
199.208500 -0.000225
199.412600 -0.000827
199.616800 -0.000703
199.820900 0.000556
200.025100 -0.000259
200.229200 0.000536
200.433400 0.000180
200.637600 0.000200
200.841800 -0.000042
201.046100 -0.000348
201.250300 -0.001772
201.454600 -0.001927
201.658900 -0.001529
201.863100 -0.000457
202.067400 -0.000509
202.271800 -0.001167
202.476100 -0.000714
202.680500 -0.000443
202.884800 -0.000903
203.089200 -0.000953
203.293600 -0.000581
203.498000 -0.000225
203.702400 -0.000052
203.906900 0.000046
204.111300 -0.000190
204.315800 -0.000285
204.520300 -0.001420
204.724800 -0.000426
204.929300 -0.000822
205.133800 -0.000590
205.338400 -0.000974
205.543000 -0.000820
205.747500 -0.000492
205.952100 -0.000432
206.156700 -0.001396
206.361400 0.001088
206.566000 -0.000010
206.770600 -0.001308
206.975300 -0.000623
207.180000 0.000833
207.384700 -0.000130
207.589400 0.000284
207.794100 -0.000531
207.998900 0.000625
208.203600 -0.001543
208.408400 -0.000376
208.613200 -0.001002
208.818000 -0.000366
209.022800 -0.000383
209.227600 -0.000264
209.432500 -0.000770
209.637300 0.000922
209.842200 -0.000363
210.047100 -0.000267
210.252000 0.000123
210.456900 -0.000527
210.661800 -0.001470
210.866800 -0.000749
211.071800 -0.001592
211.276700 -0.001108
211.481700 -0.000760
211.686700 0.000145
211.891800 -0.000221
212.096800 -0.002025
212.301800 -0.000478
212.506900 -0.001927
212.712000 -0.000203
212.917100 -0.001392
213.122200 -0.001259
213.327300 -0.002011
213.532500 0.001024
213.737600 -0.000570
213.942800 -0.000144
214.148000 0.000258
214.353200 0.000144
214.558400 -0.000049
214.763600 -0.002127
214.968900 -0.000461
215.174100 -0.001247
215.379400 0.001066
215.584700 -0.001417
215.790000 -0.000654
215.995300 -0.000524
216.200700 -0.000383
216.406000 -0.001048
216.611400 -0.000067
216.816800 -0.000833
217.022200 -0.000344
217.227600 -0.000323
217.433000 0.000320
217.638400 -0.000886
217.843900 -0.000717
218.049400 0.000369
218.254800 -0.002141
218.460300 -0.001143
218.665900 -0.000450
218.871400 -0.001368
219.076900 -0.000482
219.282500 0.000102
219.488100 -0.000549
219.693600 -0.000239
219.899200 -0.000892
220.104900 -0.001020
220.310500 -0.000317
220.516100 0.000397
220.721800 -0.000875
220.927500 -0.001428
221.133200 -0.000112
221.338900 -0.000745
221.544600 -0.000383
221.750300 -0.002064
221.956100 -0.000361
222.161800 0.000123
222.367600 -0.000696
222.573400 0.000084
222.779200 0.000826
222.985000 0.000341
223.190900 -0.000791
223.396700 0.000627
223.602600 -0.000405
223.808500 -0.000816
224.014400 -0.001097
224.220300 -0.000669
224.426200 -0.000394
224.632200 0.000335
224.838100 -0.000978
225.044100 -0.001677
225.250100 0.000310
225.456100 -0.000398
225.662100 0.000236
225.868100 0.000186
226.074200 0.000151
226.280200 0.000007
226.486300 -0.000925
226.692400 -0.000123
226.898500 -0.000507
227.104600 -0.000475
227.310700 -0.001572
227.516900 -0.000207
227.723000 0.000436
227.929200 -0.001364
228.135400 -0.000502
228.341600 -0.000338
228.547800 -0.000358
228.754100 -0.000590
228.960300 0.000250
229.166600 -0.000007
229.372900 -0.000032
229.579100 -0.000007
229.785500 0.000447
229.991800 0.000397
230.198100 -0.000351
230.404500 0.000270
230.610800 -0.000611
230.817200 0.000429
231.023600 -0.000021
231.230000 -0.000915
231.436400 -0.000628
231.642900 -0.000498
231.849300 0.000334
232.055800 0.000000
232.262300 -0.001804
232.468800 0.000328
232.675300 -0.000921
232.881800 -0.000577
233.088400 -0.000264
233.294900 -0.000541
233.501500 -0.000218
233.708100 -0.000728
233.914700 0.000137
234.121300 -0.000293
234.327900 -0.000243
234.534600 -0.000126
234.741300 -0.001037
234.947900 -0.000844
235.154600 -0.001314
235.361300 -0.001667
235.568000 -0.000542
235.774800 -0.000337
235.981500 0.000898
236.188300 0.000070
236.395100 -0.000602
236.601800 -0.000402
236.808700 0.000257
237.015500 -0.002080
237.222300 -0.000851
237.429200 -0.002162
237.636000 0.000131
237.842900 -0.000286
238.049800 0.000188
238.256700 0.000039
238.463600 -0.000556
238.670600 -0.000988
238.877500 -0.000590
239.084500 0.000056
239.291500 -0.000914
239.498500 -0.000777
239.705500 0.000105
239.912500 -0.000320
240.119500 0.000510
240.326600 -0.000995
240.533700 -0.000297
240.740700 0.000008
240.947800 -0.000827
241.154900 -0.001093
241.362100 -0.000611
241.569200 0.000883
241.776400 -0.000826
241.983500 -0.000675
242.190700 -0.001269
242.397900 0.000039
242.605100 -0.000243
242.812400 -0.000749
243.019600 -0.001434
243.226900 -0.001030
243.434100 -0.000450
243.641400 -0.001013
243.848700 -0.000084
244.056000 -0.000046
244.263400 0.000398
244.470700 -0.000165
244.678100 -0.000945
244.885400 -0.000956
245.092800 -0.000253
245.300200 0.000282
245.507600 -0.001832
245.715100 -0.001185
245.922500 -0.000693
246.130000 0.000085
246.337500 -0.000868
246.544900 0.000584
246.752400 -0.001944
246.960000 -0.000932
247.167500 -0.000555
247.375000 0.000938
247.582600 -0.000868
247.790200 0.000370
247.997800 -0.000263
248.205400 -0.002454
248.413000 -0.000208
248.620600 -0.000305
248.828300 -0.001051
249.035900 -0.001210
249.243600 -0.000949
249.451300 -0.001533
249.659000 -0.001386
249.866700 -0.000724
250.074500 -0.000850
250.282200 -0.001494
250.490000 -0.000246
250.697800 0.000285
250.905600 0.000419
251.113400 -0.000869
251.321200 -0.000049
251.529000 -0.000183
251.736900 -0.000348
251.944700 -0.001316
252.152600 -0.001769
252.360500 -0.000066
252.568400 -0.000140
252.776300 0.000063
252.984300 -0.000661
253.192200 -0.001175
253.400200 -0.000006
253.608200 0.000154
253.816200 -0.002074
254.024200 -0.000229
254.232200 -0.000250
254.440200 0.000398
254.648300 -0.000444
254.856400 -0.000394
255.064400 -0.000207
255.272500 -0.000453
255.480600 -0.000264
255.688800 -0.000353
255.896900 -0.000984
256.105100 -0.002015
256.313200 -0.000112
256.521400 -0.000472
256.729600 -0.000276
256.937800 -0.001319
257.146000 0.000092
257.354300 0.000581
257.562500 -0.000605
257.770800 0.000004
257.979100 -0.000404
258.187400 -0.000291
258.395700 -0.000890
258.604000 -0.000924
258.812400 0.000236
259.020700 -0.001002
259.229100 -0.001238
259.437500 -0.000633
259.645900 -0.001238
259.854300 -0.000577
260.062700 -0.001071
260.271100 -0.000787
260.479600 -0.000671
260.688100 -0.001128
260.896500 -0.001582
261.105000 -0.000408
261.313500 0.000176
261.522100 -0.000886
261.730600 -0.000500
261.939200 -0.000359
262.147700 -0.000565
262.356300 0.000327
262.564900 -0.000003
262.773500 -0.000861
262.982200 -0.000443
263.190800 -0.000201
263.399500 -0.001346
263.608100 -0.000598
263.816800 -0.000601
264.025500 0.000212
264.234200 0.000500
264.442900 -0.000447
264.651700 -0.001410
264.860400 -0.000218
265.069200 -0.000446
265.278000 -0.000791
265.486800 -0.000781
265.695600 0.000474
265.904400 0.000173
266.113300 -0.000564
266.322100 -0.000914
266.531000 0.000215
266.739900 -0.000257
266.948800 -0.001516
267.157700 -0.000440
267.366600 -0.001027
267.575500 -0.000859
267.784500 -0.000133
267.993500 -0.000401
268.202400 -0.000376
268.411400 -0.000942
268.620500 -0.000581
268.829500 0.000399
269.038500 0.000229
269.247600 -0.001217
269.456600 -0.000816
269.665700 -0.000069
269.874800 -0.000579
270.083900 -0.001579
270.293100 0.000517
270.502200 -0.000826
270.711400 -0.000095
270.920500 -0.000812
271.129700 -0.000795
271.338900 -0.001280
271.548100 0.000138
271.757300 -0.001012
271.966600 -0.000457
272.175800 -0.000808
272.385100 -0.001417
272.594400 0.000124
272.803700 -0.001146
273.013000 -0.000964
273.222300 -0.000555
273.431600 -0.000806
273.641000 -0.002061
273.850400 0.000056
274.059700 -0.000795
274.269100 -0.001434
274.478500 -0.000425
274.688000 -0.000917
274.897400 -0.001442
275.106900 0.000450
275.316300 -0.001625
275.525800 -0.000840
275.735300 0.001171
275.944800 -0.000457
276.154300 -0.000196
276.363900 -0.000837
276.573400 -0.000695
276.783000 0.000318
276.992600 -0.000531
277.202200 -0.000127
277.411800 -0.000215
277.621400 0.000616
277.831000 -0.001444
278.040700 -0.001108
278.250300 -0.001086
278.460000 -0.001133
278.669700 -0.000277
278.879400 0.000436
279.089100 -0.000355
279.298900 -0.000292
279.508600 -0.001205
279.718400 -0.000611
279.928100 0.000697
280.137900 -0.000963
280.347700 0.000130
280.557600 -0.000179
280.767400 -0.001639
280.977200 -0.000868
281.187100 0.000778
281.397000 -0.000973
281.606900 0.000229
281.816800 -0.001100
282.026700 -0.001188
282.236600 -0.000604
282.446600 -0.000576
282.656500 0.000036
282.866500 -0.000320
283.076500 0.000433
283.286500 -0.000759
283.496500 -0.000725
283.706500 -0.000333
283.916600 0.000422
284.126600 0.000292
284.336700 0.000492
284.546800 0.000362
284.756900 -0.000312
284.967000 -0.000517
285.177100 -0.000481
285.387300 0.000753
285.597400 -0.000474
285.807600 -0.000771
286.017800 -0.001234
286.228000 0.000432
286.438200 -0.001023
286.648400 -0.001249
286.858700 -0.001621
287.068900 -0.000805
287.279200 -0.000510
287.489500 -0.000362
287.699800 -0.001066
287.910100 -0.000710
288.120400 -0.000500
288.330800 -0.000205
288.541100 -0.001786
288.751500 0.000148
288.961900 0.000133
289.172300 -0.000531
289.382700 -0.000221
289.593100 -0.000837
289.803500 0.001143
290.014000 -0.000749
290.224500 -0.000404
290.434900 0.000745
290.645400 -0.000696
290.855900 -0.000278
291.066500 -0.000855
291.277000 -0.000580
291.487500 0.000437
291.698100 -0.000337
291.908700 0.000271
292.119300 -0.001353
292.329900 0.000285
292.540500 -0.000651
292.751100 -0.000091
292.961800 0.000696
293.172400 -0.001248
293.383100 0.000609
293.593800 -0.000865
293.804500 -0.000106
294.015200 0.000110
294.226000 0.000714
294.436700 0.000337
294.647500 -0.000021
294.858200 -0.000397
295.069000 -0.000851
295.279800 -0.000281
295.490600 0.000757
295.701500 -0.000172
295.912300 -0.000989
296.123200 -0.001829
296.334000 -0.000717
296.544900 -0.001627
296.755800 -0.001554
296.966700 -0.000854
297.177700 -0.000809
297.388600 -0.000618
297.599500 -0.000619
297.810500 -0.000468
298.021500 -0.002560
298.232500 -0.001259
298.443500 -0.000032
298.654500 -0.000960
298.865600 -0.001136
299.076600 -0.000155
299.287700 0.000309
299.498800 -0.000495
299.709900 -0.000548
299.921000 -0.001776
300.132100 -0.001462
300.343200 -0.000488
300.554400 -0.001027
300.765500 -0.000690
300.976700 -0.000155
301.187900 -0.000537
301.399100 -0.000661
301.610300 -0.000577
301.821500 -0.001799
302.032800 -0.000016
302.244100 -0.001052
302.455300 -0.000651
302.666600 -0.000886
302.877900 -0.000942
303.089200 -0.000028
303.300600 -0.000436
303.511900 -0.000348
303.723300 -0.000738
303.934600 -0.000314
304.146000 0.000735
304.357400 -0.001576
304.568800 -0.000714
304.780300 -0.001518
304.991700 0.000337
305.203100 -0.000866
305.414600 -0.000879
305.626100 0.000243
305.837600 -0.000995
306.049100 -0.000481
306.260600 -0.000545
306.472200 -0.000306
306.683700 -0.000753
306.895300 0.000064
307.106900 -0.001399
307.318400 -0.000855
307.530100 -0.000770
307.741700 -0.000334
307.953300 -0.001871
308.165000 -0.000446
308.376600 -0.001501
308.588300 -0.001406
308.800000 0.000448
309.011700 -0.001483
309.223400 -0.001304
309.435100 -0.000567
309.646900 -0.000759
309.858600 -0.000723
310.070400 -0.000541
310.282200 0.001171
310.494000 -0.001638
310.705800 -0.001132
310.917600 -0.000113
311.129500 -0.001413
311.341300 -0.001912
311.553200 -0.001455
311.765100 -0.000650
311.977000 -0.001941
312.188900 -0.000612
312.400800 -0.001302
312.612700 -0.000710
312.824700 -0.002567
313.036600 -0.001235
313.248600 -0.001307
313.460600 -0.000812
313.672600 -0.001993
313.884600 -0.001575
314.096700 -0.001140
314.308700 -0.002384
314.520800 -0.000545
314.732800 -0.001533
314.944900 -0.001488
315.157000 -0.002042
315.369200 -0.000841
315.581300 -0.000257
315.793400 0.000355
316.005600 -0.000956
316.217700 -0.001582
316.429900 -0.003347
316.642100 -0.001673
316.854300 -0.000590
317.066600 -0.002643
317.278800 -0.002138
317.491100 -0.001356
317.703300 -0.001842
317.915600 -0.002088
318.127900 -0.002358
318.340200 -0.001959
318.552500 -0.001867
318.764900 -0.001065
318.977200 -0.001884
319.189600 -0.001160
319.401900 -0.002313
319.614300 -0.001522
319.826700 -0.001314
320.039200 -0.002303
320.251600 -0.001881
320.464000 -0.002503
320.676500 -0.001022
320.889000 -0.000014
321.101400 -0.001540
321.313900 -0.001744
321.526500 -0.002439
321.739000 -0.002953
321.951500 -0.002792
322.164100 -0.001677
322.376600 -0.001793
322.589200 -0.002380
322.801800 -0.001884
323.014400 -0.001730
323.227000 -0.001536
323.439700 -0.002706
323.652300 -0.002309
323.865000 -0.002704
324.077700 -0.003302
324.290400 -0.001709
324.503100 -0.001677
324.715800 -0.002771
324.928500 -0.002753
325.141200 -0.002644
325.354000 -0.003606
325.566800 -0.002317
325.779600 -0.002402
325.992400 -0.001688
326.205200 -0.003231
326.418000 -0.002647
326.630800 -0.003741
326.843700 -0.004707
327.056600 -0.002229
327.269400 -0.002510
327.482300 -0.002669
327.695200 -0.001852
327.908200 -0.003030
328.121100 -0.002390
328.334000 -0.003480
328.547000 -0.004828
328.760000 -0.003094
328.973000 -0.003803
329.186000 -0.002693
329.399000 -0.002641
329.612000 -0.004440
329.825100 -0.002187
330.038100 -0.002576
330.251200 -0.003019
330.464300 -0.004536
330.677400 -0.003254
330.890500 -0.005220
331.103600 -0.003344
331.316700 -0.003917
331.529900 -0.004191
331.743100 -0.003256
331.956200 -0.004779
332.169400 -0.003421
332.382600 -0.003138
332.595900 -0.004895
332.809100 -0.004036
333.022300 -0.003185
333.235600 -0.004071
333.448900 -0.003913
333.662200 -0.003312
333.875500 -0.003966
334.088800 -0.003449
334.302100 -0.005323
334.515400 -0.004152
334.728800 -0.004268
334.942200 -0.003627
335.155500 -0.003315
335.368900 -0.006357
335.582300 -0.003491
335.795800 -0.004109
336.009200 -0.005744
336.222700 -0.004915
336.436100 -0.004696
336.649600 -0.005917
336.863100 -0.004542
337.076600 -0.006803
337.290100 -0.005221
337.503600 -0.004078
337.717200 -0.006578
337.930700 -0.005868
338.144300 -0.005481
338.357900 -0.004332
338.571500 -0.004588
338.785100 -0.005060
338.998700 -0.005215
339.212400 -0.005815
339.426000 -0.004173
339.639700 -0.005137
339.853300 -0.005305
340.067000 -0.005109
340.280700 -0.005228
340.494500 -0.006213
340.708200 -0.004282
340.921900 -0.006539
341.135700 -0.004222
341.349500 -0.005277
341.563300 -0.005034
341.777100 -0.006336
341.990900 -0.006283
342.204700 -0.006543
342.418500 -0.006714
342.632400 -0.006638
342.846300 -0.005699
343.060100 -0.005182
343.274000 -0.005907
343.487900 -0.006694
343.701900 -0.005723
343.915800 -0.005987
344.129700 -0.006705
344.343700 -0.006529
344.557700 -0.007414
344.771700 -0.005823
344.985700 -0.007203
345.199700 -0.006392
345.413700 -0.008055
345.627700 -0.006266
345.841800 -0.007074
346.055900 -0.007094
346.269900 -0.006761
346.484000 -0.008428
346.698100 -0.007176
346.912300 -0.007067
347.126400 -0.007488
347.340600 -0.007601
347.554700 -0.006999
347.768900 -0.008137
347.983100 -0.007805
348.197300 -0.008055
348.411500 -0.007598
348.625700 -0.007530
348.840000 -0.007521
349.054200 -0.008108
349.268500 -0.009159
349.482800 -0.007421
349.697100 -0.007459
349.911400 -0.007678
350.125700 -0.007805
350.340000 -0.007911
350.554400 -0.008533
350.768700 -0.008846
350.983100 -0.007857
351.197500 -0.007351
351.411900 -0.008983
351.626300 -0.009024
351.840700 -0.009363
352.055200 -0.008603
352.269600 -0.008050
352.484100 -0.008905
352.698600 -0.008455
352.913100 -0.007819
353.127600 -0.008565
353.342100 -0.009106
353.556600 -0.009172
353.771200 -0.010087
353.985800 -0.007675
354.200300 -0.007857
354.414900 -0.009148
354.629500 -0.007600
354.844100 -0.009866
355.058800 -0.008954
355.273400 -0.008922
355.488100 -0.009419
355.702700 -0.008972
355.917400 -0.008276
356.132100 -0.009875
356.346800 -0.009611
356.561500 -0.009591
356.776300 -0.009458
356.991000 -0.009158
357.205800 -0.009813
357.420600 -0.009180
357.635300 -0.009043
357.850100 -0.010034
358.065000 -0.010298
358.279800 -0.008616
358.494600 -0.009566
358.709500 -0.009116
358.924300 -0.008983
359.139200 -0.010597
359.354100 -0.009932
359.569000 -0.010052
359.783900 -0.009208
359.998900 -0.009000
360.213800 -0.010889
360.428800 -0.011507
360.643800 -0.009081
360.858700 -0.008574
361.073700 -0.011202
361.288800 -0.010221
361.503800 -0.010449
361.718800 -0.008247
361.933900 -0.010002
362.148900 -0.009767
362.364000 -0.009432
362.579100 -0.010709
362.794200 -0.009686
363.009300 -0.011589
363.224500 -0.011199
363.439600 -0.010501
363.654800 -0.010125
363.869900 -0.010329
364.085100 -0.010445
364.300300 -0.009585
364.515500 -0.012038
364.730800 -0.011518
364.946000 -0.011559
365.161200 -0.010463
365.376500 -0.012829
365.591800 -0.011039
365.807100 -0.009711
366.022400 -0.010139
366.237700 -0.012119
366.453000 -0.013276
366.668400 -0.011817
366.883700 -0.011391
367.099100 -0.011560
367.314500 -0.011911
367.529900 -0.013171
367.745300 -0.012906
367.960700 -0.012176
368.176100 -0.011282
368.391600 -0.012260
368.607000 -0.013051
368.822500 -0.011662
369.038000 -0.013642
369.253500 -0.013090
369.469000 -0.012779
369.684500 -0.013402
369.900100 -0.014133
370.115600 -0.011183
370.331200 -0.012552
370.546800 -0.012295
370.762400 -0.012843
370.978000 -0.012594
371.193600 -0.011967
371.409200 -0.012967
371.624900 -0.013623
371.840500 -0.015122
372.056200 -0.012417
372.271900 -0.011725
372.487600 -0.014147
372.703300 -0.012773
372.919000 -0.011823
373.134800 -0.012728
373.350500 -0.012045
373.566300 -0.013204
373.782000 -0.012533
373.997800 -0.013807
374.213600 -0.013022
374.429400 -0.013637
374.645300 -0.013957
374.861100 -0.013212
375.077000 -0.014260
375.292800 -0.012287
375.508700 -0.013871
375.724600 -0.014668
375.940500 -0.014182
376.156400 -0.014970
376.372400 -0.015141
376.588300 -0.013868
376.804300 -0.014484
377.020300 -0.015500
377.236200 -0.016048
377.452200 -0.016176
377.668200 -0.015912
377.884300 -0.014691
378.100300 -0.014185
378.316400 -0.016843
378.532400 -0.015032
378.748500 -0.016888
378.964600 -0.016520
379.180700 -0.016315
379.396800 -0.016195
379.612900 -0.014786
379.829100 -0.014683
380.045200 -0.014170
380.261400 -0.015830
380.477600 -0.015162
380.693800 -0.013505
380.910000 -0.016409
381.126200 -0.012707
381.342400 -0.014775
381.558700 -0.011690
381.774900 -0.012102
381.991200 -0.013191
382.207500 -0.013551
382.423800 -0.013729
382.640100 -0.013166
382.856400 -0.012909
383.072800 -0.012487
383.289100 -0.013180
383.505500 -0.012480
383.721900 -0.012657
383.938200 -0.011880
384.154600 -0.013515
384.371100 -0.012414
384.587500 -0.012769
384.803900 -0.012537
385.020400 -0.011520
385.236800 -0.011513
385.453300 -0.012354
385.669800 -0.011456
385.886300 -0.011415
386.102800 -0.011811
386.319400 -0.009421
386.535900 -0.010616
386.752500 -0.009916
386.969000 -0.009948
387.185600 -0.009575
387.402200 -0.011593
387.618800 -0.010826
387.835500 -0.009633
388.052100 -0.012057
388.268700 -0.010651
388.485400 -0.009096
388.702100 -0.009602
388.918800 -0.008708
389.135500 -0.010556
389.352200 -0.008895
389.568900 -0.008649
389.785600 -0.008272
390.002400 -0.008481
390.219200 -0.007637
390.435900 -0.009416
390.652700 -0.007900
390.869500 -0.009362
391.086300 -0.007892
391.303200 -0.008012
391.520000 -0.007772
391.736900 -0.008079
391.953700 -0.007259
392.170600 -0.007868
392.387500 -0.008233
392.604400 -0.009272
392.821300 -0.006277
393.038300 -0.007186
393.255200 -0.008952
393.472200 -0.007174
393.689100 -0.007549
393.906100 -0.006622
394.123100 -0.005848
394.340100 -0.007198
394.557200 -0.006227
394.774200 -0.005834
394.991200 -0.004546
395.208300 -0.006724
395.425400 -0.005108
395.642500 -0.006477
395.859600 -0.006540
396.076700 -0.006126
396.293800 -0.005542
396.510900 -0.006333
396.728100 -0.006634
396.945300 -0.008048
397.162400 -0.006258
397.379600 -0.005930
397.596800 -0.005948
397.814000 -0.005305
398.031300 -0.007268
398.248500 -0.006513
398.465800 -0.005700
398.683000 -0.004937
398.900300 -0.005193
399.117600 -0.006200
399.334900 -0.005247
399.552200 -0.006172
399.769600 -0.005529
399.986900 -0.005670
400.204300 -0.004787
400.421600 -0.004787
400.639000 -0.005687
400.856400 -0.004907
401.073800 -0.004496
401.291200 -0.005149
401.508700 -0.004903
401.726100 -0.004435
401.943600 -0.002741
402.161000 -0.003264
402.378500 -0.003668
402.596000 -0.004934
402.813500 -0.004014
403.031000 -0.004959
403.248600 -0.004833
403.466100 -0.004298
403.683700 -0.004885
403.901300 -0.003665
404.118900 -0.002856
404.336500 -0.004322
404.554100 -0.003398
404.771700 -0.005102
404.989300 -0.004505
405.207000 -0.004413
405.424600 -0.004089
405.642300 -0.004107
405.860000 -0.005282
406.077700 -0.005366
406.295400 -0.003463
406.513100 -0.004341
406.730900 -0.003222
406.948600 -0.003179
407.166400 -0.003672
407.384200 -0.001819
407.602000 -0.002881
407.819800 -0.003022
408.037600 -0.004417
408.255400 -0.004791
408.473300 -0.003799
408.691100 -0.002538
408.909000 -0.003731
409.126900 -0.002547
409.344800 -0.003556
409.562700 -0.002149
409.780600 -0.004941
409.998500 -0.002708
410.216500 -0.002142
410.434400 -0.003064
410.652400 -0.004200
410.870400 -0.004108
411.088400 -0.002398
411.306400 -0.003029
411.524400 -0.003661
411.742400 -0.002877
411.960500 -0.002473
412.178500 -0.002666
412.396600 -0.002212
412.614700 -0.003076
412.832800 -0.002370
413.050900 -0.004423
413.269000 -0.003228
413.487100 -0.003115
413.705300 -0.002844
413.923400 -0.004533
414.141600 -0.003129
414.359800 -0.003396
414.578000 -0.002673
414.796200 -0.003119
415.014400 -0.004649
415.232600 -0.001941
415.450900 -0.003741
415.669200 -0.001878
415.887400 -0.003621
416.105700 -0.005257
416.324000 -0.003017
416.542300 -0.002226
416.760600 -0.003424
416.979000 -0.003696
417.197300 -0.001434
417.415700 -0.001912
417.634100 -0.001775
417.852400 -0.002004
418.070800 -0.002405
418.289300 -0.003748
418.507700 -0.003158
418.726100 -0.003104
418.944600 -0.002556
419.163000 -0.002193
419.381500 -0.003857
419.600000 -0.003688
419.818500 -0.003024
420.037000 -0.002436
420.255500 -0.002305
420.474100 -0.004485
420.692600 -0.004204
420.911200 -0.003219
421.129800 -0.004495
421.348300 -0.003696
421.566900 -0.003387
421.785600 -0.003375
422.004200 -0.004835
422.222800 -0.003211
422.441500 -0.004335
422.660100 -0.002029
422.878800 -0.004115
423.097500 -0.003092
423.316200 -0.002085
423.534900 -0.002772
423.753600 -0.003352
423.972400 -0.003250
424.191100 -0.003719
424.409900 -0.004327
424.628700 -0.001654
424.847500 -0.003581
425.066300 -0.003971
425.285100 -0.003103
425.503900 -0.003043
425.722800 -0.003732
425.941600 -0.003290
426.160500 -0.003537
426.379300 -0.003203
426.598200 -0.001961
426.817100 -0.002306
427.036100 -0.005812
427.255000 -0.002853
427.473900 -0.005505
427.692900 -0.004903
427.911800 -0.003992
428.130800 -0.003508
428.349800 -0.003666
428.568800 -0.003220
428.787800 -0.003662
429.006800 -0.003768
429.225900 -0.004400
429.444900 -0.003981
429.664000 -0.005570
429.883100 -0.006737
430.102200 -0.005699
430.321300 -0.004784
430.540400 -0.006300
430.759500 -0.004732
430.978700 -0.005405
431.197800 -0.004215
431.417000 -0.002824
431.636200 -0.003127
431.855300 -0.002237
432.074500 -0.004623
432.293800 -0.004035
432.513000 -0.005797
432.732200 -0.002811
432.951500 -0.005153
433.170700 -0.004675
433.390000 -0.005749
433.609300 -0.007677
433.828600 -0.007486
434.047900 -0.007598
434.267300 -0.005968
434.486600 -0.003813
434.705900 -0.004016
434.925300 -0.005334
435.144700 -0.004281
435.364100 -0.004958
435.583500 -0.003858
435.802900 -0.003918
436.022300 -0.005188
436.241800 -0.005188
436.461200 -0.004407
436.680700 -0.005204
436.900100 -0.004824
437.119600 -0.005665
437.339100 -0.004907
437.558600 -0.004692
437.778200 -0.003003
437.997700 -0.005086
438.217300 -0.004762
438.436800 -0.004578
438.656400 -0.007072
438.876000 -0.003260
439.095600 -0.003461
439.315200 -0.005911
439.534800 -0.004076
439.754500 -0.004170
439.974100 -0.006625
440.193800 -0.006797
440.413500 -0.007322
440.633100 -0.006007
440.852800 -0.006417
441.072500 -0.008178
441.292300 -0.008083
441.512000 -0.009330
441.731800 -0.008939
441.951500 -0.007367
442.171300 -0.007799
442.391100 -0.006278
442.610900 -0.007856
442.830700 -0.006764
443.050500 -0.008797
443.270300 -0.007182
443.490200 -0.005564
443.710100 -0.010255
443.929900 -0.007331
444.149800 -0.008092
444.369700 -0.006823
444.589600 -0.007330
444.809500 -0.009182
445.029500 -0.009840
445.249400 -0.006987
445.469400 -0.010385
445.689400 -0.006401
445.909300 -0.006925
446.129300 -0.009710
446.349300 -0.010340
446.569400 -0.009477
446.789400 -0.008549
447.009400 -0.010867
447.229500 -0.008163
447.449600 -0.008254
447.669600 -0.006824
447.889700 -0.008835
448.109800 -0.007734
448.330000 -0.007823
448.550100 -0.010023
448.770200 -0.008762
448.990400 -0.010224
449.210600 -0.010421
449.430700 -0.009837
449.650900 -0.009986
449.871100 -0.008343
450.091400 -0.010369
450.311600 -0.009140
450.531800 -0.009029
450.752100 -0.009406
450.972400 -0.008014
451.192600 -0.010022
451.412900 -0.009303
451.633200 -0.009541
451.853500 -0.010046
452.073900 -0.010517
452.294200 -0.010665
452.514600 -0.010453
452.734900 -0.008517
452.955300 -0.008060
453.175700 -0.010160
453.396100 -0.009167
453.616500 -0.008391
453.836900 -0.010036
454.057400 -0.008334
454.277800 -0.007532
454.498300 -0.009788
454.718800 -0.008247
454.939300 -0.011151
455.159700 -0.011004
455.380300 -0.010385
455.600800 -0.010432
455.821300 -0.010588
456.041900 -0.010415
456.262400 -0.011459
456.483000 -0.012509
456.703600 -0.008061
456.924200 -0.010328
457.144800 -0.010631
457.365400 -0.012058
457.586000 -0.011896
457.806700 -0.013046
458.027400 -0.013400
458.248000 -0.014596
458.468700 -0.013678
458.689400 -0.013651
458.910100 -0.014786
459.130800 -0.015180
459.351600 -0.011140
459.572300 -0.014442
459.793100 -0.013792
460.013800 -0.014076
460.234600 -0.014606
460.455400 -0.016281
460.676200 -0.012399
460.897000 -0.013633
461.117800 -0.015001
461.338700 -0.014491
461.559500 -0.014611
461.780400 -0.011718
462.001300 -0.014353
462.222200 -0.011272
462.443100 -0.012496
462.664000 -0.014883
462.884900 -0.011617
463.105900 -0.013410
463.326800 -0.016018
463.547800 -0.015480
463.768700 -0.016746
463.989700 -0.016970
464.210700 -0.015440
464.431700 -0.017434
464.652800 -0.017830
464.873800 -0.019737
465.094800 -0.018769
465.315900 -0.017890
465.537000 -0.021713
465.758100 -0.021458
465.979200 -0.022342
466.200300 -0.017204
466.421400 -0.016664
466.642500 -0.019207
466.863700 -0.017449
467.084800 -0.016110
467.306000 -0.017070
467.527200 -0.015761
467.748400 -0.017457
467.969600 -0.018523
468.190800 -0.017710
468.412000 -0.017285
468.633300 -0.018169
468.854500 -0.017072
469.075800 -0.015460
469.297000 -0.015982
469.518300 -0.016091
469.739600 -0.017225
469.961000 -0.013943
470.182300 -0.014721
470.403600 -0.014625
470.625000 -0.015571
470.846300 -0.017252
471.067700 -0.015646
471.289100 -0.016740
471.510500 -0.014967
471.731900 -0.015355
471.953300 -0.015561
472.174800 -0.017759
472.396200 -0.015821
472.617700 -0.017912
472.839100 -0.017291
473.060600 -0.020385
473.282100 -0.021081
473.503600 -0.019874
473.725100 -0.020944
473.946700 -0.020834
474.168200 -0.019699
474.389800 -0.018971
474.611300 -0.020595
474.832900 -0.020319
475.054500 -0.022258
475.276100 -0.022184
475.497700 -0.020313
475.719300 -0.021140
475.941000 -0.020686
476.162600 -0.021776
476.384300 -0.020641
476.606000 -0.021914
476.827700 -0.021847
477.049400 -0.020254
477.271100 -0.020733
477.492800 -0.021813
477.714500 -0.020449
477.936300 -0.024906
478.158000 -0.023585
478.379800 -0.025637
478.601600 -0.022554
478.823400 -0.023856
479.045200 -0.024168
479.267000 -0.023609
479.488800 -0.022685
479.710700 -0.025804
479.932500 -0.023901
480.154400 -0.027669
480.376300 -0.024747
480.598200 -0.027299
480.820100 -0.024579
481.042000 -0.024368
481.263900 -0.027455
481.485900 -0.026341
481.707800 -0.029470
481.929800 -0.027912
482.151700 -0.026621
482.373700 -0.026737
482.595700 -0.026056
482.817700 -0.027860
483.039800 -0.027171
483.261800 -0.027385
483.483800 -0.028771
483.705900 -0.027206
483.928000 -0.028187
484.150100 -0.029635
484.372100 -0.031973
484.594300 -0.031505
484.816400 -0.030991
485.038500 -0.032770
485.260600 -0.034409
485.482800 -0.049760
485.705000 -0.084389
485.927100 -0.114902
486.149300 -0.114366
486.371500 -0.089700
486.593700 -0.071603
486.816000 -0.062037
487.038200 -0.058864
487.260500 -0.056425
487.482700 -0.046060
487.705000 -0.036822
487.927300 -0.033195
488.149600 -0.032574
488.371900 -0.030936
488.594200 -0.030982
488.816500 -0.030206
489.038900 -0.031778
489.261200 -0.031833
489.483600 -0.029854
489.706000 -0.030645
489.928400 -0.032281
490.150800 -0.032980
490.373200 -0.030639
490.595600 -0.029548
490.818000 -0.031567
491.040500 -0.030937
491.263000 -0.030741
491.485400 -0.031820
491.707900 -0.031785
491.930400 -0.031827
492.152900 -0.030010
492.375500 -0.030604
492.598000 -0.032229
492.820500 -0.033547
493.043100 -0.032840
493.265700 -0.032302
493.488200 -0.034405
493.710800 -0.031640
493.933400 -0.032090
494.156100 -0.032940
494.378700 -0.033732
494.601300 -0.034008
494.824000 -0.035098
495.046600 -0.031550
495.269300 -0.032859
495.492000 -0.031327
495.714700 -0.031231
495.937400 -0.031419
496.160100 -0.036262
496.382900 -0.037741
496.605600 -0.037108
496.828400 -0.037933
497.051100 -0.034900
497.273900 -0.035562
497.496700 -0.034269
497.719500 -0.031154
497.942300 -0.031916
498.165200 -0.033337
498.388000 -0.033534
498.610900 -0.032683
498.833700 -0.033751
499.056600 -0.034366
499.279500 -0.036266
499.502400 -0.037292
499.725300 -0.038234
499.948200 -0.035931
500.171200 -0.036227
500.394100 -0.035481
500.617100 -0.034033
500.840000 -0.033840
501.063000 -0.035900
501.286000 -0.038303
501.509000 -0.036156
501.732000 -0.038874
501.955100 -0.034968
502.178100 -0.036093
502.401200 -0.037598
502.624200 -0.037801
502.847300 -0.036676
503.070400 -0.037427
503.293500 -0.037038
503.516600 -0.037810
503.739700 -0.038192
503.962800 -0.036702
504.186000 -0.034360
504.409200 -0.036621
504.632300 -0.034525
504.855500 -0.035890
505.078700 -0.035025
505.301900 -0.036695
505.525100 -0.037849
505.748300 -0.036301
505.971600 -0.034558
506.194800 -0.035279
506.418100 -0.037156
506.641400 -0.037922
506.864700 -0.037226
507.088000 -0.034003
507.311300 -0.032437
507.534600 -0.033021
507.757900 -0.035169
507.981300 -0.034716
508.204600 -0.034694
508.428000 -0.035525
508.651400 -0.034150
508.874800 -0.035536
509.098200 -0.034474
509.321600 -0.032456
509.545000 -0.033574
509.768500 -0.034675
509.991900 -0.034241
510.215400 -0.034860
510.438800 -0.033525
510.662300 -0.033098
510.885800 -0.034137
511.109300 -0.035081
511.332900 -0.035310
511.556400 -0.033637
511.779900 -0.034529
512.003500 -0.034252
512.227000 -0.034077
512.450600 -0.030709
512.674200 -0.031260
512.897800 -0.032086
513.121400 -0.034104
513.345100 -0.031584
513.568700 -0.030923
513.792300 -0.029952
514.016000 -0.030941
514.239700 -0.033231
514.463400 -0.031626
514.687100 -0.030561
514.910800 -0.030762
515.134500 -0.030691
515.358200 -0.030487
515.581900 -0.029475
515.805700 -0.030916
516.029500 -0.030533
516.253200 -0.029825
516.477000 -0.030926
516.700800 -0.031715
516.924600 -0.028842
517.148500 -0.028837
517.372300 -0.031356
517.596100 -0.028751
517.820000 -0.031933
518.043900 -0.030136
518.267700 -0.029388
518.491600 -0.027854
518.715500 -0.027840
518.939500 -0.029613
519.163400 -0.028519
519.387300 -0.031525
519.611300 -0.029263
519.835200 -0.030069
520.059200 -0.028803
520.283200 -0.027500
520.507200 -0.026905
520.731200 -0.026262
520.955200 -0.029264
521.179200 -0.026863
521.403300 -0.026345
521.627300 -0.024356
521.851400 -0.025157
522.075500 -0.024720
522.299600 -0.025116
522.523700 -0.025778
522.747800 -0.025316
522.971900 -0.026746
523.196000 -0.026237
523.420200 -0.024036
523.644300 -0.025672
523.868500 -0.027000
524.092700 -0.025893
524.316900 -0.027281
524.541100 -0.025889
524.765300 -0.025938
524.989500 -0.025918
525.213800 -0.024791
525.438000 -0.026374
525.662300 -0.027915
525.886500 -0.025027
526.110800 -0.024127
526.335100 -0.024848
526.559400 -0.023864
526.783700 -0.025031
527.008100 -0.025605
527.232400 -0.025120
527.456800 -0.025041
527.681100 -0.024242
527.905500 -0.023347
528.129900 -0.024908
528.354300 -0.024349
528.578700 -0.026584
528.803100 -0.026772
529.027600 -0.026852
529.252000 -0.028670
529.476500 -0.027707
529.700900 -0.025188
529.925400 -0.026953
530.149900 -0.024742
530.374400 -0.025917
530.598900 -0.025115
530.823400 -0.026236
531.048000 -0.024327
531.272500 -0.025963
531.497100 -0.023326
531.721700 -0.024335
531.946200 -0.024694
532.170800 -0.023666
532.395400 -0.023005
532.620000 -0.024679
532.844700 -0.024804
533.069300 -0.025784
533.294000 -0.027283
533.518600 -0.026888
533.743300 -0.027470
533.968000 -0.030071
534.192700 -0.027410
534.417400 -0.028418
534.642100 -0.029036
534.866800 -0.028049
535.091600 -0.028411
535.316300 -0.028407
535.541100 -0.028479
535.765900 -0.026920
535.990700 -0.026825
536.215500 -0.025451
536.440300 -0.025195
536.665100 -0.024931
536.889900 -0.022868
537.114800 -0.022363
537.339600 -0.022677
537.564500 -0.026179
537.789400 -0.024745
538.014300 -0.025328
538.239200 -0.025844
538.464100 -0.025887
538.689000 -0.023322
538.913900 -0.025795
539.138900 -0.026002
539.363800 -0.026969
539.588800 -0.026447
539.813800 -0.028259
540.038800 -0.026208
540.263800 -0.025334
540.488800 -0.024114
540.713800 -0.024834
540.938900 -0.023709
541.163900 -0.026701
541.389000 -0.023965
541.614000 -0.023972
541.839100 -0.024708
542.064200 -0.023976
542.289300 -0.026077
542.514400 -0.025909
542.739600 -0.026468
542.964700 -0.025016
543.189900 -0.025533
543.415000 -0.025459
543.640200 -0.025280
543.865400 -0.027322
544.090600 -0.024865
544.315800 -0.026302
544.541000 -0.026647
544.766200 -0.026056
544.991500 -0.026154
545.216700 -0.026685
545.442000 -0.027037
545.667300 -0.025214
545.892600 -0.022361
546.117900 -0.022463
546.343200 -0.024605
546.568500 -0.021689
546.793800 -0.022375
547.019200 -0.022361
547.244500 -0.023388
547.469900 -0.023422
547.695300 -0.025071
547.920600 -0.026764
548.146000 -0.026037
548.371500 -0.026085
548.596900 -0.025386
548.822300 -0.024728
549.047800 -0.023818
549.273200 -0.022332
549.498700 -0.019551
549.724200 -0.021947
549.949600 -0.021312
550.175100 -0.019339
550.400700 -0.016882
550.626200 -0.020517
550.851700 -0.020243
551.077300 -0.019513
551.302800 -0.018475
551.528400 -0.017058
551.754000 -0.020367
551.979600 -0.022324
552.205200 -0.021402
552.430800 -0.022171
552.656400 -0.021711
552.882000 -0.020846
553.107700 -0.020529
553.333300 -0.020692
553.559000 -0.020055
553.784700 -0.020961
554.010400 -0.021130
554.236100 -0.018897
554.461800 -0.018653
554.687500 -0.017559
554.913200 -0.018146
555.139000 -0.018143
555.364800 -0.019148
555.590500 -0.018996
555.816300 -0.018859
556.042100 -0.020573
556.267900 -0.020278
556.493700 -0.020691
556.719500 -0.016679
556.945400 -0.016879
557.171200 -0.017386
557.397100 -0.016796
557.623000 -0.016996
557.848800 -0.015490
558.074700 -0.016946
558.300600 -0.015578
558.526600 -0.013328
558.752500 -0.014788
558.978400 -0.013298
559.204400 -0.013835
559.430300 -0.013347
559.656300 -0.014219
559.882300 -0.013561
560.108300 -0.014931
560.334300 -0.015550
560.560300 -0.016202
560.786300 -0.016279
561.012400 -0.017024
561.238400 -0.016760
561.464500 -0.017150
561.690500 -0.016570
561.916600 -0.015980
562.142700 -0.014893
562.368800 -0.015378
562.594900 -0.016371
562.821100 -0.015656
563.047200 -0.016922
563.273300 -0.015400
563.499500 -0.014289
563.725700 -0.016657
563.951900 -0.013388
564.178100 -0.013140
564.404300 -0.017092
564.630500 -0.015419
564.856700 -0.015279
565.082900 -0.014318
565.309200 -0.015179
565.535500 -0.015819
565.761700 -0.012648
565.988000 -0.012957
566.214300 -0.012869
566.440600 -0.012309
566.666900 -0.015196
566.893200 -0.015906
567.119600 -0.015342
567.345900 -0.016887
567.572300 -0.017350
567.798700 -0.015232
568.025000 -0.014521
568.251400 -0.018515
568.477800 -0.019252
568.704300 -0.018811
568.930700 -0.019428
569.157100 -0.021776
569.383600 -0.023208
569.610000 -0.024304
569.836500 -0.028171
570.063000 -0.025435
570.289500 -0.029502
570.516000 -0.027765
570.742500 -0.026836
570.969000 -0.029238
571.195600 -0.034935
571.422100 -0.031124
571.648700 -0.032730
571.875200 -0.033202
572.101800 -0.034596
572.328400 -0.036249
572.555000 -0.028023
572.781600 -0.026566
573.008200 -0.028365
573.234900 -0.033603
573.461500 -0.036844
573.688200 -0.036575
573.914900 -0.037782
574.141500 -0.037520
574.368200 -0.038660
574.594900 -0.037575
574.821600 -0.034680
575.048400 -0.039616
575.275100 -0.036854
575.501800 -0.037151
575.728600 -0.032131
575.955400 -0.027144
576.182100 -0.033371
576.408900 -0.034443
576.635700 -0.038347
576.862600 -0.037392
577.089400 -0.033895
577.316200 -0.033764
577.543100 -0.039316
577.769900 -0.044301
577.996800 -0.047706
578.223700 -0.040008
578.450500 -0.034555
578.677400 -0.033187
578.904400 -0.028084
579.131300 -0.027916
579.358200 -0.029231
579.585100 -0.034425
579.812100 -0.033688
580.039100 -0.032315
580.266000 -0.026263
580.493000 -0.030706
580.720000 -0.026217
580.947000 -0.028884
581.174100 -0.046597
581.401100 -0.054901
581.628100 -0.054952
581.855200 -0.040992
582.082200 -0.043424
582.309300 -0.035747
582.536400 -0.032191
582.763500 -0.023591
582.990600 -0.021008
583.217700 -0.018014
583.444900 -0.018950
583.672000 -0.020701
583.899100 -0.021966
584.126300 -0.022138
584.353500 -0.026779
584.580700 -0.022866
584.807900 -0.031699
585.035100 -0.033917
585.262300 -0.033091
585.489500 -0.028464
585.716700 -0.026959
585.944000 -0.025427
586.171300 -0.021294
586.398500 -0.020243
586.625800 -0.019355
586.853100 -0.022617
587.080400 -0.025210
587.307700 -0.022583
587.535000 -0.024134
587.762400 -0.019962
587.989700 -0.015626
588.217100 -0.019246
588.444500 -0.018587
588.671800 -0.017467
588.899200 -0.014451
589.126600 -0.012114
589.354000 -0.016983
589.581500 -0.013348
589.808900 -0.016675
590.036300 -0.015152
590.263800 -0.012589
590.491300 -0.010892
590.718700 -0.011176
590.946200 -0.010795
591.173700 -0.012107
591.401200 -0.012560
591.628800 -0.015900
591.856300 -0.011772
592.083800 -0.010401
592.311400 -0.011920
592.538900 -0.018340
592.766500 -0.026854
592.994100 -0.023400
593.221700 -0.021429
593.449300 -0.015804
593.676900 -0.014275
593.904600 -0.014257
594.132200 -0.011170
594.359800 -0.010345
594.587500 -0.013725
594.815200 -0.016418
595.042900 -0.021853
595.270500 -0.017138
595.498300 -0.013789
595.726000 -0.013307
595.953700 -0.013108
596.181400 -0.009776
596.409200 -0.011366
596.636900 -0.013581
596.864700 -0.014332
597.092500 -0.014879
597.320300 -0.015394
597.548100 -0.016825
597.775900 -0.014128
598.003700 -0.012169
598.231500 -0.013141
598.459400 -0.016095
598.687200 -0.021504
598.915100 -0.022876
599.143000 -0.019641
599.370900 -0.014844
599.598800 -0.013360
599.826700 -0.013170
600.054600 -0.016618
600.282500 -0.017296
600.510500 -0.014312
600.738400 -0.012263
600.966400 -0.012874
601.194400 -0.013080
601.422300 -0.010038
601.650300 -0.009434
601.878300 -0.009180
602.106400 -0.012068
602.334400 -0.012681
602.562400 -0.014565
602.790500 -0.015424
603.018500 -0.012199
603.246600 -0.015056
603.474700 -0.016382
603.702800 -0.012675
603.930900 -0.014494
604.159000 -0.012322
604.387100 -0.012946
604.615200 -0.009032
604.843400 -0.009844
605.071500 -0.010509
605.299700 -0.009660
605.527900 -0.010503
605.756100 -0.013681
605.984300 -0.007828
606.212500 -0.005966
606.440700 -0.003040
606.668900 -0.003827
606.897200 -0.005375
607.125400 -0.009189
607.353700 -0.005627
607.581900 -0.011636
607.810200 -0.008036
608.038500 -0.007439
608.266800 -0.005243
608.495100 -0.004765
608.723500 -0.000253
608.951800 -0.008137
609.180100 -0.003986
609.408500 -0.006598
609.636900 -0.006222
609.865300 -0.008012
610.093600 -0.012088
610.322000 -0.011003
610.550500 -0.007931
610.778900 -0.006352
611.007300 -0.006001
611.235700 -0.007221
611.464200 -0.010228
611.692700 -0.008290
611.921100 -0.009512
612.149600 -0.007894
612.378100 -0.008717
612.606600 -0.007742
612.835100 -0.007893
613.063700 -0.009818
613.292200 -0.009337
613.520800 -0.006861
613.749300 -0.009311
613.977900 -0.009195
614.206500 -0.007779
614.435100 -0.008749
614.663700 -0.008900
614.892300 -0.005683
615.120900 -0.006240
615.349500 -0.010038
615.578200 -0.008107
615.806800 -0.007386
616.035500 -0.006186
616.264200 -0.003393
616.492900 -0.004980
616.721600 -0.005998
616.950300 -0.005380
617.179000 -0.005968
617.407700 -0.005170
617.636500 -0.006042
617.865200 -0.005110
618.094000 -0.006566
618.322700 -0.004842
618.551500 -0.000704
618.780300 -0.001321
619.009100 -0.002922
619.237900 -0.004727
619.466700 -0.005090
619.695600 -0.004380
619.924400 -0.006506
620.153300 -0.005710
620.382100 -0.005681
620.611000 -0.002359
620.839900 -0.001142
621.068800 -0.000600
621.297700 -0.001734
621.526600 -0.002966
621.755600 -0.003534
621.984500 -0.005269
622.213500 -0.004281
622.442400 -0.003493
622.671400 -0.005697
622.900400 -0.002310
623.129400 -0.006008
623.358400 -0.004122
623.587400 -0.002881
623.816400 -0.002271
624.045400 -0.005366
624.274500 -0.005148
624.503500 -0.004455
624.732600 -0.002966
624.961700 -0.006612
625.190800 -0.000960
625.419900 -0.001766
625.649000 -0.003631
625.878100 -0.002918
626.107200 -0.001956
626.336400 -0.001781
626.565500 -0.005033
626.794700 -0.003604
627.023800 -0.002620
627.253000 -0.002773
627.482200 -0.003526
627.711400 -0.001982
627.940600 -0.003312
628.169800 -0.001169
628.399100 -0.003260
628.628300 -0.001017
628.857600 -0.002195
629.086800 -0.003657
629.316100 -0.002408
629.545400 -0.003410
629.774700 -0.003785
630.004000 -0.003367
630.233300 -0.003784
630.462600 -0.002549
630.692000 -0.002938
630.921300 -0.002597
631.150700 -0.001760
631.380100 -0.001314
631.609400 -0.001813
631.838800 -0.003315
632.068200 -0.000879
632.297600 -0.001142
632.527100 -0.001386
632.756500 -0.001817
632.985900 -0.002380
633.215400 -0.002837
633.444800 -0.001205
633.674300 -0.002176
633.903800 -0.001546
634.133300 0.000029
634.362800 -0.001674
634.592300 -0.002326
634.821800 -0.001949
635.051400 -0.004161
635.280900 -0.001453
635.510500 0.001648
635.740000 -0.001246
635.969600 -0.003587
636.199200 -0.000290
636.428800 -0.001975
636.658400 -0.001669
636.888000 -0.002039
637.117700 -0.002283
637.347300 -0.002947
637.577000 -0.002728
637.806600 -0.003613
638.036300 -0.002919
638.266000 -0.000486
638.495700 -0.001931
638.725400 -0.003049
638.955100 -0.001775
639.184800 -0.000779
639.414500 -0.002427
639.644300 -0.002172
639.874000 -0.000317
640.103800 -0.002148
640.333600 -0.001489
640.563300 0.000064
640.793100 -0.001052
641.022900 -0.000842
641.252800 -0.000687
641.482600 -0.001819
641.712400 -0.001675
641.942300 0.000423
642.172100 -0.001784
642.402000 -0.000854
642.631900 -0.000216
642.861700 -0.000652
643.091600 -0.003101
643.321600 -0.000085
643.551500 0.001004
643.781400 -0.002189
644.011300 -0.000554
644.241300 -0.001772
644.471200 -0.000817
644.701200 0.000431
644.931200 -0.002291
645.161200 -0.000546
645.391200 -0.001094
645.621200 -0.001165
645.851200 0.001214
646.081200 0.001173
646.311300 -0.001809
646.541300 -0.002834
646.771400 -0.000001
647.001500 -0.000172
647.231600 -0.001155
647.461600 -0.001534
647.691800 -0.002423
647.921900 -0.000493
648.152000 -0.002523
648.382100 -0.001100
648.612300 -0.002612
648.842400 -0.001304
649.072600 -0.003397
649.302800 -0.000394
649.532900 -0.002496
649.763100 -0.000646
649.993300 -0.000075
650.223600 -0.000961
650.453800 0.000009
650.684000 -0.001198
650.914300 -0.000467
651.144500 -0.001751
651.374800 -0.002018
651.605100 -0.002293
651.835400 -0.000887
652.065700 -0.000755
652.296000 -0.001251
652.526300 -0.000674
652.756600 -0.000247
652.987000 -0.002202
653.217300 0.000105
653.447700 -0.002002
653.678000 -0.000769
653.908400 -0.001426
654.138800 -0.002512
654.369200 -0.004053
654.599600 -0.002653
654.830000 -0.005679
655.060500 -0.014322
655.290900 -0.054700
655.521300 -0.159900
655.751800 -0.217967
655.982300 -0.018808
656.212800 -0.002245
656.443300 -0.003363
656.673800 -0.002840
656.904300 -0.006585
657.134800 -0.028989
657.365300 -0.012527
657.595900 -0.021691
657.826400 -0.024310
658.057000 -0.030609
658.287500 -0.024611
658.518100 -0.018849
658.748700 -0.022431
658.979300 -0.030297
659.209900 -0.012526
659.440600 0.007932
659.671200 0.015061
659.901800 0.011400
660.132500 0.005876
660.363200 0.002406
660.593800 -0.000812
660.824500 0.000734
661.055200 -0.000252
661.285900 -0.001558
661.516600 -0.003002
661.747400 -0.001122
661.978100 -0.000926
662.208800 -0.002046
662.439600 -0.001020
662.670400 -0.002588
662.901100 -0.002443
663.131900 -0.001618
663.362700 -0.000518
663.593500 -0.000825
663.824300 -0.002568
664.055200 -0.001564
664.286000 -0.000875
664.516800 -0.001586
664.747700 -0.002100
664.978600 -0.000934
665.209400 -0.001582
665.440300 -0.002213
665.671200 -0.002115
665.902100 -0.003565
666.133000 -0.000900
666.364000 -0.000541
666.594900 -0.001450
666.825900 -0.001658
667.056800 -0.000958
667.287800 -0.001131
667.518800 -0.002208
667.749700 -0.001562
667.980700 -0.001084
668.211700 -0.000794
668.442800 -0.001613
668.673800 -0.001763
668.904800 -0.000114
669.135900 -0.002238
669.366900 -0.002505
669.598000 -0.000287
669.829100 -0.000164
670.060200 -0.000590
670.291300 -0.002814
670.522400 -0.000163
670.753500 -0.000849
670.984600 -0.002100
671.215700 -0.001858
671.446900 -0.003495
671.678100 -0.003307
671.909200 -0.001510
672.140400 -0.002986
672.371600 -0.002265
672.602800 -0.000534
672.834000 -0.001502
673.065200 -0.000972
673.296400 0.000459
673.527700 -0.000838
673.758900 -0.001065
673.990200 -0.001581
674.221400 -0.000965
674.452700 -0.000520
674.684000 -0.001009
674.915300 -0.003438
675.146600 -0.002584
675.377900 0.000229
675.609300 -0.001269
675.840600 -0.002430
676.071900 -0.000688
676.303300 -0.000875
676.534700 -0.000257
676.766100 -0.000791
676.997400 -0.001021
677.228800 -0.001053
677.460200 -0.001649
677.691700 -0.002151
677.923100 -0.002123
678.154500 -0.002341
678.386000 -0.000562
678.617400 -0.002013
678.848900 -0.002755
679.080400 -0.000469
679.311900 -0.002157
679.543400 -0.001939
679.774900 -0.001786
680.006400 -0.002777
680.237900 -0.001013
680.469400 -0.001505
680.701000 -0.002341
680.932500 -0.000836
681.164100 -0.001819
681.395700 -0.002592
681.627300 -0.002127
681.858900 -0.001047
682.090500 -0.001537
682.322100 -0.000363
682.553700 -0.001611
682.785400 0.000540
683.017000 -0.002523
683.248700 -0.001880
683.480300 -0.000525
683.712000 0.000115
683.943700 -0.002579
684.175400 -0.002477
684.407100 -0.003651
684.638800 -0.000836
684.870500 -0.002839
685.102300 -0.004449
685.334000 -0.004086
685.565800 -0.004547
685.797500 -0.002383
686.029300 -0.001638
686.261100 -0.002281
686.492900 -0.003200
686.724700 -0.003120
686.956500 -0.000377
687.188300 -0.001873
687.420200 -0.002288
687.652000 -0.001968
687.883800 -0.001449
688.115700 -0.000525
688.347600 -0.001102
688.579500 -0.000783
688.811400 -0.001507
689.043300 -0.003002
689.275200 -0.002369
689.507100 -0.001834
689.739000 -0.002141
689.971000 -0.001487
690.202900 -0.000921
690.434900 -0.001717
690.666900 -0.000949
690.898800 -0.002038
691.130800 -0.002396
691.362800 -0.001989
691.594800 -0.002471
691.826900 -0.001901
692.058900 -0.002510
692.290900 -0.002368
692.523000 -0.003212
692.755000 -0.002717
692.987100 -0.001884
693.219200 -0.003395
693.451300 -0.003047
693.683400 -0.002974
693.915500 -0.001046
694.147600 -0.001199
694.379700 -0.002384
694.611900 -0.001463
694.844000 -0.002296
695.076200 -0.001055
695.308300 -0.002439
695.540500 -0.001298
695.772700 0.000842
696.004900 -0.003184
696.237100 -0.001289
696.469300 -0.001912
696.701600 -0.002964
696.933800 -0.002562
697.166000 -0.001820
697.398300 -0.003029
697.630600 -0.002632
697.862800 -0.002832
698.095100 -0.003265
698.327400 -0.003479
698.559700 -0.001194
698.792000 -0.000094
699.024300 -0.000846
699.256700 -0.000942
699.489000 -0.001732
699.721400 -0.003182
699.953700 -0.000511
700.186100 -0.000891
700.418500 -0.000265
700.650900 -0.001890
700.883300 -0.002428
701.115700 -0.002938
701.348100 0.001257
701.580600 -0.002151
701.813000 -0.002773
702.045400 -0.001953
702.277900 -0.002450
702.510400 -0.002417
702.742900 -0.000374
702.975300 -0.001286
703.207800 -0.000709
703.440300 -0.003449
703.672900 -0.002488
703.905400 -0.000337
704.137900 -0.002196
704.370500 -0.000972
704.603000 -0.001329
704.835600 -0.001343
705.068200 0.000245
705.300800 -0.000493
705.533400 -0.001098
705.766000 -0.001509
705.998600 -0.002620
706.231200 -0.002506
706.463800 -0.005133
706.696500 -0.003256
706.929100 -0.000632
707.161800 -0.001002
707.394500 -0.002921
707.627200 -0.001395
707.859900 -0.004123
708.092600 -0.004348
708.325300 -0.000843
708.558000 -0.001194
708.790700 -0.002330
709.023500 -0.002471
709.256200 -0.000545
709.489000 -0.000569
709.721700 0.000159
709.954500 -0.001541
710.187300 -0.000479
710.420100 -0.002169
710.652900 0.000187
710.885700 -0.000633
711.118600 -0.000184
711.351400 0.001672
711.584200 -0.001179
711.817100 -0.001629
712.050000 -0.000847
712.282800 -0.001033
712.515700 -0.000997
712.748600 -0.000765
712.981500 -0.000441
713.214400 -0.002590
713.447400 -0.000880
713.680300 -0.000422
713.913200 -0.001519
714.146200 -0.001568
714.379100 -0.000077
714.612100 -0.000790
714.845100 -0.001333
715.078100 -0.002527
715.311100 0.001167
715.544100 -0.002022
715.777100 -0.000612
716.010200 -0.000462
716.243200 0.000427
716.476200 -0.002288
716.709300 -0.001953
716.942400 -0.001567
717.175400 0.000173
717.408500 -0.000575
717.641600 -0.000329
717.874700 -0.000836
718.107800 -0.000846
718.341000 -0.002588
718.574100 -0.001297
718.807200 -0.001883
719.040400 -0.002167
719.273600 -0.002668
719.506700 -0.002139
719.739900 -0.000403
719.973100 -0.000707
720.206300 -0.001033
720.439500 -0.001227
720.672700 -0.002122
720.906000 -0.002161
721.139200 -0.000997
721.372500 -0.001880
721.605700 -0.001363
721.839000 -0.004464
722.072300 -0.001668
722.305500 -0.000114
722.538800 -0.001659
722.772100 -0.000273
723.005500 -0.000721
723.238800 -0.001817
723.472100 -0.000463
723.705500 -0.002447
723.938800 0.000216
724.172200 -0.000654
724.405600 0.000327
724.638900 -0.003360
724.872300 -0.000695
725.105700 -0.001865
725.339100 -0.003086
725.572600 -0.001826
725.806000 -0.000620
726.039400 -0.001966
726.272900 -0.003225
726.506300 -0.001699
726.739800 -0.001435
726.973300 -0.002375
727.206800 -0.001411
727.440300 -0.003201
727.673800 -0.001414
727.907300 -0.003131
728.140800 -0.001112
728.374300 -0.002867
728.607900 -0.002317
728.841400 -0.000859
729.075000 -0.000950
729.308600 -0.000545
729.542100 -0.001930
729.775700 -0.002618
730.009300 -0.000615
730.242900 -0.001250
730.476600 -0.003578
730.710200 -0.001749
730.943800 -0.003600
731.177500 -0.003769
731.411100 -0.003418
731.644800 -0.003773
731.878500 -0.001863
732.112200 -0.001589
732.345800 -0.001428
732.579500 -0.004410
732.813300 -0.003481
733.047000 -0.001452
733.280700 -0.004877
733.514500 -0.002672
733.748200 -0.004232
733.982000 -0.004394
734.215700 -0.003571
734.449500 -0.004560
734.683300 -0.004572
734.917100 -0.000764
735.150900 -0.001742
735.384700 -0.001921
735.618500 -0.003497
735.852400 -0.004320
736.086200 -0.002247
736.320100 -0.001541
736.553900 -0.004960
736.787800 -0.002189
737.021700 -0.002319
737.255600 -0.001878
737.489500 -0.001591
737.723400 -0.000682
737.957300 0.000214
738.191200 0.000446
738.425200 -0.001879
738.659100 -0.001974
738.893100 -0.001115
739.127100 -0.004062
739.361000 -0.002429
739.595000 -0.002836
739.829000 -0.001565
740.063000 -0.001480
740.297000 -0.001540
740.531000 -0.000178
740.765100 -0.001820
740.999100 -0.002622
741.233200 -0.002629
741.467200 -0.002612
741.701300 -0.000967
741.935400 -0.000468
742.169500 0.000151
742.403600 -0.001210
742.637700 -0.002620
742.871800 -0.000309
743.105900 -0.000616
743.340000 -0.000310
743.574200 -0.000966
743.808300 -0.001493
744.042500 0.001176
744.276700 -0.001310
744.510800 -0.000819
744.745000 -0.000568
744.979200 -0.002267
745.213400 -0.001314
745.447700 -0.000744
745.681900 -0.001026
745.916100 -0.002179
746.150400 -0.001967
746.384600 -0.001179
746.618900 0.000763
746.853200 -0.001494
747.087400 -0.001248
747.321700 -0.001801
747.556000 -0.001217
747.790300 -0.001630
748.024700 0.000332
748.259000 -0.000404
748.493300 -0.003276
748.727700 -0.001100
748.962000 -0.002516
749.196400 -0.002262
749.430800 -0.002951
749.665200 -0.001699
749.899500 -0.003678
750.133900 -0.001813
750.368400 -0.003993
750.602800 -0.001957
750.837200 -0.000268
751.071700 -0.002561
751.306100 -0.002569
751.540600 -0.001978
751.775000 -0.003324
752.009500 -0.001559
752.244000 -0.001391
752.478500 -0.000375
752.713000 -0.001736
752.947500 -0.000569
753.182000 -0.003608
753.416600 -0.000230
753.651100 -0.004225
753.885600 -0.003401
754.120200 -0.003271
754.354800 0.000055
754.589400 -0.000940
754.823900 -0.000772
755.058500 -0.002015
755.293100 -0.002395
755.527800 -0.001417
755.762400 -0.000840
755.997000 -0.003379
756.231700 -0.003607
756.466300 -0.003093
756.701000 -0.002835
756.935600 -0.002557
757.170300 -0.003383
757.405000 -0.005888
757.639700 -0.004428
757.874400 -0.004321
758.109100 -0.003302
758.343800 -0.002793
758.578600 -0.002043
758.813300 -0.002622
759.048100 -0.003893
759.282800 -0.003950
759.517600 -0.005679
759.752400 -0.004832
759.987200 -0.003520
760.222000 -0.002242
760.456800 -0.003083
760.691600 -0.004679
760.926400 -0.004139
761.161300 -0.004880
761.396100 -0.001819
761.631000 -0.002167
761.865800 -0.005723
762.100700 -0.003545
762.335600 -0.003392
762.570500 -0.001671
762.805400 -0.000413
763.040300 -0.001682
763.275200 -0.002374
763.510100 -0.002908
763.745000 -0.002873
763.980000 -0.003376
764.214900 -0.002648
764.449900 -0.004292
764.684900 -0.004562
764.919800 -0.001734
765.154800 -0.001929
765.389800 -0.003117
765.624800 -0.004977
765.859900 -0.000263
766.094900 -0.001211
766.329900 -0.001355
766.565000 -0.001774
766.800000 -0.000208
767.035100 -0.001179
767.270100 -0.001239
767.505200 -0.002137
767.740300 -0.002568
767.975400 -0.001861
768.210500 -0.001819
768.445600 -0.001652
768.680800 -0.004855
768.915900 -0.004994
769.151000 -0.003392
769.386200 -0.002249
769.621400 -0.002327
769.856500 -0.002675
770.091700 -0.003185
770.326900 -0.001494
770.562100 -0.002720
770.797300 -0.002253
771.032500 -0.001894
771.267700 -0.002104
771.503000 -0.000993
771.738200 -0.002798
771.973500 0.000271
772.208700 -0.002574
772.444000 -0.003028
772.679300 -0.000173
772.914600 -0.003360
773.149900 -0.000434
773.385200 -0.001120
773.620500 -0.001870
773.855800 -0.002471
774.091100 -0.000805
774.326500 -0.001945
774.561800 -0.001072
774.797200 -0.003387
775.032600 -0.004136
775.267900 -0.001219
775.503300 -0.001123
775.738700 -0.001075
775.974100 -0.001540
776.209500 -0.001135
776.445000 -0.002060
776.680400 -0.003624
776.915800 -0.001157
777.151300 -0.001829
777.386800 -0.000198
777.622200 -0.000957
777.857700 -0.000862
778.093200 -0.001935
778.328700 -0.000148
778.564200 -0.002043
778.799700 -0.001867
779.035200 -0.001802
779.270700 -0.000536
779.506300 -0.001386
779.741800 -0.000247
779.977400 0.000058
780.213000 -0.002116
780.448500 -0.001117
780.684100 -0.001676
780.919700 -0.003109
781.155300 -0.001523
781.390900 -0.003322
781.626500 -0.001736
781.862200 -0.002158
782.097800 -0.002194
782.333500 -0.002606
782.569100 -0.002430
782.804800 -0.001175
783.040500 -0.000122
783.276100 0.000292
783.511800 -0.001972
783.747500 -0.001941
783.983200 -0.001794
784.219000 -0.001474
784.454700 -0.000360
784.690400 -0.001929
784.926200 -0.000716
785.161900 -0.002618
785.397700 -0.001229
785.633500 0.000747
785.869200 -0.001930
786.105000 -0.002474
786.340800 -0.002305
786.576600 -0.000903
786.812400 -0.002077
787.048300 -0.001546
787.284100 -0.003469
787.519900 -0.001532
787.755800 -0.001897
787.991700 -0.000539
788.227500 -0.001810
788.463400 -0.000659
788.699300 -0.000646
788.935200 -0.004155
789.171100 -0.002037
789.407000 -0.001257
789.642900 -0.002776
789.878900 -0.002042
790.114800 -0.001128
790.350700 -0.000605
790.586700 -0.002180
790.822700 -0.000826
791.058600 -0.000159
791.294600 -0.002188
791.530600 -0.001770
791.766600 -0.001597
792.002600 -0.001724
792.238700 -0.001422
792.474700 -0.002702
792.710700 -0.000599
792.946800 0.000054
793.182800 -0.002657
793.418900 -0.001598
793.655000 -0.002456
793.891000 -0.003717
794.127100 -0.003526
794.363200 -0.003304
794.599300 -0.001696
794.835500 -0.001964
795.071600 -0.003425
795.307700 -0.003594
795.543900 -0.000612
795.780000 -0.000571
796.016200 -0.001923
796.252300 -0.001650
796.488500 -0.002659
796.724700 -0.002042
796.960900 -0.001571
797.197100 -0.001700
797.433300 -0.000314
797.669500 -0.001197
797.905800 -0.001815
798.142000 -0.000431
798.378300 -0.000008
798.614500 -0.001320
798.850800 -0.001281
799.087100 -0.001458
799.323300 -0.000528
799.559600 -0.000898
799.795900 -0.001278
800.032200 -0.001856
800.268600 -0.000340
800.504900 -0.000864
800.741200 -0.000562
800.977600 -0.001821
801.213900 -0.000987
801.450300 -0.001814
801.686700 -0.001639
801.923000 -0.000280
802.159400 -0.001263
802.395800 -0.000288
802.632200 -0.001980
802.868600 0.000077
803.105100 -0.001279
803.341500 0.000528
803.577900 -0.001705
803.814400 -0.001951
804.050800 0.000231
804.287300 -0.001494
804.523800 -0.001143
804.760300 -0.002071
804.996800 0.000468
805.233300 -0.001044
805.469800 -0.002092
805.706300 -0.000858
805.942800 -0.000787
806.179400 -0.001883
806.415900 -0.002815
806.652500 -0.001253
806.889000 -0.003191
807.125600 -0.001846
807.362200 0.000819
807.598800 -0.000676
807.835400 -0.000229
808.072000 -0.000877
808.308600 -0.001393
808.545200 -0.001074
808.781800 -0.001345
809.018500 -0.002357
809.255100 -0.000982
809.491800 0.000096
809.728400 0.000005
809.965100 -0.001016
810.201800 -0.000572
810.438500 0.001379
810.675200 0.000754
810.911900 -0.001114
811.148600 -0.001750
811.385300 -0.000562
811.622100 -0.002602
811.858800 -0.000295
812.095600 0.000101
812.332300 -0.002178
812.569100 0.000336
812.805900 0.000351
813.042700 -0.001229
813.279500 -0.000282
813.516300 0.000735
813.753100 -0.000745
813.989900 -0.002352
814.226700 -0.001546
814.463600 -0.001641
814.700400 -0.001532
814.937300 -0.000879
815.174200 -0.001509
815.411000 0.000217
815.647900 0.000304
815.884800 -0.000736
816.121700 -0.000655
816.358600 -0.001180
816.595500 -0.001509
816.832400 -0.001085
817.069400 0.000161
817.306300 -0.001172
817.543300 -0.001088
817.780200 0.001464
818.017200 -0.001428
818.254200 -0.001433
818.491200 -0.000564
818.728200 -0.001196
818.965200 -0.001187
819.202200 -0.000632
819.439200 -0.000681
819.676200 0.000336
819.913300 -0.001208
820.150300 -0.000248
820.387400 -0.002438
820.624400 -0.001801
820.861500 -0.002006
821.098600 -0.000954
821.335700 -0.002540
821.572700 -0.000654
821.809900 -0.000581
822.047000 -0.001755
822.284100 -0.000149
822.521200 -0.001390
822.758400 -0.001216
822.995500 -0.002361
823.232700 -0.001623
823.469800 -0.001739
823.707000 -0.000393
823.944200 -0.000828
824.181400 -0.001110
824.418600 0.000360
824.655800 0.000412
824.893000 -0.000737
825.130200 -0.000983
825.367500 -0.001546
825.604700 -0.001560
825.841900 0.000958
826.079200 -0.001313
826.316500 -0.000903
826.553700 -0.001151
826.791000 -0.002224
827.028300 -0.002206
827.265600 -0.000335
827.502900 -0.002125
827.740200 -0.002083
827.977600 -0.000111
828.214900 -0.001451
828.452200 -0.001668
828.689600 -0.000833
828.927000 -0.000979
829.164300 0.000973
829.401700 -0.000367
829.639100 -0.000660
829.876500 -0.000358
830.113900 -0.001001
830.351300 -0.001050
830.588700 -0.000934
830.826100 -0.000742
831.063600 0.000865
831.301000 -0.001657
831.538500 -0.000848
831.775900 -0.001583
832.013400 -0.000596
832.250900 -0.001024
832.488400 -0.001942
832.725900 -0.000934
832.963400 -0.000144
833.200900 -0.001709
833.438400 -0.000411
833.675900 -0.002510
833.913500 -0.000210
834.151000 -0.002214
834.388600 -0.001512
834.626100 -0.000488
834.863700 -0.001518
835.101300 0.000441
835.338900 0.000021
835.576500 -0.000496
835.814100 0.000507
836.051700 0.000141
836.289300 -0.002738
836.526900 -0.000555
836.764600 0.000351
837.002200 -0.000221
837.239900 -0.001155
837.477500 -0.000345
837.715200 0.000615
837.952900 -0.000531
838.190600 -0.001899
838.428300 0.000334
838.666000 -0.000388
838.903700 -0.000778
839.141400 -0.001400
839.379100 0.000436
839.616900 0.000010
839.854600 -0.000697
840.092400 -0.000919
840.330200 -0.001248
840.567900 -0.000624
840.805700 -0.000594
841.043500 -0.000788
841.281300 -0.000584
841.519100 -0.000503
841.756900 -0.001109
841.994700 0.000502
842.232600 -0.001113
842.470400 -0.000015
842.708200 -0.000279
842.946100 0.000185
843.184000 -0.000023
843.421800 -0.000677
843.659700 -0.000987
843.897600 0.000147
844.135500 -0.000856
844.373400 -0.000096
844.611300 -0.001650
844.849200 -0.000433
845.087200 -0.001015
845.325100 -0.001222
845.563100 -0.001088
845.801000 -0.000437
846.039000 -0.000856
846.277000 0.000178
846.514900 0.000101
846.752900 0.000789
846.990900 -0.000153
847.228900 0.000072
847.466900 -0.002223
847.705000 0.000090
847.943000 0.000393
848.181000 -0.000874
848.419100 -0.000923
848.657100 -0.000758
848.895200 -0.000797
849.133300 -0.001078
849.371300 -0.000156
849.609400 -0.001549
849.847500 -0.001169
850.085600 -0.000529
850.323700 -0.001298
850.561900 0.000536
850.800000 -0.000469
851.038100 -0.000561
851.276300 0.000304
851.514400 0.000572
851.752600 -0.001302
851.990800 0.000913
852.228900 -0.000742
852.467100 -0.001492
852.705300 -0.001361
852.943500 -0.000914
853.181700 -0.001282
853.420000 -0.000437
853.658200 -0.000229
853.896400 -0.002586
854.134700 -0.000697
854.372900 -0.000483
854.611200 -0.002164
854.849500 -0.002367
855.087700 -0.000729
855.326000 -0.002016
855.564300 -0.000635
855.802600 -0.001415
856.040900 -0.002171
856.279200 -0.001050
856.517600 -0.001620
856.755900 -0.000663
856.994200 -0.000150
857.232600 -0.001082
857.471000 0.000454
857.709300 -0.000664
857.947700 -0.000836
858.186100 -0.001240
858.424500 0.000560
858.662900 -0.001121
858.901300 -0.000703
859.139700 -0.000218
859.378100 0.000235
859.616600 -0.000375
859.855000 -0.000637
860.093500 0.000795
860.331900 -0.000731
860.570400 -0.001745
860.808900 -0.000243
861.047300 -0.000043
861.285800 -0.000912
861.524300 -0.002539
861.762800 -0.001204
862.001300 -0.000707
862.239900 -0.002634
862.478400 0.000224
862.716900 -0.000247
862.955500 -0.000419
863.194000 0.000147
863.432600 -0.002072
863.671200 -0.000341
863.909800 -0.000099
864.148300 0.000055
864.386900 -0.000402
864.625500 -0.001537
864.864200 -0.000145
865.102800 0.000167
865.341400 0.000362
865.580000 -0.000005
865.818700 -0.000441
866.057300 -0.000483
866.296000 -0.000420
866.534700 -0.000040
866.773300 -0.002339
867.012000 -0.001193
867.250700 -0.000047
867.489400 0.000160
867.728100 0.000709
867.966900 -0.000965
868.205600 0.000051
868.444300 -0.000606
868.683100 -0.000082
868.921800 0.000410
869.160600 -0.000329
869.399300 0.000003
869.638100 -0.000273
869.876900 -0.000131
870.115700 -0.000852
870.354500 -0.000470
870.593300 -0.000083
870.832100 -0.001636
871.070900 -0.000363
871.309700 -0.000068
871.548600 -0.001516
871.787400 0.000375
872.026300 0.000850
872.265100 0.000136
872.504000 -0.000947
872.742900 -0.000877
872.981800 -0.000044
873.220700 -0.000891
873.459600 -0.001609
873.698500 -0.001207
873.937400 -0.001299
874.176300 -0.000378
874.415300 -0.001127
874.654200 -0.000711
874.893200 -0.000645
875.132100 0.000463
875.371100 -0.000357
875.610100 -0.000964
875.849100 -0.000953
876.088000 0.000108
876.327000 -0.001351
876.566100 0.000125
876.805100 -0.000765
877.044100 0.000202
877.283100 0.000945
877.522200 0.000575
877.761200 -0.000964
878.000300 -0.001274
878.239300 -0.000784
878.478400 -0.000894
878.717500 -0.001136
878.956600 -0.000742
879.195700 -0.001920
879.434800 -0.000025
879.673900 -0.001171
879.913000 0.000277
880.152100 -0.001048
880.391300 -0.000253
880.630400 -0.000524
880.869600 -0.000302
881.108700 0.000183
881.347900 -0.000693
881.587100 -0.000918
881.826200 -0.001140
882.065400 -0.001094
882.304600 -0.000192
882.543800 -0.000751
882.783100 -0.001540
883.022300 -0.000406
883.261500 0.000358
883.500700 0.000193
883.740000 0.000755
883.979200 -0.001207
884.218500 0.000506
884.457800 0.000150
884.697100 -0.000514
884.936300 -0.001069
885.175600 -0.000419
885.414900 -0.001151
885.654200 -0.000803
885.893600 -0.000662
886.132900 -0.001956
886.372200 -0.000683
886.611600 0.001264
886.850900 -0.001921
887.090300 0.000006
887.329600 -0.000859
887.569000 -0.000015
887.808400 -0.001116
888.047800 0.001219
888.287200 -0.000662
888.526600 -0.000065
888.766000 0.000364
889.005400 -0.000701
889.244800 -0.001890
889.484300 0.000058
889.723700 -0.000676
889.963200 -0.000846
890.202600 -0.000487
890.442100 -0.000351
890.681600 -0.000747
890.921100 -0.001739
891.160600 -0.000975
891.400100 -0.000867
891.639600 -0.001282
891.879100 -0.001162
892.118600 -0.000721
892.358100 0.000329
892.597700 -0.001387
892.837200 -0.001644
893.076800 -0.000959
893.316300 -0.000782
893.555900 -0.001344
893.795500 -0.001141
894.035100 -0.000660
894.274700 -0.000396
894.514300 -0.000279
894.753900 -0.000184
894.993500 -0.000976
895.233100 0.001173
895.472700 -0.000561
895.712400 -0.001218
895.952000 -0.000504
896.191700 -0.000537
896.431400 -0.000709
896.671000 -0.001940
896.910700 -0.000293
897.150400 -0.000857
897.390100 -0.000427
897.629800 0.000594
897.869500 0.000529
898.109200 -0.000374
898.348900 -0.000588
898.588700 -0.000856
898.828400 -0.001147
899.068200 -0.000645
899.307900 -0.000494
899.547700 -0.001141
899.787500 -0.000507
900.027200 0.000466
900.267000 -0.000948
900.506800 -0.001130
900.746600 0.000108
900.986400 -0.000423
901.226300 -0.000465
901.466100 -0.000744
901.705900 -0.002301
901.945800 -0.000585
902.185600 -0.000884
902.425500 -0.000413
902.665400 0.000227
902.905200 -0.000203
903.145100 -0.000888
903.385000 -0.000332
903.624900 -0.000758
903.864800 -0.000794
904.104700 -0.000873
904.344600 -0.000273
904.584600 0.000086
904.824500 0.000347
905.064400 -0.001080
905.304400 0.000228
905.544400 -0.000170
905.784300 -0.002347
906.024300 0.000167
906.264300 0.000079
906.504300 -0.000521
906.744300 -0.000574
906.984300 -0.000614
907.224300 -0.000487
907.464300 -0.001567
907.704300 -0.000814
907.944400 0.000462
908.184400 -0.000266
908.424500 0.000546
908.664500 0.000772
908.904600 -0.000460
909.144700 -0.000096
909.384700 -0.000103
909.624800 0.000100
909.864900 -0.000498
910.105000 -0.000291
910.345200 0.001000
910.585300 -0.000744
910.825400 -0.000822
911.065500 -0.000093
911.305700 -0.000628
911.545800 -0.000002
911.786000 -0.000891
912.026200 -0.000283
912.266300 -0.001131
912.506500 -0.000761
912.746700 -0.000722
912.986900 -0.000054
913.227100 -0.000783
913.467300 -0.001170
913.707500 0.000290
913.947800 -0.000762
914.188000 -0.001324
914.428300 0.000159
914.668500 -0.001085
914.908800 0.000283
915.149000 -0.000090
915.389300 -0.000810
915.629600 -0.001138
915.869900 -0.000315
916.110200 0.000377
916.350500 -0.000287
916.590800 -0.000589
916.831100 -0.000645
917.071400 -0.000952
917.311800 0.000308
917.552100 0.000018
917.792500 0.000251
918.032800 -0.000290
918.273200 -0.001598
918.513600 -0.001233
918.753900 -0.000811
918.994300 -0.001622
919.234700 -0.001225
919.475100 -0.001197
919.715500 -0.000463
919.956000 -0.000975
920.196400 0.000680
920.436800 -0.000058
920.677300 0.000951
920.917700 -0.001043
921.158200 -0.000304
921.398600 -0.000533
921.639100 -0.001444
921.879600 0.000855
922.120100 -0.000413
922.360600 -0.000642
922.601100 -0.000316
922.841600 -0.000213
923.082100 -0.000269
923.322600 -0.000343
923.563100 0.000170
923.803700 -0.001634
924.044200 0.000107
924.284800 -0.001701
924.525400 -0.000227
924.765900 -0.001325
925.006500 0.000279
925.247100 0.000029
925.487700 -0.000013
925.728300 -0.000561
925.968900 -0.000252
926.209500 -0.000597
926.450100 -0.000611
926.690800 -0.002435
926.931400 -0.000083
927.172000 -0.000582
927.412700 -0.001283
927.653300 -0.001321
927.894000 0.001081
928.134700 -0.001848
928.375400 -0.000168
928.616100 -0.001686
928.856800 -0.000636
929.097500 -0.000073
929.338200 -0.000298
929.578900 -0.000843
929.819600 -0.000315
930.060400 -0.000020
930.301100 -0.000456
930.541900 0.000086
930.782600 0.000114
931.023400 -0.000491
931.264200 -0.000896
931.504900 -0.001557
931.745700 -0.000804
931.986500 -0.000202
932.227300 -0.000994
932.468100 -0.001433
932.708900 0.000043
932.949800 -0.001283
933.190600 -0.000580
933.431400 -0.000758
933.672300 0.000769
933.913100 -0.000882
934.154000 0.000402
934.394900 -0.000445
934.635800 0.000156
934.876600 -0.000575
935.117500 -0.000601
935.358400 -0.001103
935.599300 -0.000474
935.840300 -0.000251
936.081200 -0.000657
936.322100 0.000180
936.563000 -0.001266
936.804000 -0.001191
937.044900 -0.000084
937.285900 -0.000713
937.526900 0.000079
937.767800 -0.001507
938.008800 -0.001005
938.249800 -0.000675
938.490800 -0.000375
938.731800 -0.000042
938.972800 -0.001466
939.213800 0.000071
939.454900 -0.001258
939.695900 0.000117
939.936900 -0.000454
940.178000 -0.001076
940.419000 -0.001038
940.660100 -0.001198
940.901200 -0.000294
941.142200 -0.000282
941.383300 -0.000442
941.624400 -0.000192
941.865500 -0.001237
942.106600 -0.000615
942.347700 0.000715
942.588900 -0.001280
942.830000 -0.000018
943.071100 -0.000141
943.312300 -0.001845
943.553400 -0.000446
943.794600 -0.000608
944.035700 -0.000302
944.276900 -0.000387
944.518100 -0.000601
944.759300 -0.001222
945.000500 0.000823
945.241700 -0.001957
945.482900 -0.000492
945.724100 -0.002123
945.965300 -0.000479
946.206600 -0.000471
946.447800 0.000183
946.689100 -0.001300
946.930300 0.001572
947.171600 0.000106
947.412800 -0.000883
947.654100 -0.001505
947.895400 -0.000653
948.136700 0.000504
948.378000 0.000070
948.619300 -0.000879
948.860600 -0.001261
949.101900 -0.000921
949.343300 -0.000528
949.584600 -0.000537
949.825900 -0.000749
950.067300 -0.001796
950.308600 -0.000014
950.550000 -0.000671
950.791400 -0.000102
951.032700 -0.000489
951.274100 0.000059
951.515500 -0.001431
951.756900 -0.000217
951.998300 -0.000559
952.239800 -0.000765
952.481200 0.000444
952.722600 0.000021
952.964000 -0.001575
953.205500 -0.000570
953.446900 0.000117
953.688400 -0.000393
953.929900 -0.000017
954.171300 0.000599
954.412800 -0.000301
954.654300 -0.000886
954.895800 -0.000274
955.137300 0.000683
955.378800 0.000911
955.620300 0.000109
955.861800 -0.000920
956.103400 -0.001093
956.344900 -0.000765
956.586500 -0.000260
956.828000 -0.001199
957.069600 -0.000418
957.311100 0.000581
957.552700 -0.001346
957.794300 0.000060
958.035900 0.000008
958.277500 -0.000161
958.519100 -0.000453
958.760700 -0.000086
959.002300 0.000327
959.243900 -0.000003
959.485600 0.000244
959.727200 -0.001069
959.968800 0.000546
960.210500 -0.000165
960.452200 -0.000274
960.693800 0.000432
960.935500 0.000618
961.177200 -0.000879
961.418900 0.000377
961.660600 -0.000065
961.902300 -0.001647
962.144000 -0.000221
962.385700 -0.001009
962.627400 0.000697
962.869200 0.000049
963.110900 -0.000499
963.352700 -0.000049
963.594400 -0.000942
963.836200 0.000805
964.077900 -0.001428
964.319700 -0.000600
964.561500 -0.001400
964.803300 -0.000594
965.045100 0.000401
965.286900 0.000728
965.528700 -0.001315
965.770500 -0.000683
966.012300 -0.000549
966.254200 0.000545
966.496000 0.000471
966.737900 -0.000572
966.979700 -0.000387
967.221600 0.000700
967.463400 -0.000699
967.705300 -0.000580
967.947200 0.000335
968.189100 0.000693
968.431000 -0.000091
968.672900 -0.001615
968.914800 -0.000696
969.156700 -0.000264
969.398700 0.000637
969.640600 0.000200
969.882500 -0.000130
970.124500 0.000324
970.366400 -0.000364
970.608400 -0.000714
970.850400 0.000082
971.092300 -0.000070
971.334300 -0.000482
971.576300 0.000162
971.818300 -0.000639
972.060300 -0.001272
972.302300 -0.001051
972.544300 -0.000278
972.786400 -0.000825
973.028400 -0.000910
973.270400 -0.000762
973.512500 -0.000945
973.754500 -0.001044
973.996600 -0.001104
974.238700 -0.000804
974.480700 0.000288
974.722800 -0.000425
974.964900 -0.000108
975.207000 -0.000914
975.449100 0.000496
975.691200 0.000142
975.933300 -0.000464
976.175500 0.001139
976.417600 -0.000221
976.659700 -0.000630
976.901900 -0.001146
977.144000 -0.001456
977.386200 0.000221
977.628300 -0.001440
977.870500 -0.000706
978.112700 -0.000173
978.354900 -0.000650
978.597100 0.000795
978.839300 -0.001177
979.081500 -0.000323
979.323700 0.000524
979.565900 0.000612
979.808200 -0.001972
980.050400 -0.000900
980.292600 -0.001009
980.534900 -0.000063
980.777100 -0.000299
981.019400 0.000429
981.261700 -0.001135
981.504000 -0.001695
981.746200 0.000532
981.988500 -0.001456
982.230800 -0.000115
982.473100 -0.001217
982.715500 -0.001325
982.957800 0.000506
983.200100 -0.000841
983.442400 0.000151
983.684800 -0.000676
983.927100 -0.000126
984.169500 -0.000633
984.411800 -0.000064
984.654200 0.000117
984.896600 -0.000805
985.139000 0.001021
985.381400 -0.001150
985.623800 -0.001318
985.866200 -0.000674
986.108600 0.001513
986.351000 -0.000678
986.593400 -0.001052
986.835800 -0.000556
987.078300 -0.000808
987.320700 -0.000116
987.563200 0.000141
987.805600 0.000588
988.048100 -0.001296
988.290600 0.000216
988.533100 0.000454
988.775600 -0.001164
989.018000 -0.000695
989.260500 -0.001153
989.503100 0.000122
989.745600 0.001017
989.988100 0.000710
990.230600 -0.000812
990.473200 -0.000493
990.715700 -0.001019
990.958200 -0.000077
991.200800 -0.000088
991.443400 0.001076
991.685900 -0.001171
991.928500 -0.000049
992.171100 0.000028
992.413700 -0.000833
992.656300 -0.000899
992.898900 -0.000528
993.141500 -0.001124
993.384100 -0.001603
993.626700 -0.001125
993.869400 0.000208
994.112000 0.000095
994.354700 -0.000714
994.597300 -0.000541
994.840000 -0.000483
995.082600 -0.000770
995.325300 -0.000049
995.568000 -0.000764
995.810700 -0.000215
996.053400 0.000014
996.296100 -0.000134
996.538800 -0.000946
996.781500 -0.000938
997.024200 0.000074
997.267000 -0.000390
997.509700 -0.001414
997.752400 -0.000457
997.995200 -0.001213
998.237900 -0.000549
998.480700 -0.000302
998.723500 0.000038
998.966200 -0.001020
999.209000 0.000267
999.451800 -0.000302
999.694600 -0.000959
999.937400 0.001216
1000.180200 -0.000830
1000.423000 -0.001808
1000.665900 -0.000334
1000.908700 -0.000548
1001.151500 -0.000038
1001.394400 -0.000468
1001.637200 -0.001848
1001.880100 0.000166
1002.123000 -0.000252
1002.365800 0.000520
1002.608700 0.000247
1002.851600 -0.001111
1003.094500 -0.000865
1003.337400 0.000577
1003.580300 0.000939
1003.823200 -0.000552
1004.066100 -0.000387
1004.309100 -0.000056
1004.552000 -0.001108
1004.794900 -0.000447
1005.037900 -0.001632
1005.280800 -0.000130
1005.523800 -0.001466
1005.766700 -0.000569
1006.009700 -0.000063
1006.252700 0.000661
1006.495700 -0.001125
1006.738700 0.000929
1006.981700 -0.000661
1007.224700 -0.001347
1007.467700 -0.000696
1007.710700 0.000235
1007.953800 -0.000201
1008.196800 -0.000351
1008.439800 -0.001093
1008.682900 -0.000446
1008.925900 -0.000362
1009.169000 -0.000031
1009.412100 0.000787
1009.655100 0.001160
1009.898200 -0.001702
1010.141300 -0.000014
1010.384400 -0.000583
1010.627500 -0.000380
1010.870600 -0.001249
1011.113700 -0.001034
1011.356800 -0.000102
1011.600000 -0.000246
1011.843100 -0.000348
1012.086300 -0.000415
1012.329400 -0.000319
1012.572600 0.000397
1012.815700 0.000486
1013.058900 0.000608
1013.302100 -0.001428
1013.545200 -0.000179
1013.788400 -0.001040
1014.031600 0.000880
1014.274800 -0.001389
1014.518000 -0.001104
1014.761300 -0.001635
1015.004500 0.000309
1015.247700 -0.001115
1015.490900 0.000471
1015.734200 -0.001107
1015.977400 0.000066
1016.220700 0.000401
1016.464000 -0.000653
1016.707200 0.000102
1016.950500 -0.000524
1017.193800 -0.000383
1017.437100 0.000222
1017.680400 -0.000647
1017.923700 -0.001083
1018.167000 -0.001483
1018.410300 -0.000683
1018.653600 -0.000022
1018.896900 -0.001013
1019.140300 -0.000597
1019.383600 0.000254
1019.627000 -0.000334
1019.870300 0.000351
1020.113700 -0.000904
1020.357100 -0.000253
1020.600400 -0.000520
1020.843800 -0.001312
1021.087200 -0.002060
1021.330600 0.000204
1021.574000 -0.000702
1021.817400 -0.000359
1022.060800 0.001460
1022.304200 0.000784
1022.547700 -0.001125
1022.791100 -0.000626
1023.034500 -0.000745
