# Wavelength (nm)	Intensity (a.u.)
197.7802	0.000665
197.9842	0.001066
198.1882	0.001635
198.3922	-0.000011
198.5963	0.001572
198.8003	0.000897
199.0044	0.000158
199.2085	0.000327
199.4126	0.000454
199.6168	-0.000327
199.8209	0.000116
200.0251	-0.000074
200.2292	-0.000686
200.4334	0.001593
200.6376	0.000833
200.8418	-0.000011
201.0461	0.000707
201.2503	0.001150
201.4546	0.001973
201.6589	0.000939
201.8631	0.000243
202.0674	0.000032
202.2718	0.001276
202.4761	0.000517
202.6805	0.001150
202.8848	0.000454
203.0892	0.000981
203.2936	0.000158
203.4980	0.001509
203.7024	-0.001087
203.9069	-0.000095
204.1113	-0.000095
204.3158	0.000538
204.5203	0.000580
204.7248	-0.000559
204.9293	0.001023
205.1338	0.001255
205.3384	0.001108
205.5430	0.000897
205.7475	-0.000011
205.9521	-0.000074
206.1567	0.000433
206.3614	-0.000876
206.5660	0.000179
206.7706	0.000285
206.9753	0.000264
207.1800	-0.000158
207.3847	0.000981
207.5894	-0.000411
207.7941	-0.000411
207.9989	0.000791
208.2036	0.001340
208.4084	0.000559
208.6132	0.000812
208.8180	-0.000264
209.0228	-0.001403
209.2276	0.000116
209.4325	0.000074
209.6373	0.000559
209.8422	0.000074
210.0471	0.000369
210.2520	-0.000538
210.4569	0.000622
210.6618	0.001319
210.8668	0.001530
211.0718	0.000749
211.2767	0.001150
211.4817	0.000243
211.6867	0.000116
211.8918	0.000454
212.0968	0.001551
212.3018	0.000981
212.5069	0.001720
212.7120	0.000601
212.9171	0.001129
213.1222	0.001361
213.3273	0.001762
213.5325	-0.000622
213.7376	0.001677
213.9428	-0.000749
214.1480	-0.000433
214.3532	-0.000601
214.5584	0.000475
214.7636	0.002099
214.9689	0.000770
215.1741	0.000728
215.3794	-0.000665
215.5847	0.001192
215.7900	0.000559
215.9953	0.000833
216.2007	0.000348
216.4060	-0.000622
216.6114	-0.000074
216.8168	-0.000032
217.0222	0.000116
217.2276	0.001635
217.4330	-0.000095
217.6384	0.001783
217.8439	-0.000285
218.0494	-0.000580
218.2548	0.001973
218.4603	0.001445
218.6659	0.001192
218.8714	0.002648
219.0769	0.001572
219.2825	0.001846
219.4881	0.000644
219.6936	0.000327
219.8992	0.001234
220.1049	0.001572
220.3105	-0.000369
220.5161	-0.000770
220.7218	0.000454
220.9275	0.001234
221.1332	0.001129
221.3389	0.000622
221.5446	0.000348
221.7503	0.002416
221.9561	0.000496
222.1618	0.000559
222.3676	0.000306
222.5734	0.000454
222.7792	-0.001298
222.9850	-0.000200
223.1909	0.000918
223.3967	0.000179
223.6026	0.000306
223.8085	-0.000200
224.0144	0.001382
224.2203	-0.000411
224.4262	0.000053
224.6322	-0.000264
224.8381	0.000327
225.0441	-0.000306
225.2501	0.000559
225.4561	-0.000179
225.6621	0.000243
225.8681	-0.000053
226.0742	0.000369
226.2802	-0.000116
226.4863	0.000348
226.6924	-0.000390
226.8985	0.001066
227.1046	-0.000348
227.3107	0.001741
227.5169	0.000306
227.7230	-0.000222
227.9292	0.001066
228.1354	0.001424
228.3416	0.001108
228.5478	0.000622
228.7541	0.000897
228.9603	-0.000200
229.1666	-0.000306
229.3729	-0.000032
229.5791	-0.000369
229.7855	-0.000411
229.9918	0.000285
230.1981	0.000517
230.4045	-0.000580
230.6108	0.001741
230.8172	-0.000876
231.0236	0.001023
231.2300	0.000559
231.4364	0.000411
231.6429	0.000137
231.8493	-0.000158
232.0558	-0.000158
232.2623	0.001361
232.4688	-0.000897
232.6753	0.000601
232.8818	0.000644
233.0884	0.000876
233.2949	-0.000179
233.5015	-0.000496
233.7081	-0.000348
233.9147	-0.000179
234.1213	-0.000390
234.3279	0.000686
234.5346	-0.000728
234.7413	0.000390
234.9479	0.000433
235.1546	0.001614
235.3613	0.001720
235.5680	0.000243
235.7748	-0.000580
235.9815	0.000179
236.1883	-0.000200
236.3951	0.000369
236.6018	0.000032
236.8087	0.000686
237.0155	0.001087
237.2223	-0.000137
237.4292	0.002099
237.6360	0.000580
237.8429	-0.001044
238.0498	0.000770
238.2567	-0.000496
238.4636	0.001298
238.6706	0.000517
238.8775	0.001234
239.0845	0.000137
239.2915	0.001108
239.4985	-0.000116
239.7055	0.000728
239.9125	-0.000285
240.1195	-0.000053
240.3266	-0.000897
240.5337	0.000749
240.7407	0.000158
240.9478	0.001234
241.1549	0.000665
241.3621	0.000644
241.5692	0.000306
241.7764	0.000939
241.9835	0.000538
242.1907	0.000369
242.3979	-0.000433
242.6051	0.000960
242.8124	-0.000411
243.0196	0.001741
243.2269	0.000749
243.4341	0.000812
243.6414	0.000243
243.8487	0.001509
244.0560	0.000644
244.2634	0.000369
244.4707	0.001614
244.6781	0.000833
244.8854	-0.000264
245.0928	-0.000622
245.3002	-0.000074
245.5076	0.001783
245.7151	0.001002
245.9225	0.000222
246.1300	-0.000833
246.3375	0.001192
246.5449	0.000833
246.7524	0.001403
246.9600	0.001698
247.1675	0.000665
247.3750	-0.000327
247.5826	0.000770
247.7902	0.000327
247.9978	0.000327
248.2054	0.002353
248.4130	0.000095
248.6206	-0.000728
248.8283	0.000707
249.0359	0.001171
249.2436	0.000686
249.4513	0.002753
249.6590	0.001551
249.8667	0.001298
250.0745	0.001403
250.2822	0.001087
250.4900	0.000411
250.6978	-0.000011
250.9056	-0.001066
251.1134	0.000960
251.3212	0.000390
251.5290	0.000897
251.7369	0.001382
251.9447	0.001530
252.1526	0.001424
252.3605	0.000179
252.5684	0.001276
252.7763	0.000454
252.9843	0.001677
253.1922	0.000306
253.4002	-0.000306
253.6082	0.001213
253.8162	0.001762
254.0242	0.000496
254.2322	0.000306
254.4402	-0.000433
254.6483	0.001572
254.8564	0.000939
255.0644	-0.000264
255.2725	0.000222
255.4806	0.001234
255.6888	-0.000390
255.8969	0.000306
256.1051	0.001909
256.3132	-0.000411
256.5214	0.000390
256.7296	0.000833
256.9378	0.001720
257.1460	-0.000011
257.3543	-0.001551
257.5625	0.001424
257.7708	-0.001213
257.9791	0.001150
258.1874	0.000433
258.3957	0.001087
258.6040	0.000306
258.8124	0.001150
259.0207	0.000897
259.2291	0.000918
259.4375	0.000243
259.6459	0.002416
259.8543	0.000348
260.0627	0.000580
260.2711	-0.000116
260.4796	0.000749
260.6881	0.000517
260.8965	0.002163
261.1050	0.000855
261.3135	0.000222
261.5221	0.001762
261.7306	0.000116
261.9392	-0.000390
262.1477	-0.000074
262.3563	0.000158
262.5649	0.000517
262.7735	0.000411
262.9822	0.000580
263.1908	-0.000222
263.3995	0.001382
263.6081	0.000876
263.8168	0.001994
264.0255	-0.000264
264.2342	0.000095
264.4429	0.001298
264.6517	0.001023
264.8604	0.000496
265.0692	0.000622
265.2780	0.001002
265.4868	0.000348
265.6956	0.000306
265.9044	0.000222
266.1133	-0.000137
266.3221	0.000454
266.5310	-0.000095
266.7399	0.000095
266.9488	0.000791
267.1577	0.000897
267.3666	0.000222
267.5755	0.000285
267.7845	-0.000116
267.9935	0.001846
268.2024	0.001635
268.4114	0.001044
268.6205	0.000454
268.8295	0.000411
269.0385	-0.000011
269.2476	0.001509
269.4566	0.000095
269.6657	0.000411
269.8748	0.000981
270.0839	0.001361
270.2931	0.000011
270.5022	0.001445
270.7114	0.000475
270.9205	-0.000011
271.1297	0.000496
271.3389	0.000475
271.5481	0.000264
271.7573	0.000855
271.9666	-0.000264
272.1758	0.000876
272.3851	0.000348
272.5944	0.000728
272.8037	0.001952
273.0130	0.000454
273.2223	0.000243
273.4316	0.001213
273.6410	0.001952
273.8504	0.000559
274.0597	0.001382
274.2691	0.001677
274.4785	0.000939
274.6880	0.001129
274.8974	0.000243
275.1069	0.000749
275.3163	0.000833
275.5258	0.001698
275.7353	-0.000200
275.9448	0.000496
276.1543	0.000306
276.3639	0.001023
276.5734	0.000179
276.7830	0.001403
276.9926	0.000622
277.2022	0.000306
277.4118	0.000348
277.6214	-0.001087
277.8310	0.000559
278.0407	0.001551
278.2503	0.000222
278.4600	0.000517
278.6697	0.001023
278.8794	0.000243
279.0891	0.000179
279.2989	0.000791
279.5086	0.001255
279.7184	0.001994
279.9281	-0.000960
280.1379	0.002163
280.3477	-0.000137
280.5576	-0.000158
280.7674	0.001255
280.9772	0.000243
281.1871	-0.000644
281.3970	0.002015
281.6069	-0.001087
281.8168	0.002057
282.0267	-0.000855
282.2366	0.000348
282.4466	0.000728
282.6565	-0.000665
282.8665	-0.000200
283.0765	-0.000116
283.2865	0.000411
283.4965	0.001319
283.7065	0.000327
283.9166	0.000517
284.1266	0.000433
284.3367	0.000897
284.5468	-0.000074
284.7569	-0.000053
284.9670	0.000179
285.1771	0.001361
285.3873	-0.000285
285.5974	0.001698
285.8076	-0.000200
286.0178	0.002500
286.2280	0.000095
286.4382	0.002268
286.6484	0.001340
286.8587	0.001762
287.0689	0.000960
287.2792	0.001656
287.4895	0.001023
287.6998	0.001403
287.9101	0.000454
288.1204	0.001487
288.3308	-0.000179
288.5411	0.002859
288.7515	0.000538
288.9619	0.000348
289.1723	0.000158
289.3827	0.000116
289.5931	0.001002
289.8035	-0.000200
290.0140	0.000770
290.2245	0.000580
290.4349	-0.000538
290.6454	-0.000116
290.8559	0.000158
291.0665	0.001825
291.2770	-0.000011
291.4875	0.000179
291.6981	-0.000179
291.9087	0.000369
292.1193	0.000791
292.3299	0.000390
292.5405	0.000116
292.7511	0.000644
292.9618	-0.000074
293.1724	0.001677
293.3831	0.000348
293.5938	0.000897
293.8045	-0.000053
294.0152	0.001192
294.2260	0.000538
294.4367	0.000074
294.6475	0.000285
294.8582	0.000053
295.0690	0.000222
295.2798	0.000580
295.4906	-0.000222
295.7015	0.000200
295.9123	0.000707
296.1232	0.001720
296.3340	0.001276
296.5449	0.002374
296.7558	0.001466
296.9667	0.000390
297.1777	0.000665
297.3886	0.000243
297.5995	-0.000053
297.8105	0.000812
298.0215	0.001952
298.2325	0.001614
298.4435	-0.000433
298.6545	0.001361
298.8656	0.001087
299.0766	-0.000390
299.2877	-0.000095
299.4988	0.001846
299.7099	0.000053
299.9210	0.000580
300.1321	0.000137
300.3432	0.002184
300.5544	0.000222
300.7655	0.001023
300.9767	-0.000032
301.1879	0.001403
301.3991	0.000053
301.6103	0.000833
301.8215	0.001614
302.0328	0.000791
302.2441	0.001530
302.4553	0.001762
302.6666	0.000644
302.8779	0.001994
303.0892	-0.000644
303.3006	0.001509
303.5119	0.000137
303.7233	0.000243
303.9346	-0.000095
304.1460	-0.000454
304.3574	0.000559
304.5688	-0.000264
304.7803	0.001867
304.9917	0.000644
305.2031	0.001234
305.4146	0.001066
305.6261	-0.000264
305.8376	0.001698
306.0491	0.000411
306.2606	0.000665
306.4722	-0.000327
306.6837	0.000327
306.8953	-0.000855
307.1069	0.001741
307.3184	0.000454
307.5301	0.001720
307.7417	0.000876
307.9533	0.001931
308.1650	-0.000665
308.3766	0.001909
308.5883	0.001361
308.8000	-0.000158
309.0117	0.001213
309.2234	0.000855
309.4351	0.000011
309.6469	0.000812
309.8586	0.000179
310.0704	-0.000053
310.2822	0.000158
310.4940	0.001066
310.7058	0.001002
310.9176	0.000665
311.1295	0.000707
311.3413	0.002521
311.5532	0.000791
311.7651	0.001087
311.9770	0.001530
312.1889	0.000981
312.4008	0.001403
312.6127	0.000981
312.8247	0.001509
313.0366	0.001255
313.2486	0.002205
313.4606	0.000686
313.6726	0.001487
313.8846	0.000433
314.0967	0.001066
314.3087	0.003049
314.5208	0.001931
314.7328	0.002247
314.9449	0.000918
315.1570	0.002057
315.3692	0.000981
315.5813	0.001087
315.7934	0.001023
316.0056	0.002289
316.2177	0.001593
316.4299	0.002838
316.6421	0.001720
316.8543	0.001698
317.0666	0.001973
317.2788	0.003365
317.4911	0.001361
317.7033	0.001783
317.9156	0.001572
318.1279	0.003513
318.3402	0.000222
318.5525	0.001087
318.7649	0.001382
318.9772	0.004104
319.1896	0.001720
319.4019	0.002964
319.6143	0.001720
319.8267	0.001276
320.0392	0.002099
320.2516	0.000960
320.4640	0.001129
320.6765	0.001213
320.8890	0.000960
321.1014	0.002416
321.3139	0.002205
321.5265	0.002416
321.7390	0.001846
321.9515	0.002078
322.1641	0.000981
322.3766	0.002479
322.5892	0.002395
322.8018	0.000939
323.0144	0.002711
323.2270	0.002437
323.4397	0.002015
323.6523	0.002753
323.8650	0.002986
324.0777	0.003956
324.2904	0.002458
324.5031	0.001931
324.7158	0.002015
324.9285	0.002901
325.1412	0.001698
325.3540	0.002732
325.5668	0.002606
325.7796	0.003218
325.9924	0.001466
326.2052	0.002036
326.4180	0.002838
326.6308	0.003049
326.8437	0.004294
327.0566	0.002606
327.2694	0.002120
327.4823	0.003956
327.6952	0.001656
327.9082	0.001804
328.1211	0.002964
328.3340	0.003935
328.5470	0.004631
328.7600	0.003302
328.9730	0.004863
329.1860	0.002669
329.3990	0.002922
329.6120	0.004462
329.8251	0.003703
330.0381	0.002669
330.2512	0.003302
330.4643	0.005306
330.6774	0.003154
330.8905	0.005918
331.1036	0.004040
331.3167	0.003872
331.5299	0.004568
331.7431	0.004146
331.9562	0.003682
332.1694	0.002753
332.3826	0.002521
332.5959	0.004927
332.8091	0.004019
333.0223	0.003429
333.2356	0.004336
333.4489	0.004399
333.6622	0.004125
333.8755	0.004484
334.0888	0.002880
334.3021	0.004251
334.5154	0.004294
334.7288	0.004167
334.9422	0.003787
335.1555	0.003091
335.3689	0.005138
335.5823	0.004568
335.7958	0.003977
336.0092	0.005306
336.2227	0.004399
336.4361	0.004884
336.6496	0.006171
336.8631	0.004441
337.0766	0.005285
337.2901	0.005095
337.5036	0.004230
337.7172	0.006467
337.9307	0.004378
338.1443	0.005517
338.3579	0.004526
338.5715	0.004251
338.7851	0.004019
338.9987	0.006425
339.2124	0.006235
339.4260	0.005665
339.6397	0.004273
339.8533	0.005349
340.0670	0.006235
340.2807	0.004948
340.4945	0.005539
340.7082	0.004695
340.9219	0.006150
341.1357	0.004927
341.3495	0.005918
341.5633	0.007226
341.7771	0.006783
341.9909	0.007269
342.2047	0.006066
342.4185	0.006931
342.6324	0.006593
342.8463	0.006615
343.0601	0.004209
343.2740	0.006572
343.4879	0.006889
343.7019	0.006045
343.9158	0.006003
344.1297	0.007163
344.3437	0.004927
344.5577	0.007100
344.7717	0.006340
344.9857	0.008893
345.1997	0.006720
345.4137	0.008492
345.6277	0.005539
345.8418	0.007944
346.0559	0.006572
346.2699	0.007691
346.4840	0.006699
346.6981	0.008091
346.9123	0.007986
347.1264	0.008049
347.3406	0.007395
347.5547	0.008197
347.7689	0.007670
347.9831	0.008113
348.1973	0.006910
348.4115	0.006741
348.6257	0.006382
348.8400	0.008028
349.0542	0.008345
349.2685	0.008957
349.4828	0.006593
349.6971	0.007648
349.9114	0.006952
350.1257	0.008450
350.3400	0.007248
350.5544	0.009801
350.7687	0.007691
350.9831	0.008851
351.1975	0.008049
351.4119	0.010455
351.6263	0.008513
351.8407	0.009168
352.0552	0.008281
352.2696	0.007712
352.4841	0.008619
352.6986	0.010286
352.9131	0.007480
353.1276	0.010265
353.3421	0.008661
353.5566	0.010813
353.7712	0.010328
353.9858	0.008703
354.2003	0.007986
354.4149	0.009273
354.6295	0.007205
354.8441	0.008957
355.0588	0.008619
355.2734	0.009125
355.4881	0.010265
355.7027	0.009041
355.9174	0.008640
356.1321	0.009864
356.3468	0.009210
356.5615	0.009674
356.7763	0.009611
356.9910	0.010539
357.2058	0.008598
357.4206	0.009484
357.6353	0.009737
357.8501	0.009990
358.0650	0.009252
358.2798	0.008492
358.4946	0.008935
358.7095	0.009526
358.9243	0.010286
359.1392	0.010940
359.3541	0.010159
359.5690	0.011088
359.7839	0.009315
359.9989	0.007880
360.2138	0.010412
360.4288	0.012332
360.6438	0.008767
360.8587	0.007838
361.0737	0.011172
361.2888	0.009906
361.5038	0.009948
361.7188	0.009843
361.9339	0.009801
362.1489	0.009062
362.3640	0.008703
362.5791	0.012797
362.7942	0.008577
363.0093	0.011805
363.2245	0.010919
363.4396	0.010433
363.6548	0.011467
363.8699	0.010940
364.0851	0.010729
364.3003	0.009674
364.5155	0.010222
364.7308	0.011024
364.9460	0.011910
365.1612	0.011573
365.3765	0.011742
365.5918	0.011045
365.8071	0.010138
366.0224	0.010349
366.2377	0.010877
366.4530	0.012037
366.6684	0.012375
366.8837	0.012775
367.0991	0.011362
367.3145	0.011657
367.5299	0.013535
367.7453	0.013303
367.9607	0.012417
368.1761	0.011488
368.3916	0.012586
368.6070	0.012754
368.8225	0.012586
369.0380	0.014991
369.2535	0.012269
369.4690	0.012881
369.6845	0.013767
369.9001	0.014020
370.1156	0.011214
370.3312	0.011974
370.5468	0.012607
370.7624	0.013071
370.9780	0.012628
371.1936	0.012733
371.4092	0.013387
371.6249	0.015244
371.8405	0.015603
372.0562	0.012944
372.2719	0.012206
372.4876	0.014738
372.7033	0.013725
372.9190	0.011889
373.1348	0.013915
373.3505	0.012417
373.5663	0.012522
373.7820	0.014548
373.9978	0.015075
374.2136	0.013746
374.4294	0.014695
374.6453	0.015392
374.8611	0.013978
375.0770	0.015624
375.2928	0.015750
375.5087	0.015750
375.7246	0.016004
375.9405	0.016236
376.1564	0.015814
376.3724	0.016826
376.5883	0.016109
376.8043	0.016721
377.0203	0.018029
377.2362	0.016616
377.4522	0.017544
377.6682	0.018915
377.8843	0.017818
378.1003	0.018325
378.3164	0.019696
378.5324	0.017649
378.7485	0.018894
378.9646	0.020835
379.1807	0.019295
379.3968	0.021004
379.6129	0.018536
379.8291	0.020139
380.0452	0.018346
380.2614	0.020603
380.4776	0.021152
380.6938	0.019569
380.9100	0.022101
381.1262	0.018936
381.3424	0.020160
381.5587	0.017755
381.7749	0.019422
381.9912	0.018261
382.2075	0.020308
382.4238	0.022122
382.6401	0.020540
382.8564	0.019527
383.0728	0.019485
383.2891	0.021532
383.5055	0.019696
383.7219	0.023051
383.9382	0.020814
384.1546	0.021173
384.3711	0.021046
384.5875	0.022101
384.8039	0.021595
385.0204	0.022291
385.2368	0.022165
385.4533	0.024127
385.6698	0.021299
385.8863	0.020941
386.1028	0.021721
386.3194	0.022755
386.5359	0.023620
386.7525	0.025329
386.9690	0.022987
387.1856	0.021890
387.4022	0.025456
387.6188	0.025266
387.8355	0.024485
388.0521	0.026152
388.2687	0.024802
388.4854	0.025561
388.7021	0.025646
388.9188	0.023177
389.1355	0.026448
389.3522	0.024274
389.5689	0.023726
389.7856	0.025013
390.0024	0.024127
390.2192	0.023009
390.4359	0.026131
390.6527	0.024296
390.8695	0.026743
391.0863	0.026026
391.3032	0.026469
391.5200	0.026490
391.7369	0.026427
391.9537	0.027840
392.1706	0.028347
392.3875	0.028853
392.6044	0.028705
392.8213	0.030288
393.0383	0.030119
393.2552	0.031596
393.4722	0.030963
393.6891	0.029676
393.9061	0.027566
394.1231	0.028558
394.3401	0.028473
394.5572	0.028853
394.7742	0.029739
394.9912	0.027925
395.2083	0.030372
395.4254	0.029591
395.6425	0.029549
395.8596	0.029739
396.0767	0.028452
396.2938	0.030013
396.5109	0.029613
396.7281	0.031786
396.9453	0.032714
397.1624	0.031300
397.3796	0.030267
397.5968	0.031132
397.8140	0.033516
398.0313	0.035309
398.2485	0.035288
398.4658	0.036596
398.6830	0.033347
398.9003	0.035647
399.1176	0.035457
399.3349	0.034507
399.5522	0.033727
399.7696	0.034022
399.9869	0.033980
400.2043	0.033853
400.4216	0.031322
400.6390	0.034233
400.8564	0.034022
401.0738	0.033790
401.2912	0.034571
401.5087	0.033600
401.7261	0.033832
401.9436	0.031343
402.1610	0.033706
402.3785	0.033642
402.5960	0.032904
402.8135	0.032883
403.0310	0.033579
403.2486	0.032904
403.4661	0.032587
403.6837	0.033621
403.9013	0.034149
404.1189	0.033896
404.3365	0.034064
404.5541	0.033558
404.7717	0.034486
404.9893	0.033980
405.2070	0.038073
405.4246	0.036470
405.6423	0.036217
405.8600	0.037082
406.0777	0.036723
406.2954	0.035731
406.5131	0.033685
406.7309	0.033621
406.9486	0.032630
407.1664	0.033748
407.3842	0.031322
407.6020	0.032144
407.8198	0.033410
408.0376	0.035246
408.2554	0.033474
408.4733	0.034360
408.6911	0.032630
408.9090	0.035014
409.1269	0.034465
409.3448	0.033706
409.5627	0.031216
409.7806	0.036048
409.9985	0.034571
410.2165	0.033706
410.4344	0.034297
410.6524	0.035183
410.8704	0.034191
411.0884	0.033052
411.3064	0.033875
411.5244	0.033537
411.7424	0.033009
411.9605	0.033199
412.1785	0.033516
412.3966	0.033706
412.6147	0.035963
412.8328	0.034845
413.0509	0.037082
413.2690	0.035605
413.4871	0.037039
413.7053	0.036364
413.9234	0.038137
414.1416	0.035710
414.3598	0.036997
414.5780	0.036027
414.7962	0.034887
415.0144	0.035499
415.2326	0.034887
415.4509	0.034402
415.6692	0.035984
415.8874	0.037187
416.1057	0.036723
416.3240	0.036174
416.5423	0.034740
416.7606	0.035837
416.9790	0.036027
417.1973	0.034170
417.4157	0.036638
417.6341	0.033431
417.8524	0.036575
418.0708	0.037482
418.2893	0.037757
418.5077	0.036491
418.7261	0.035415
418.9446	0.035014
419.1630	0.035246
419.3815	0.038284
419.6000	0.038959
419.8185	0.036681
420.0370	0.036217
420.2555	0.037229
420.4741	0.038833
420.6926	0.040563
420.9112	0.041618
421.1298	0.042314
421.3483	0.043200
421.5669	0.044319
421.7856	0.044551
422.0042	0.047315
422.2228	0.045268
422.4415	0.045521
422.6601	0.041449
422.8788	0.041787
423.0975	0.041618
423.3162	0.042251
423.5349	0.042145
423.7536	0.042019
423.9724	0.041618
424.1911	0.040753
424.4099	0.040858
424.6287	0.040436
424.8475	0.039571
425.0663	0.041808
425.2851	0.039065
425.5039	0.040732
425.7228	0.039381
425.9416	0.038664
426.1605	0.037271
426.3793	0.036828
426.5982	0.037799
426.8171	0.037293
427.0361	0.039276
427.2550	0.039677
427.4739	0.043728
427.6929	0.042673
427.9118	0.040394
428.1308	0.040858
428.3498	0.040922
428.5688	0.039234
428.7878	0.040057
429.0068	0.038812
429.2259	0.041533
429.4449	0.042124
429.6640	0.044023
429.8831	0.046703
430.1022	0.047125
430.3213	0.047990
430.5404	0.048306
430.7595	0.046555
430.9787	0.047948
431.1978	0.045690
431.4170	0.041365
431.6362	0.041555
431.8553	0.039761
432.0745	0.037778
432.2938	0.039276
432.5130	0.038770
432.7322	0.037039
432.9515	0.040626
433.1707	0.040394
433.3900	0.040922
433.6093	0.045205
433.8286	0.048159
434.0479	0.047716
434.2673	0.048159
434.4866	0.041808
434.7059	0.038643
434.9253	0.043432
435.1447	0.041766
435.3641	0.043306
435.5835	0.041301
435.8029	0.041934
436.0223	0.042673
436.2418	0.044255
436.4612	0.043116
436.6807	0.045226
436.9001	0.044572
437.1196	0.044234
437.3391	0.042441
437.5586	0.042082
437.7782	0.041618
437.9977	0.043158
438.2173	0.042251
438.4368	0.043327
438.6564	0.046808
438.8760	0.043728
439.0956	0.042610
439.3152	0.047083
439.5348	0.043770
439.7545	0.043179
439.9741	0.046006
440.1938	0.044867
440.4135	0.045479
440.6331	0.045226
440.8528	0.045795
441.0725	0.049804
441.2923	0.052421
441.5120	0.056999
441.7318	0.057189
441.9515	0.054995
442.1713	0.053750
442.3911	0.054446
442.6109	0.052758
442.8307	0.051788
443.0505	0.051767
443.2703	0.050775
443.4902	0.052399
443.7101	0.055860
443.9299	0.054151
444.1498	0.052758
444.3697	0.052378
444.5896	0.052167
444.8095	0.052146
445.0295	0.055206
445.2494	0.052041
445.4694	0.053138
445.6894	0.052041
445.9093	0.049762
446.1293	0.051788
446.3493	0.054488
446.5694	0.056872
446.7894	0.054024
447.0094	0.052864
447.2295	0.051471
447.4496	0.050838
447.6696	0.048770
447.8897	0.051281
448.1098	0.049762
448.3300	0.049699
448.5501	0.052969
448.7702	0.050205
448.9904	0.052568
449.2106	0.052674
449.4307	0.049931
449.6509	0.052315
449.8711	0.050775
450.0914	0.050733
450.3116	0.051724
450.5318	0.050923
450.7521	0.052294
450.9724	0.047568
451.1926	0.048749
451.4129	0.048327
451.6332	0.046914
451.8535	0.048981
452.0739	0.049804
452.2942	0.048412
452.5146	0.049087
452.7349	0.045943
452.9553	0.046745
453.1757	0.047315
453.3961	0.046745
453.6165	0.044973
453.8369	0.045732
454.0574	0.046745
454.2778	0.043686
454.4983	0.045331
454.7188	0.044741
454.9393	0.044909
455.1597	0.047146
455.3803	0.047948
455.6008	0.045985
455.8213	0.049551
456.0419	0.047420
456.2624	0.047357
456.4830	0.047694
456.7036	0.044213
456.9242	0.047040
457.1448	0.047420
457.3654	0.048538
457.5860	0.047990
457.8067	0.048665
458.0274	0.050606
458.2480	0.049868
458.4687	0.051809
458.6894	0.052188
458.9101	0.052484
459.1308	0.053665
459.3516	0.049087
459.5723	0.052336
459.7931	0.053328
460.0138	0.049889
460.2346	0.051049
460.4554	0.052294
460.6762	0.047969
460.8970	0.049403
461.1178	0.050395
461.3387	0.049045
461.5595	0.051366
461.7804	0.046893
462.0013	0.047779
462.2222	0.044635
462.4431	0.045289
462.6640	0.045753
462.8849	0.043137
463.1059	0.044276
463.3268	0.048876
463.5478	0.049509
463.7687	0.053011
463.9897	0.050479
464.2107	0.050606
464.4317	0.051830
464.6528	0.052547
464.8738	0.054847
465.0948	0.054741
465.3159	0.055269
465.5370	0.057906
465.7581	0.055965
465.9792	0.058877
466.2003	0.054130
466.4214	0.051155
466.6425	0.051598
466.8637	0.050690
467.0848	0.047969
467.3060	0.047061
467.5272	0.046893
467.7484	0.048032
467.9696	0.047842
468.1908	0.050796
468.4120	0.047737
468.6333	0.048454
468.8545	0.045606
469.0758	0.042504
469.2970	0.045205
469.5183	0.043306
469.7396	0.042736
469.9610	0.040647
470.1823	0.040120
470.4036	0.039972
470.6250	0.041871
470.8463	0.041998
471.0677	0.038432
471.2891	0.042673
471.5105	0.038115
471.7319	0.040542
471.9533	0.039930
472.1748	0.043306
472.3962	0.040500
472.6177	0.043432
472.8391	0.044698
473.0606	0.046914
473.2821	0.047694
473.5036	0.046808
473.7251	0.048306
473.9467	0.047526
474.1682	0.044129
474.3898	0.045711
474.6113	0.045711
474.8329	0.045669
475.0545	0.048137
475.2761	0.049804
475.4977	0.048665
475.7193	0.049129
475.9410	0.047146
476.1626	0.048496
476.3843	0.047863
476.6060	0.047631
476.8277	0.046872
477.0494	0.045479
477.2711	0.042947
477.4928	0.046302
477.7145	0.043918
477.9363	0.050332
478.1580	0.048792
478.3798	0.052252
478.6016	0.047737
478.8234	0.048180
479.0452	0.047589
479.2670	0.048918
479.4888	0.046787
479.7107	0.047104
479.9325	0.047294
480.1544	0.052948
480.3763	0.050733
480.5982	0.054193
480.8201	0.049171
481.0420	0.050479
481.2639	0.050923
481.4859	0.051492
481.7078	0.053813
481.9298	0.052505
482.1517	0.053602
482.3737	0.051703
482.5957	0.052674
482.8177	0.052779
483.0398	0.051155
483.2618	0.050901
483.4838	0.054172
483.7059	0.052273
483.9280	0.051577
484.1501	0.053750
484.3721	0.057759
484.5943	0.058729
484.8164	0.057780
485.0385	0.059615
485.2606	0.060502
485.4828	0.081495
485.7050	0.138674
485.9271	0.190240
486.1493	0.198616
486.3715	0.168360
486.5937	0.133821
486.8160	0.113840
487.0382	0.105527
487.2605	0.099598
487.4827	0.082128
487.7050	0.066536
487.9273	0.061071
488.1496	0.057906
488.3719	0.053982
488.5942	0.052547
488.8165	0.053560
489.0389	0.054024
489.2612	0.051366
489.4836	0.053243
489.7060	0.051323
489.9284	0.054615
490.1508	0.053180
490.3732	0.054214
490.5956	0.050353
490.8180	0.051556
491.0405	0.052632
491.2630	0.052843
491.4854	0.051893
491.7079	0.050585
491.9304	0.052125
492.1529	0.050184
492.3755	0.048792
492.5980	0.052421
492.8205	0.052547
493.0431	0.053560
493.2657	0.051366
493.4882	0.053011
493.7108	0.051408
493.9334	0.052589
494.1561	0.051788
494.3787	0.054530
494.6013	0.053961
494.8240	0.055058
495.0466	0.050353
495.2693	0.052020
495.4920	0.050733
495.7147	0.047821
495.9374	0.051323
496.1601	0.053940
496.3829	0.057674
496.6056	0.058392
496.8284	0.057252
497.0511	0.056155
497.2739	0.054024
497.4967	0.052210
497.7195	0.048391
497.9423	0.050226
498.1652	0.051492
498.3880	0.049699
498.6109	0.048897
498.8337	0.050522
499.0566	0.050944
499.2795	0.052843
499.5024	0.055438
499.7253	0.055459
499.9482	0.054256
500.1712	0.053349
500.3941	0.053876
500.6171	0.051281
500.8400	0.048644
501.0630	0.052315
501.2860	0.056261
501.5090	0.055037
501.7320	0.055163
501.9551	0.052547
502.1781	0.053602
502.4012	0.055881
502.6242	0.055543
502.8473	0.053518
503.0704	0.054784
503.2935	0.053750
503.5166	0.053687
503.7397	0.054889
503.9628	0.053518
504.1860	0.051745
504.4092	0.052716
504.6323	0.050079
504.8555	0.053117
505.0787	0.050923
505.3019	0.052885
505.5251	0.054087
505.7483	0.052167
505.9716	0.050311
506.1948	0.052020
506.4181	0.051872
506.6414	0.052526
506.8647	0.051956
507.0880	0.047336
507.3113	0.046998
507.5346	0.046217
507.7579	0.050374
507.9813	0.049340
508.2046	0.048665
508.4280	0.049446
508.6514	0.047779
508.8748	0.050290
509.0982	0.049762
509.3216	0.047526
509.5450	0.048348
509.7685	0.049720
509.9919	0.048581
510.2154	0.048306
510.4388	0.048222
510.6623	0.046386
510.8858	0.048581
511.1093	0.047842
511.3329	0.045901
511.5564	0.048813
511.7799	0.048728
512.0035	0.048897
512.2270	0.046661
512.4506	0.044403
512.6742	0.043348
512.8978	0.045521
513.1214	0.047061
513.3451	0.046597
513.5687	0.044213
513.7923	0.042335
514.0160	0.043918
514.2397	0.047716
514.4634	0.043538
514.6871	0.043158
514.9108	0.042968
515.1345	0.042356
515.3582	0.042399
515.5819	0.040901
515.8057	0.043622
516.0295	0.043622
516.2532	0.042947
516.4770	0.043981
516.7008	0.043918
516.9246	0.041491
517.1485	0.041702
517.3723	0.041955
517.5961	0.040120
517.8200	0.042230
518.0439	0.041344
518.2677	0.040901
518.4916	0.039761
518.7155	0.038727
518.9395	0.041597
519.1634	0.040246
519.3873	0.043475
519.6113	0.041322
519.8352	0.042040
520.0592	0.040521
520.2832	0.040584
520.5072	0.037293
520.7312	0.037356
520.9552	0.039381
521.1792	0.039466
521.4033	0.040331
521.6273	0.035942
521.8514	0.036934
522.0755	0.037926
522.2996	0.035373
522.5237	0.035351
522.7478	0.036934
522.9719	0.037883
523.1960	0.037926
523.4202	0.034824
523.6443	0.037356
523.8685	0.038643
524.0927	0.038559
524.3169	0.038348
524.5411	0.037525
524.7653	0.035668
524.9895	0.037588
525.2138	0.036913
525.4380	0.038622
525.6623	0.037968
525.8865	0.037504
526.1108	0.035984
526.3351	0.037799
526.5594	0.034718
526.7837	0.037504
527.0081	0.038179
527.2324	0.036681
527.4568	0.037018
527.6811	0.037018
527.9055	0.033938
528.1299	0.037103
528.3543	0.036217
528.5787	0.038179
528.8031	0.041133
529.0276	0.040626
529.2520	0.041555
529.4765	0.040985
529.7009	0.037904
529.9254	0.039803
530.1499	0.038706
530.3744	0.040289
530.5989	0.038115
530.8234	0.039044
531.0480	0.037229
531.2725	0.038305
531.4971	0.037609
531.7217	0.036533
531.9462	0.038073
532.1708	0.036955
532.3954	0.037229
532.6200	0.037293
532.8447	0.039972
533.0693	0.040837
533.2940	0.042335
533.5186	0.042441
533.7433	0.044108
533.9680	0.046175
534.1927	0.045331
534.4174	0.046196
534.6421	0.046576
534.8668	0.045247
535.0916	0.045437
535.3163	0.047251
535.5411	0.044129
535.7659	0.042377
535.9907	0.045078
536.2155	0.041850
536.4403	0.042715
536.6651	0.043538
536.8899	0.038833
537.1148	0.038115
537.3396	0.038453
537.5645	0.042778
537.7894	0.042061
538.0143	0.043686
538.2392	0.044023
538.4641	0.046492
538.6890	0.044867
538.9139	0.045901
539.1389	0.044255
539.3638	0.047188
539.5888	0.046407
539.8138	0.048348
540.0388	0.046639
540.2638	0.044340
540.4888	0.046028
540.7138	0.044234
540.9389	0.044108
541.1639	0.046154
541.3890	0.045120
541.6140	0.045226
541.8391	0.046239
542.0642	0.045563
542.2893	0.048074
542.5144	0.048306
542.7396	0.048032
542.9647	0.048032
543.1899	0.047758
543.4150	0.048602
543.6402	0.049425
543.8654	0.051872
544.0906	0.049910
544.3158	0.050163
544.5410	0.050079
544.7662	0.051851
544.9915	0.050290
545.2167	0.053412
545.4420	0.051155
545.6673	0.048137
545.8926	0.045838
546.1179	0.047716
546.3432	0.047378
546.5685	0.046534
546.7938	0.047610
547.0192	0.046576
547.2445	0.046513
547.4699	0.049551
547.6953	0.049847
547.9206	0.054256
548.1460	0.059067
548.3715	0.057168
548.5969	0.057442
548.8223	0.052948
549.0478	0.054109
549.2732	0.049910
549.4987	0.046471
549.7242	0.050015
549.9496	0.048813
550.1751	0.048011
550.4007	0.044804
550.6262	0.047125
550.8517	0.045374
551.0773	0.045964
551.3028	0.043264
551.5284	0.041639
551.7540	0.046893
551.9796	0.051218
552.2052	0.051260
552.4308	0.053328
552.6564	0.051767
552.8820	0.053876
553.1077	0.051598
553.3333	0.052526
553.5590	0.050479
553.7847	0.054362
554.0104	0.055607
554.2361	0.051914
554.4618	0.051893
554.6875	0.047779
554.9132	0.046070
555.1390	0.049973
555.3648	0.051450
555.5905	0.053138
555.8163	0.051661
556.0421	0.056007
556.2679	0.052273
556.4937	0.056303
556.7195	0.050944
556.9454	0.051028
557.1712	0.048559
557.3971	0.051513
557.6230	0.050606
557.8488	0.049340
558.0747	0.050522
558.3006	0.049699
558.5266	0.046977
558.7525	0.046935
558.9784	0.046217
559.2044	0.046049
559.4303	0.046133
559.6563	0.047357
559.8823	0.048011
560.1083	0.050015
560.3343	0.053560
560.5603	0.054615
560.7863	0.058708
561.0124	0.058729
561.2384	0.059088
561.4645	0.058708
561.6905	0.058793
561.9166	0.060206
562.1427	0.054425
562.3688	0.056978
562.5949	0.056050
562.8211	0.056957
563.0472	0.057041
563.2733	0.057147
563.4995	0.055501
563.7257	0.058560
563.9519	0.057316
564.1781	0.059531
564.4043	0.060438
564.6305	0.063160
564.8567	0.061599
565.0829	0.061957
565.3092	0.062084
565.5355	0.062295
565.7617	0.059615
565.9880	0.062042
566.2143	0.058624
566.4406	0.061957
566.6669	0.061831
566.8932	0.064996
567.1196	0.065713
567.3459	0.073456
567.5723	0.078014
567.7987	0.077085
568.0250	0.079048
568.2514	0.082803
568.4778	0.086643
568.7043	0.091834
568.9307	0.095589
569.1571	0.103164
569.3836	0.107890
569.6100	0.121900
569.8365	0.130550
570.0630	0.138505
570.2895	0.144623
570.5160	0.146100
570.7425	0.141712
570.9690	0.153358
571.1956	0.163950
571.4221	0.168866
571.6487	0.171272
571.8752	0.177538
572.1018	0.186906
572.3284	0.185429
572.5550	0.172537
572.7816	0.163233
573.0082	0.160300
573.2349	0.165617
573.4615	0.183762
573.6882	0.195050
573.9149	0.201317
574.1415	0.206676
574.3682	0.218892
574.5949	0.222373
574.8216	0.223260
575.0484	0.225897
575.2751	0.228091
575.5018	0.225306
575.7286	0.217267
575.9554	0.200346
576.1821	0.207604
576.4089	0.210621
576.6357	0.217879
576.8626	0.226593
577.0894	0.232944
577.3162	0.232290
577.5431	0.243409
577.7699	0.269150
577.9968	0.308964
578.2237	0.297803
578.4505	0.277906
578.6774	0.267167
578.9044	0.248389
579.1313	0.237037
579.3582	0.232142
579.5851	0.242418
579.8121	0.248663
580.0391	0.250351
580.2660	0.250456
580.4930	0.249254
580.7200	0.239569
580.9470	0.242671
581.1741	0.287211
581.4011	0.344495
581.6281	0.379456
581.8552	0.382768
582.0822	0.374603
582.3093	0.360024
582.5364	0.336794
582.7635	0.303141
582.9906	0.272737
583.2177	0.253241
583.4449	0.235898
583.6720	0.224694
583.8991	0.215284
584.1263	0.221065
584.3535	0.222057
584.5807	0.225095
584.8079	0.245751
585.0351	0.264972
585.2623	0.272969
585.4895	0.275290
585.7167	0.268264
585.9440	0.259128
586.1713	0.241426
586.3985	0.231446
586.6258	0.225517
586.8531	0.223703
587.0804	0.239105
587.3077	0.247439
587.5350	0.256111
587.7624	0.252440
587.9897	0.240772
588.2171	0.229421
588.4445	0.227163
588.6718	0.216677
588.8992	0.209904
589.1266	0.192877
589.3540	0.186632
589.5815	0.180555
589.8089	0.181378
590.0363	0.179669
590.2638	0.171082
590.4913	0.164900
590.7187	0.156481
590.9462	0.151059
591.1737	0.145109
591.4012	0.144497
591.6288	0.146607
591.8563	0.143695
592.0838	0.145910
592.3114	0.144117
592.5389	0.166820
592.7665	0.197877
592.9941	0.216634
593.2217	0.225834
593.4493	0.222669
593.6769	0.216065
593.9046	0.209144
594.1322	0.196569
594.3598	0.187476
594.5875	0.182686
594.8152	0.193995
595.0429	0.212035
595.2705	0.216993
595.4983	0.206148
595.7260	0.198637
595.9537	0.188045
596.1814	0.174816
596.4092	0.164414
596.6369	0.158338
596.8647	0.153654
597.0925	0.154013
597.3203	0.160933
597.5481	0.162452
597.7759	0.163233
598.0037	0.157536
598.2315	0.149751
598.4594	0.155321
598.6872	0.171483
598.9151	0.192244
599.1430	0.199861
599.3709	0.199924
599.5988	0.189016
599.8267	0.188509
600.0546	0.194523
600.2825	0.199734
600.5105	0.195135
600.7384	0.192033
600.9664	0.196190
601.1944	0.196190
601.4223	0.189986
601.6503	0.183066
601.8783	0.181251
602.1064	0.180070
602.3344	0.177960
602.5624	0.177369
602.7905	0.182306
603.0185	0.181631
603.2466	0.192371
603.4747	0.199861
603.7028	0.201612
603.9309	0.194227
604.1590	0.187771
604.3871	0.182264
604.6152	0.171799
604.8434	0.161946
605.0715	0.165026
605.2997	0.164815
605.5279	0.172559
605.7561	0.176631
605.9843	0.182771
606.2125	0.178825
606.4407	0.164731
606.6689	0.160933
606.8972	0.159118
607.1254	0.163275
607.3537	0.161882
607.5819	0.167769
607.8102	0.165026
608.0385	0.162600
608.2668	0.152725
608.4951	0.151270
608.7235	0.145826
608.9518	0.150109
609.1801	0.139581
609.4085	0.138716
609.6369	0.136205
609.8653	0.141881
610.0936	0.156291
610.3220	0.157114
610.5505	0.153464
610.7789	0.147535
611.0073	0.143716
611.2357	0.143294
611.4642	0.141184
611.6927	0.139939
611.9211	0.141416
612.1496	0.139728
612.3781	0.136142
612.6066	0.130719
612.8351	0.134644
613.0637	0.135002
613.2922	0.133251
613.5208	0.130951
613.7493	0.130445
613.9779	0.135614
614.2065	0.133842
614.4351	0.134095
614.6637	0.133673
614.8923	0.130529
615.1209	0.127343
615.3495	0.135677
615.5782	0.136564
615.8068	0.136036
616.0355	0.130571
616.2642	0.124980
616.4929	0.116920
616.7216	0.115085
616.9503	0.114663
617.1790	0.111603
617.4077	0.113334
617.6365	0.113481
617.8652	0.115887
618.0940	0.114452
618.3227	0.109599
618.5515	0.102468
618.7803	0.098311
619.0091	0.092973
619.2379	0.094914
619.4667	0.092213
619.6956	0.092129
619.9244	0.095885
620.1533	0.101033
620.3821	0.101223
620.6110	0.096412
620.8399	0.089850
621.0688	0.081073
621.2977	0.077824
621.5266	0.075186
621.7556	0.077993
621.9845	0.081727
622.2135	0.085230
622.4424	0.084787
622.6714	0.088816
622.9004	0.085968
623.1294	0.089977
623.3584	0.092361
623.5874	0.091517
623.8164	0.085736
624.0454	0.089091
624.2745	0.087255
624.5035	0.089154
624.7326	0.088373
624.9617	0.091686
625.1908	0.086095
625.4199	0.082023
625.6490	0.083183
625.8781	0.082149
626.1072	0.077339
626.3364	0.074406
626.5655	0.075165
626.7947	0.072844
627.0238	0.072127
627.2530	0.071114
627.4822	0.070545
627.7114	0.070587
627.9406	0.070228
628.1698	0.066599
628.3991	0.060945
628.6283	0.058012
628.8576	0.057379
629.0868	0.061156
629.3161	0.061029
629.5454	0.063308
629.7747	0.064742
630.0040	0.062084
630.2333	0.062548
630.4626	0.060966
630.6920	0.059088
630.9213	0.057801
631.1507	0.055881
631.3801	0.054488
631.6094	0.053180
631.8388	0.054214
632.0682	0.052083
632.2976	0.051577
632.5271	0.050247
632.7565	0.048475
632.9859	0.045943
633.2154	0.045838
633.4448	0.043981
633.6743	0.046893
633.9038	0.043601
634.1333	0.043348
634.3628	0.043053
634.5923	0.042251
634.8218	0.041660
635.0514	0.042040
635.2809	0.041238
635.5105	0.039424
635.7400	0.042356
635.9696	0.043348
636.1992	0.043158
636.4288	0.046344
636.6584	0.046914
636.8880	0.046112
637.1177	0.045205
637.3473	0.043411
637.5770	0.043010
637.8066	0.042694
638.0363	0.040331
638.2660	0.041850
638.4957	0.045099
638.7254	0.042462
638.9551	0.041301
639.1848	0.040732
639.4145	0.040964
639.6443	0.037910
639.8740	0.038539
640.1038	0.036195
640.3336	0.038490
640.5633	0.035444
640.7931	0.035318
641.0229	0.034862
641.2528	0.034964
641.4826	0.035776
641.7124	0.032674
641.9423	0.032941
642.1721	0.031472
642.4020	0.030520
642.6319	0.028693
642.8617	0.029370
643.0916	0.033344
643.3216	0.030096
643.5515	0.029421
643.7814	0.030830
644.0113	0.029067
644.2413	0.029125
644.4712	0.027545
644.7012	0.027630
644.9312	0.028764
645.1612	0.026376
645.3912	0.026761
645.6212	0.027365
645.8512	0.024470
646.0812	0.026163
646.3113	0.026903
646.5413	0.026250
646.7714	0.023489
647.0015	0.024169
647.2316	0.024309
647.4616	0.023526
647.6918	0.026260
647.9219	0.026238
648.1520	0.030474
648.3821	0.029367
648.6123	0.032594
648.8424	0.032425
649.0726	0.035257
649.3028	0.034328
649.5329	0.034406
649.7631	0.031769
649.9933	0.033543
650.2236	0.030485
650.4538	0.028504
650.6840	0.028920
650.9143	0.027195
651.1445	0.029026
651.3748	0.030535
651.6051	0.029017
651.8354	0.031086
652.0657	0.031688
652.2960	0.029782
652.5263	0.032999
652.7566	0.031607
652.9870	0.032132
653.2173	0.029921
653.4477	0.031317
653.6780	0.031558
653.9084	0.032645
654.1388	0.035653
654.3692	0.034280
654.5996	0.038515
654.8300	0.040872
655.0605	0.068031
655.2909	0.192091
655.5213	0.558940
655.7518	1.019191
655.9823	1.013447
656.2128	1.004490
656.4433	1.006725
656.6738	1.005680
656.9043	1.013171
657.1348	0.915123
657.3653	0.745024
657.5959	0.637108
657.8264	0.556572
658.0570	0.508730
658.2875	0.462146
658.5181	0.421244
658.7487	0.391857
658.9793	0.380515
659.2099	0.330837
659.4406	0.240318
659.6712	0.154505
659.9018	0.089136
660.1325	0.055462
660.3632	0.038777
660.5938	0.031240
660.8245	0.025806
661.0552	0.024185
661.2859	0.024751
661.5166	0.024661
661.7474	0.022744
661.9781	0.022399
662.2088	0.024844
662.4396	0.023142
662.6704	0.024162
662.9011	0.023057
663.1319	0.022335
663.3627	0.021682
663.5935	0.022987
663.8243	0.022381
664.0552	0.021091
664.2860	0.020864
664.5168	0.022780
664.7477	0.023552
664.9786	0.024335
665.2094	0.024706
665.4403	0.026503
665.6712	0.024738
665.9021	0.023250
666.1330	0.024526
666.3640	0.021848
666.5949	0.021845
666.8259	0.022802
667.0568	0.022055
667.2878	0.021340
667.5188	0.020858
667.7497	0.021846
667.9807	0.021328
668.2117	0.019098
668.4428	0.021236
668.6738	0.020603
668.9048	0.020160
669.1359	0.022354
669.3669	0.020160
669.5980	0.019527
669.8291	0.021447
670.0602	0.021342
670.2913	0.024021
670.5224	0.022481
670.7535	0.022734
670.9846	0.021363
671.2157	0.024591
671.4469	0.028220
671.6781	0.028642
671.9092	0.030435
672.1404	0.035183
672.3716	0.036027
672.6028	0.035499
672.8340	0.034360
673.0652	0.032355
673.2964	0.030435
673.5277	0.031828
673.7589	0.029275
673.9902	0.029064
674.2214	0.028347
674.4527	0.028199
674.6840	0.026954
674.9153	0.028874
675.1466	0.026194
675.3779	0.026638
675.6093	0.026300
675.8406	0.026785
676.0719	0.027186
676.3033	0.025625
676.5347	0.024042
676.7661	0.025118
676.9974	0.023663
677.2288	0.024317
677.4602	0.024739
677.6917	0.026912
677.9231	0.029866
678.1545	0.030140
678.3860	0.028368
678.6174	0.029296
678.8489	0.030773
679.0804	0.031300
679.3119	0.033938
679.5434	0.035162
679.7749	0.034824
680.0064	0.036849
680.2379	0.035267
680.4694	0.037082
680.7010	0.035119
680.9325	0.033642
681.1641	0.034782
681.3957	0.036702
681.6273	0.036027
681.8589	0.036153
682.0905	0.032925
682.3221	0.030245
682.5537	0.031216
682.7854	0.029043
683.0170	0.030794
683.2487	0.029655
683.4803	0.030836
683.7120	0.028895
683.9437	0.032820
684.1754	0.033664
684.4071	0.036238
684.6388	0.036638
684.8705	0.038685
685.1023	0.042230
685.3340	0.044213
685.5658	0.047125
685.7975	0.046576
686.0293	0.044846
686.2611	0.047272
686.4929	0.044424
686.7247	0.044804
686.9565	0.041576
687.1883	0.044952
687.4202	0.045711
687.6520	0.041555
687.8838	0.042209
688.1157	0.039508
688.3476	0.039255
688.5795	0.037419
688.8114	0.037588
689.0433	0.037335
689.2752	0.037693
689.5071	0.036786
689.7390	0.036807
689.9710	0.034444
690.2029	0.035858
690.4349	0.035963
690.6669	0.033263
690.8988	0.036069
691.1308	0.037229
691.3628	0.038833
691.5948	0.038685
691.8269	0.039002
692.0589	0.039255
692.2909	0.039402
692.5230	0.040310
692.7550	0.038791
692.9871	0.039930
693.2192	0.041301
693.4513	0.040331
693.6834	0.039972
693.9155	0.035288
694.1476	0.034613
694.3797	0.035689
694.6119	0.033410
694.8440	0.034107
695.0762	0.032967
695.3083	0.037145
695.5405	0.032714
695.7727	0.028769
696.0049	0.031976
696.2371	0.029718
696.4693	0.031744
696.7016	0.037082
696.9338	0.040310
697.1660	0.040901
697.3983	0.041175
697.6306	0.040183
697.8628	0.039170
698.0951	0.039635
698.3274	0.039360
698.5597	0.037525
698.7920	0.036111
699.0243	0.036090
699.2567	0.035541
699.4890	0.033642
699.7214	0.036364
699.9537	0.031807
700.1861	0.031659
700.4185	0.030752
700.6509	0.032461
700.8833	0.030013
701.1157	0.030351
701.3481	0.026258
701.5806	0.027714
701.8130	0.030520
702.0454	0.029296
702.2779	0.031533
702.5104	0.031068
702.7429	0.029359
702.9753	0.029824
703.2078	0.029191
703.4403	0.030942
703.6729	0.029465
703.9054	0.026912
704.1379	0.027460
704.3705	0.027925
704.6030	0.026806
704.8356	0.025097
705.0682	0.023304
705.3008	0.023726
705.5334	0.024338
705.7660	0.024781
705.9986	0.024507
706.2312	0.027629
706.4638	0.032060
706.6965	0.034655
706.9291	0.035162
707.1618	0.035394
707.3945	0.039846
707.6272	0.037567
707.8599	0.039909
708.0926	0.037398
708.3253	0.038791
708.5580	0.039360
708.7907	0.037693
709.0235	0.036765
709.2562	0.032651
709.4890	0.032756
709.7217	0.031068
709.9545	0.033094
710.1873	0.033136
710.4201	0.035668
710.6529	0.035288
710.8857	0.034086
711.1186	0.031870
711.3514	0.030478
711.5842	0.028726
711.8171	0.030520
712.0500	0.028009
712.2828	0.028157
712.5157	0.028009
712.7486	0.029718
712.9815	0.027439
713.2144	0.030794
713.4474	0.031722
713.6803	0.033368
713.9132	0.035140
714.1462	0.034170
714.3791	0.033115
714.6121	0.034655
714.8451	0.034782
715.0781	0.033115
715.3111	0.033347
715.5441	0.033685
715.7771	0.033157
716.0102	0.032313
716.2432	0.028726
716.4762	0.030203
716.7093	0.029148
716.9424	0.028621
717.1754	0.027060
717.4085	0.027503
717.6416	0.026194
717.8747	0.028494
718.1078	0.031111
718.3410	0.030119
718.5741	0.028093
718.8072	0.029275
719.0404	0.030245
719.2736	0.030984
719.5067	0.029908
719.7399	0.028157
719.9731	0.027925
720.2063	0.027819
720.4395	0.028684
720.6727	0.028241
720.9060	0.028494
721.1392	0.029781
721.3725	0.029465
721.6057	0.030245
721.8390	0.029781
722.0723	0.029613
722.3055	0.027355
722.5388	0.027819
722.7721	0.025962
723.0055	0.026279
723.2388	0.027714
723.4721	0.026194
723.7055	0.027165
723.9388	0.027566
724.1722	0.026574
724.4056	0.027503
724.6389	0.028473
724.8723	0.027144
725.1057	0.030098
725.3391	0.033790
725.5726	0.033368
725.8060	0.032292
726.0394	0.034233
726.2729	0.035415
726.5063	0.033917
726.7398	0.033896
726.9733	0.033031
727.2068	0.032587
727.4403	0.033474
727.6738	0.032102
727.9073	0.034107
728.1408	0.034655
728.3743	0.035098
728.6079	0.035626
728.8414	0.032967
729.0750	0.035162
729.3086	0.033790
729.5421	0.036892
729.7757	0.037672
730.0093	0.037293
730.2429	0.036174
730.4766	0.041555
730.7102	0.039466
730.9438	0.045479
731.1775	0.046239
731.4111	0.044846
731.6448	0.044445
731.8785	0.042715
732.1122	0.040879
732.3458	0.040500
732.5795	0.043411
732.8133	0.042884
733.0470	0.043918
733.2807	0.045711
733.5145	0.043179
733.7482	0.047125
733.9820	0.049551
734.2157	0.051682
734.4495	0.053243
734.6833	0.053813
734.9171	0.047568
735.1509	0.047061
735.3847	0.049003
735.6185	0.049003
735.8524	0.050395
736.0862	0.050226
736.3201	0.049150
736.5539	0.050374
736.7878	0.048454
737.0217	0.050332
737.2556	0.048327
737.4895	0.047188
737.7234	0.044023
737.9573	0.043749
738.1912	0.039508
738.4252	0.041681
738.6591	0.040943
738.8931	0.039276
739.1271	0.046196
739.3610	0.046133
739.5950	0.048011
739.8290	0.044994
740.0630	0.041829
740.2970	0.042335
740.5310	0.040162
740.7651	0.039023
740.9991	0.039550
741.2332	0.036533
741.4672	0.034929
741.7013	0.032904
741.9354	0.035183
742.1695	0.033199
742.4036	0.033853
742.6377	0.035710
742.8718	0.032967
743.1059	0.032672
743.3400	0.031997
743.5742	0.032187
743.8083	0.030288
744.0425	0.028347
744.2767	0.030034
744.5108	0.029444
744.7450	0.029423
744.9792	0.031828
745.2134	0.029444
745.4477	0.026996
745.6819	0.027798
745.9161	0.030013
746.1504	0.029127
746.3846	0.029127
746.6189	0.026532
746.8532	0.027165
747.0874	0.028368
747.3217	0.032545
747.5560	0.031427
747.7903	0.031448
748.0247	0.027735
748.2590	0.029212
748.4933	0.029781
748.7277	0.029781
748.9620	0.030056
749.1964	0.030414
749.4308	0.032946
749.6652	0.034761
749.8995	0.036976
750.1339	0.037187
750.3684	0.039424
750.6028	0.040141
750.8372	0.037799
751.0717	0.039592
751.3061	0.038221
751.5406	0.038052
751.7750	0.042230
752.0095	0.040141
752.2440	0.039424
752.4785	0.036871
752.7130	0.037103
752.9475	0.034212
753.1820	0.035879
753.4166	0.036638
753.6511	0.043686
753.8856	0.042356
754.1202	0.043179
754.3548	0.040436
754.5894	0.039803
754.8239	0.040141
755.0585	0.039930
755.2931	0.041533
755.5278	0.043496
755.7624	0.042209
755.9970	0.043960
756.2317	0.045901
756.4663	0.048876
756.7010	0.051492
756.9356	0.051471
757.1703	0.053096
757.4050	0.057759
757.6397	0.058582
757.8744	0.061915
758.1091	0.059932
758.3438	0.058117
758.5786	0.055585
758.8133	0.055374
759.0481	0.056071
759.2828	0.055944
759.5176	0.060269
759.7524	0.062000
759.9872	0.062358
760.2220	0.062105
760.4568	0.065122
760.6916	0.065038
760.9264	0.066156
761.1613	0.062337
761.3961	0.059489
761.6310	0.056366
761.8658	0.054699
762.1007	0.053159
762.3356	0.049868
762.5705	0.048137
762.8054	0.047505
763.0403	0.047990
763.2752	0.048813
763.5101	0.050712
763.7450	0.051556
763.9800	0.052484
764.2149	0.052020
764.4499	0.057780
764.6849	0.058012
764.9198	0.056830
765.1548	0.058413
765.3898	0.058898
765.6248	0.057189
765.8599	0.051999
766.0949	0.049952
766.3299	0.047019
766.5650	0.045036
766.8000	0.041301
767.0351	0.039803
767.2701	0.039951
767.5052	0.037757
767.7403	0.039170
767.9754	0.040542
768.2105	0.044614
768.4456	0.043285
768.6808	0.047441
768.9159	0.051893
769.1510	0.047547
769.3862	0.048285
769.6214	0.044297
769.8565	0.046893
770.0917	0.045141
770.3269	0.044150
770.5621	0.044994
770.7973	0.046049
771.0325	0.048011
771.2677	0.047610
771.5030	0.046597
771.7382	0.046745
771.9735	0.041069
772.2087	0.040457
772.4440	0.042736
772.6793	0.039888
772.9146	0.041407
773.1499	0.038959
773.3852	0.037356
773.6205	0.038559
773.8558	0.038643
774.0911	0.035330
774.3265	0.035309
774.5618	0.034043
774.7972	0.033642
775.0326	0.032988
775.2679	0.028790
775.5033	0.028325
775.7387	0.027503
775.9741	0.026806
776.2095	0.026701
776.4450	0.027819
776.6804	0.026342
776.9158	0.025772
777.1513	0.024464
777.3868	0.024971
777.6222	0.024443
777.8577	0.023705
778.0932	0.025266
778.3287	0.025941
778.5642	0.026300
778.7997	0.028769
779.0352	0.029824
779.2707	0.030583
779.5063	0.030773
779.7418	0.030224
779.9774	0.029043
780.2130	0.027819
780.4485	0.027144
780.6841	0.028325
780.9197	0.031300
781.1553	0.031300
781.3909	0.035879
781.6265	0.034866
781.8622	0.036090
782.0978	0.035605
782.3335	0.036322
782.5691	0.033790
782.8048	0.034592
783.0405	0.032144
783.2761	0.032376
783.5118	0.034064
783.7475	0.034043
783.9832	0.034128
784.2190	0.033199
784.4547	0.031111
784.6904	0.030900
784.9262	0.029317
785.1619	0.031258
785.3977	0.029380
785.6335	0.027482
785.8692	0.029866
786.1050	0.028705
786.3408	0.027925
786.5766	0.028579
786.8124	0.028009
787.0483	0.027228
787.2841	0.029528
787.5199	0.030034
787.7558	0.031068
787.9917	0.029971
788.2275	0.030456
788.4634	0.030119
788.6993	0.032376
788.9352	0.033263
789.1711	0.031701
789.4070	0.030604
789.6429	0.027798
789.8789	0.027925
790.1148	0.027207
790.3507	0.026026
790.5867	0.025224
790.8227	0.025224
791.0586	0.023346
791.2946	0.024549
791.5306	0.023367
791.7666	0.024886
792.0026	0.025857
792.2387	0.022481
792.4747	0.023304
792.7107	0.023156
792.9468	0.020034
793.1828	0.022291
793.4189	0.022861
793.6550	0.024760
793.8910	0.028347
794.1271	0.032756
794.3632	0.032229
794.5993	0.030794
794.8355	0.032461
795.0716	0.032841
795.3077	0.033115
795.5439	0.032693
795.7800	0.028853
796.0162	0.028621
796.2523	0.026131
796.4885	0.024232
796.7247	0.024127
796.9609	0.021996
797.1971	0.020561
797.4333	0.020899
797.6695	0.024190
797.9058	0.025203
798.1420	0.022840
798.3783	0.021743
798.6145	0.021911
798.8508	0.024190
799.0871	0.023536
799.3233	0.023979
799.5596	0.021299
799.7959	0.022713
800.0322	0.021194
800.2686	0.019949
800.5049	0.020139
800.7412	0.019738
800.9776	0.019844
801.2139	0.019633
801.4503	0.019232
801.6867	0.019063
801.9230	0.018092
802.1594	0.017586
802.3958	0.017417
802.6322	0.017122
802.8686	0.015518
803.1051	0.018156
803.3415	0.015455
803.5779	0.019633
803.8144	0.019253
804.0508	0.017523
804.2873	0.017966
804.5238	0.016848
804.7603	0.017776
804.9968	0.016679
805.2333	0.017945
805.4698	0.018641
805.7063	0.018219
805.9428	0.019717
806.1794	0.020983
806.4159	0.024591
806.6525	0.024570
806.8890	0.026870
807.1256	0.024127
807.3622	0.020793
807.5988	0.023156
807.8354	0.023599
808.0720	0.021574
808.3086	0.023937
808.5452	0.022122
808.7818	0.022819
809.0185	0.024823
809.2551	0.021574
809.4918	0.020962
809.7284	0.020287
809.9651	0.017966
810.2018	0.018873
810.4385	0.017354
810.6752	0.019422
810.9119	0.019232
811.1486	0.019126
811.3853	0.020329
811.6221	0.018050
811.8588	0.017438
812.0956	0.016426
812.3323	0.018683
812.5691	0.015075
812.8059	0.014041
813.0427	0.015054
813.2795	0.015856
813.5163	0.013641
813.7531	0.018071
813.9899	0.019168
814.2267	0.020055
814.4636	0.018219
814.7004	0.017713
814.9373	0.016953
815.1742	0.016088
815.4110	0.016025
815.6479	0.014590
815.8848	0.013134
816.1217	0.014063
816.3586	0.013641
816.5955	0.014231
816.8324	0.013915
817.0694	0.013113
817.3063	0.015497
817.5433	0.013746
817.7802	0.013894
818.0172	0.014400
818.2542	0.015476
818.4912	0.012881
818.7282	0.013366
818.9652	0.013240
819.2022	0.012121
819.4392	0.013683
819.6762	0.012016
819.9133	0.011721
820.1503	0.011088
820.3874	0.015603
820.6244	0.016426
820.8615	0.015793
821.0986	0.016552
821.3357	0.018367
821.5727	0.014822
821.8099	0.015012
822.0470	0.014506
822.2841	0.012902
822.5212	0.013345
822.7584	0.014105
822.9955	0.013113
823.2327	0.013113
823.4698	0.012522
823.7070	0.010054
823.9442	0.011341
824.1814	0.012016
824.4186	0.011383
824.6558	0.011826
824.8930	0.011320
825.1302	0.010961
825.3675	0.011594
825.6047	0.014442
825.8419	0.012670
826.0792	0.013556
826.3165	0.012923
826.5537	0.011699
826.7910	0.012818
827.0283	0.012733
827.2656	0.013345
827.5029	0.014674
827.7402	0.016236
827.9776	0.012923
828.2149	0.012923
828.4522	0.012332
828.6896	0.012586
828.9270	0.013746
829.1643	0.012290
829.4017	0.012332
829.6391	0.012332
829.8765	0.011172
830.1139	0.011826
830.3513	0.012185
830.5887	0.009737
830.8261	0.009590
831.0636	0.007754
831.3010	0.010265
831.5385	0.009252
831.7759	0.008957
832.0134	0.008028
832.2509	0.008513
832.4884	0.009547
832.7259	0.008935
832.9634	0.009822
833.2009	0.010222
833.4384	0.008513
833.6759	0.010898
833.9135	0.010391
834.1510	0.011467
834.3886	0.012016
834.6261	0.010433
834.8637	0.010370
835.1013	0.011404
835.3389	0.009336
835.5765	0.009231
835.8141	0.008999
836.0517	0.009737
836.2893	0.010560
836.5269	0.007923
836.7646	0.008366
837.0022	0.010265
837.2399	0.006868
837.4775	0.007817
837.7152	0.005201
837.9529	0.007353
838.1906	0.007395
838.4283	0.006066
838.6660	0.007902
838.9037	0.006826
839.1414	0.006741
839.3791	0.007205
839.6169	0.007395
839.8546	0.007100
840.0924	0.007902
840.3302	0.008872
840.5679	0.007543
840.8057	0.007648
841.0435	0.006361
841.2813	0.006973
841.5191	0.005939
841.7569	0.006425
841.9947	0.005180
842.2326	0.006024
842.4704	0.005602
842.7082	0.005496
842.9461	0.004547
843.1840	0.003956
843.4218	0.006087
843.6597	0.004927
843.8976	0.004209
844.1355	0.005391
844.3734	0.004399
844.6113	0.006129
844.8492	0.005306
845.0872	0.005792
845.3251	0.005074
845.5631	0.005581
845.8010	0.005623
846.0390	0.005792
846.2770	0.004062
846.5149	0.004990
846.7529	0.002943
846.9909	0.003661
847.2289	0.004800
847.4669	0.007121
847.7050	0.004652
847.9430	0.004420
848.1810	0.004969
848.4191	0.005517
848.6571	0.006657
848.8952	0.004737
849.1333	0.004104
849.3713	0.005454
849.6094	0.005665
849.8475	0.005370
850.0856	0.005517
850.3237	0.005328
850.5619	0.003872
850.8000	0.004695
851.0381	0.004420
851.2763	0.004062
851.5144	0.004378
851.7526	0.006467
851.9908	0.004779
852.2289	0.004990
852.4671	0.008598
852.7053	0.009421
852.9435	0.010117
853.1817	0.013092
853.4200	0.012353
853.6582	0.012839
853.8964	0.013894
854.1347	0.015054
854.3729	0.014316
854.6112	0.014991
854.8495	0.015582
855.0877	0.014020
855.3260	0.015117
855.5643	0.012375
855.8026	0.012775
856.0409	0.012691
856.2792	0.012522
856.5176	0.014147
856.7559	0.012459
856.9942	0.011193
857.2326	0.011299
857.4710	0.011109
857.7093	0.010560
857.9477	0.009674
858.1861	0.011404
858.4245	0.008788
858.6629	0.009526
858.9013	0.009189
859.1397	0.008535
859.3781	0.008535
859.6166	0.009125
859.8550	0.008366
860.0935	0.007923
860.3319	0.007311
860.5704	0.008492
860.8089	0.007965
861.0473	0.006994
861.2858	0.006720
861.5243	0.007838
861.7628	0.007585
862.0013	0.006087
862.2399	0.008049
862.4784	0.005960
862.7169	0.005707
862.9555	0.005707
863.1940	0.006804
863.4326	0.006256
863.6712	0.007775
863.9098	0.005728
864.1483	0.005834
864.3869	0.005517
864.6255	0.006783
864.8642	0.005159
865.1028	0.005243
865.3414	0.004526
865.5800	0.005222
865.8187	0.005328
866.0573	0.005496
866.2960	0.005159
866.5347	0.004652
866.7733	0.004758
867.0120	0.006150
867.2507	0.005623
867.4894	0.005222
867.7281	0.005201
867.9669	0.006235
868.2056	0.003956
868.4443	0.005876
868.6831	0.005349
868.9218	0.005496
869.1606	0.006256
869.3993	0.004441
869.6381	0.004462
869.8769	0.004673
870.1157	0.004568
870.3545	0.004927
870.5933	0.004146
870.8321	0.005707
871.0709	0.005749
871.3097	0.006509
871.5486	0.007079
871.7874	0.005117
872.0263	0.004610
872.2651	0.004378
872.5040	0.004526
872.7429	0.004758
872.9818	0.004884
873.2207	0.004716
873.4596	0.005243
873.6985	0.005517
873.9374	0.004990
874.1763	0.004547
874.4153	0.006214
874.6542	0.005602
874.8932	0.005813
875.1321	0.004315
875.3711	0.005707
875.6101	0.006741
875.8491	0.005496
876.0880	0.006129
876.3270	0.005813
876.5661	0.004779
876.8051	0.005665
877.0441	0.004484
877.2831	0.003787
877.5222	0.004758
877.7612	0.005792
878.0003	0.006973
878.2393	0.007817
878.4784	0.007142
878.7175	0.006256
878.9566	0.008450
879.1957	0.007606
879.4348	0.006467
879.6739	0.007332
879.9130	0.007670
880.1521	0.009336
880.3913	0.007775
880.6304	0.008408
880.8696	0.006868
881.1087	0.008492
881.3479	0.007817
881.5871	0.006593
881.8262	0.008281
882.0654	0.007522
882.3046	0.005095
882.5438	0.007269
882.7831	0.006952
883.0223	0.005707
883.2615	0.005665
883.5007	0.006024
883.7400	0.005433
883.9792	0.006214
884.2185	0.006171
884.4578	0.005264
884.6971	0.005644
884.9363	0.006593
885.1756	0.006277
885.4149	0.005665
885.6542	0.006720
885.8936	0.006994
886.1329	0.007480
886.3722	0.006530
886.6116	0.005412
886.8509	0.007248
887.0903	0.004716
887.3296	0.006277
887.5690	0.005475
887.8084	0.004800
888.0478	0.004969
888.2872	0.004019
888.5266	0.005285
888.7660	0.003977
889.0054	0.005686
889.2448	0.006699
889.4843	0.003555
889.7237	0.006129
889.9632	0.005475
890.2026	0.005475
890.4421	0.005011
890.6816	0.004019
890.9211	0.003618
891.1606	0.005454
891.4001	0.005602
891.6396	0.005560
891.8791	0.005813
892.1186	0.004040
892.3581	0.004589
892.5977	0.005644
892.8372	0.007395
893.0768	0.006530
893.3163	0.004800
893.5559	0.005792
893.7955	0.005011
894.0351	0.003956
894.2747	0.004948
894.5143	0.004568
894.7539	0.003281
894.9935	0.004906
895.2331	0.003745
895.4727	0.004652
895.7124	0.003450
895.9520	0.005285
896.1917	0.005560
896.4314	0.004800
896.6710	0.007142
896.9107	0.004927
897.1504	0.004800
897.3901	0.004315
897.6298	0.004019
897.8695	0.004547
898.1092	0.005834
898.3489	0.004209
898.5887	0.005602
898.8284	0.004652
899.0682	0.004906
899.3079	0.005074
899.5477	0.004167
899.7875	0.005138
900.0272	0.002711
900.2670	0.005285
900.5068	0.004800
900.7466	0.004568
900.9864	0.004842
901.2263	0.003513
901.4661	0.003808
901.7059	0.005539
901.9458	0.003661
902.1856	0.005771
902.4255	0.003597
902.6654	0.004273
902.9052	0.004969
903.1451	0.004948
903.3850	0.003302
903.6249	0.003365
903.8648	0.004146
904.1047	0.004652
904.3446	0.003893
904.5846	0.003703
904.8245	0.004146
905.0644	0.005243
905.3044	0.004610
905.5444	0.004673
905.7843	0.005623
906.0243	0.005117
906.2643	0.005475
906.5043	0.005454
906.7443	0.004526
906.9843	0.004040
907.2243	0.004230
907.4643	0.004863
907.7043	0.004315
907.9444	0.003851
908.1844	0.002796
908.4245	0.003682
908.6645	0.003661
908.9046	0.004420
909.1447	0.004019
909.3847	0.004062
909.6248	0.002732
909.8649	0.004294
910.1050	0.004779
910.3452	0.002205
910.5853	0.003175
910.8254	0.005328
911.0655	0.003049
911.3057	0.003787
911.5458	0.004273
911.7860	0.004716
912.0262	0.003407
912.2663	0.005560
912.5065	0.002690
912.7467	0.003323
912.9869	0.003597
913.2271	0.003281
913.4673	0.004104
913.7075	0.003260
913.9478	0.003914
914.1880	0.004399
914.4283	0.003640
914.6685	0.003513
914.9088	0.003407
915.1490	0.002648
915.3893	0.004336
915.6296	0.004273
915.8699	0.002986
916.1102	0.002184
916.3505	0.002331
916.5908	0.003386
916.8311	0.003344
917.0714	0.004294
917.3118	0.003365
917.5521	0.005117
917.7925	0.004062
918.0328	0.004526
918.2732	0.004800
918.5136	0.005433
918.7539	0.004652
918.9943	0.003618
919.2347	0.004462
919.4751	0.004040
919.7155	0.003872
919.9560	0.004906
920.1964	0.001762
920.4368	0.003618
920.6773	0.002669
920.9177	0.003218
921.1582	0.004737
921.3986	0.003555
921.6391	0.004884
921.8796	0.002057
922.1201	0.002374
922.3606	0.003239
922.6011	0.004083
922.8416	0.004062
923.0821	0.002205
923.3226	0.003154
923.5631	0.002268
923.8037	0.003661
924.0442	0.003344
924.2848	0.003260
924.5254	0.003640
924.7659	0.003576
925.0065	0.002184
925.2471	0.002458
925.4877	0.001382
925.7283	0.003724
925.9689	0.002606
926.2095	0.002142
926.4501	0.002205
926.6908	0.003829
926.9314	0.002142
927.1720	0.002331
927.4127	0.002943
927.6533	0.002500
927.8940	0.001466
928.1347	0.004167
928.3754	0.002331
928.6161	0.003513
928.8568	0.001994
929.0975	0.002986
929.3382	0.003049
929.5789	0.003829
929.8196	0.002542
930.0604	0.002627
930.3011	0.001909
930.5419	0.002120
930.7826	0.002268
931.0234	0.003028
931.2642	0.002817
931.5049	0.003281
931.7457	0.002395
931.9865	0.002078
932.2273	0.002120
932.4681	0.004484
932.7089	0.001234
932.9498	0.002416
933.1906	0.002817
933.4314	0.003260
933.6723	0.001909
933.9131	0.002353
934.1540	0.002585
934.3949	0.002606
934.6358	0.001192
934.8766	0.002437
935.1175	0.002796
935.3584	0.002859
935.5993	0.002247
935.8403	0.001002
936.0812	0.001825
936.3221	0.002247
936.5630	0.001551
936.8040	0.001150
937.0449	0.001023
937.2859	0.002036
937.5269	0.001487
937.7678	0.002353
938.0088	0.001129
938.2498	0.002648
938.4908	0.001888
938.7318	0.002585
938.9728	0.003492
939.2138	0.001108
939.4549	0.002732
939.6959	0.001298
939.9369	0.002184
940.1780	0.001551
940.4190	0.001087
940.6601	0.000791
940.9012	0.001361
941.1422	0.000222
941.3833	0.001931
941.6244	0.001614
941.8655	0.001931
942.1066	0.002226
942.3477	0.001741
942.5889	0.001804
942.8300	0.001087
943.0711	0.001192
943.3123	0.002289
943.5534	0.000559
943.7946	0.001192
944.0357	0.000390
944.2769	0.001002
944.5181	0.001319
944.7593	0.000475
945.0005	0.001087
945.2417	0.001656
945.4829	0.002036
945.7241	0.002922
945.9653	0.002078
946.2066	0.000559
946.4478	0.000918
946.6891	0.001466
946.9303	0.000538
947.1716	0.002247
947.4128	0.001741
947.6541	0.001783
947.8954	0.001445
948.1367	0.001530
948.3780	0.001340
948.6193	0.001762
948.8606	0.000411
949.1019	0.000918
949.3433	0.001066
949.5846	0.001382
949.8259	0.000876
950.0673	0.002374
950.3086	0.000306
950.5500	0.001762
950.7914	0.000095
951.0327	0.001023
951.2741	0.001066
951.5155	0.002310
951.7569	0.001825
951.9983	0.001783
952.2398	0.002142
952.4812	0.000981
952.7226	0.001741
952.9640	0.001994
953.2055	0.000981
953.4469	0.002015
953.6884	0.001698
953.9299	0.002120
954.1713	-0.000306
954.4128	0.000179
954.6543	0.000770
954.8958	0.000116
955.1373	0.000770
955.3788	0.001635
955.6203	0.001213
955.8618	0.000749
956.1034	0.001487
956.3449	0.001424
956.5865	0.001066
956.8280	0.001319
957.0696	0.001298
957.3111	0.000622
957.5527	0.002838
957.7943	0.001846
958.0359	0.001424
958.2775	-0.000222
958.5191	0.001066
958.7607	0.001487
959.0023	-0.000243
959.2439	0.000348
959.4856	0.000791
959.7272	0.001846
959.9688	-0.000369
960.2105	0.000918
960.4522	0.000665
960.6938	0.000243
960.9355	-0.000833
961.1772	0.001150
961.4189	0.000137
961.6606	-0.000011
961.9023	0.001340
962.1440	-0.000158
962.3857	0.000348
962.6274	0.001023
962.8692	0.000074
963.1109	0.000981
963.3527	0.000939
963.5944	0.001382
963.8362	0.001023
964.0779	0.001424
964.3197	0.001213
964.5615	0.001066
964.8033	0.001572
965.0451	0.001213
965.2869	0.001255
965.5287	0.000770
965.7705	0.000644
966.0123	0.001593
966.2542	0.000327
966.4960	0.000559
966.7379	0.001931
966.9797	0.001382
967.2216	-0.000369
967.4634	0.000644
967.7053	0.000538
967.9472	-0.000369
968.1891	-0.000749
968.4310	0.000981
968.6729	0.001319
968.9148	0.000791
969.1567	0.000855
969.3987	0.000116
969.6406	0.000517
969.8825	0.000032
970.1245	0.000622
970.3664	0.000939
970.6084	0.000812
970.8504	0.000749
971.0923	0.001234
971.3343	0.001255
971.5763	-0.000032
971.8183	0.001023
972.0603	0.000011
972.3023	0.001867
972.5443	0.000074
972.7864	0.000981
973.0284	0.001931
973.2704	0.001741
973.5125	0.000348
973.7545	0.000981
973.9966	0.000137
974.2387	0.002753
974.4807	0.000348
974.7228	0.000812
974.9649	0.000833
975.2070	0.001150
975.4491	0.000116
975.6912	-0.000686
975.9333	0.000897
976.1755	-0.000454
976.4176	0.000833
976.6597	0.001319
976.9019	0.001403
977.1440	0.001487
977.3862	0.000053
977.6283	0.002943
977.8705	0.000728
978.1127	0.000390
978.3549	-0.000095
978.5971	0.001192
978.8393	0.000580
979.0815	0.000200
979.3237	-0.000011
979.5659	-0.000622
979.8082	0.002268
980.0504	0.001171
980.2926	0.000496
980.5349	-0.000285
980.7771	0.000644
981.0194	-0.000137
981.2617	0.001530
981.5040	0.002163
981.7462	-0.000348
981.9885	0.001319
982.2308	-0.000095
982.4731	0.002142
982.7155	0.001741
982.9578	0.000285
983.2001	0.001298
983.4424	-0.000116
983.6848	0.001846
983.9271	0.001234
984.1695	0.000981
984.4118	0.000433
984.6542	0.001192
984.8966	0.001424
985.1390	-0.001023
985.3814	0.001150
985.6238	0.001698
985.8662	0.000707
986.1086	-0.000728
986.3510	-0.001087
986.5934	-0.000074
986.8358	0.001108
987.0783	0.000833
987.3207	-0.000032
987.5632	-0.000285
987.8056	-0.000433
988.0481	0.000601
988.2906	0.000833
988.5331	-0.000707
988.7756	0.000644
989.0180	0.000833
989.2605	0.000897
989.5031	-0.000770
989.7456	-0.000264
989.9881	-0.000390
990.2306	0.001572
990.4732	0.001002
990.7157	0.000855
990.9582	-0.000538
991.2008	-0.000200
991.4434	-0.000411
991.6859	0.000812
991.9285	-0.000897
992.1711	-0.000517
992.4137	0.001487
992.6563	0.000137
992.8989	0.001129
993.1415	0.000812
993.3841	0.000622
993.6267	0.000686
993.8694	0.000011
994.1120	0.000580
994.3547	0.001382
994.5973	0.001192
994.8400	-0.000454
995.0826	-0.000622
995.3253	0.001192
995.5680	0.000137
995.8107	0.001171
996.0534	0.000348
996.2961	0.000390
996.5388	0.000538
996.7815	-0.000032
997.0242	0.000116
997.2670	0.000939
997.5097	0.001171
997.7524	0.000369
997.9952	0.002142
998.2379	-0.000200
998.4807	0.000011
998.7235	-0.000622
998.9662	0.001530
999.2090	-0.000686
999.4518	0.000833
999.6946	0.000791
999.9374	-0.000158
1000.1802	0.000770
1000.4230	0.001551
1000.6659	0.000306
1000.9087	0.000538
1001.1515	-0.000306
1001.3944	0.000770
1001.6372	0.000812
1001.8801	-0.000897
1002.1230	0.000390
1002.3658	-0.000137
1002.6087	0.000074
1002.8516	0.001656
1003.0945	0.000243
1003.3374	0.000200
1003.5803	0.000496
1003.8232	0.000243
1004.0661	-0.000179
1004.3091	0.000559
1004.5520	0.001614
1004.7949	0.000475
1005.0379	0.000433
1005.2808	0.001150
1005.5238	0.001846
1005.7667	0.000095
1006.0097	0.000960
1006.2527	-0.001150
1006.4957	-0.000707
1006.7387	-0.001340
1006.9817	0.000791
1007.2247	0.000306
1007.4677	0.000707
1007.7107	0.000306
1007.9538	0.001108
1008.1968	0.000285
1008.4398	0.001171
1008.6829	0.000137
1008.9259	0.001150
1009.1690	0.000475
1009.4121	-0.000749
1009.6551	0.000074
1009.8982	0.001424
1010.1413	0.000285
1010.3844	0.000833
1010.6275	0.000222
1010.8706	0.001762
1011.1137	0.000644
1011.3568	0.001023
1011.6000	0.000475
1011.8431	0.000770
1012.0863	-0.000622
1012.3294	0.000475
1012.5726	-0.000411
1012.8157	0.000032
1013.0589	-0.000327
1013.3021	0.000538
1013.5452	0.000601
1013.7884	0.001340
1014.0316	-0.001023
1014.2748	0.000496
1014.5180	0.001614
1014.7613	0.001087
1015.0045	-0.000770
1015.2477	0.001276
1015.4909	-0.000179
1015.7342	0.001931
1015.9774	-0.000622
1016.2207	0.000496
1016.4640	0.000538
1016.7072	0.000116
1016.9505	-0.000454
1017.1938	0.000074
1017.4371	-0.000264
1017.6804	0.001424
1017.9237	0.000728
1018.1670	0.001783
1018.4103	0.000812
1018.6536	0.001340
1018.8969	0.000496
1019.1403	0.001741
1019.3836	-0.000116
1019.6270	0.000707
1019.8703	-0.000411
1020.1137	0.001424
1020.3571	0.000580
1020.6004	0.000475
1020.8438	0.001002
1021.0872	0.001741
1021.3306	-0.000454
1021.5740	0.000179
1021.8174	0.000454
1022.0608	-0.000200
1022.3042	-0.001720
1022.5477	0.000728
1022.7911	-0.000116
1023.0345	-0.000222
