# Wavelength (nm)	Intensity (a.u.)
197.7802	0.002058
197.9842	-0.001346
198.1882	0.000007
198.3922	0.000197
198.5963	-0.001008
198.8003	-0.002573
199.0044	0.002058
199.2085	0.000176
199.4126	0.000388
199.6168	-0.000289
199.8209	0.001995
200.0251	0.000388
200.2292	0.000515
200.4334	-0.001198
200.6376	0.000916
200.8418	-0.001685
201.0461	0.000684
201.2503	-0.000120
201.4546	0.001318
201.6589	0.000028
201.8631	0.001487
202.0674	-0.000056
202.2718	0.001297
202.4761	0.000409
202.6805	-0.000670
202.8848	0.001149
203.0892	0.000599
203.2936	-0.000226
203.4980	-0.000754
203.7024	0.002016
203.9069	0.002228
204.1113	-0.000627
204.3158	-0.000437
204.5203	0.000451
204.7248	0.001805
204.9293	-0.000162
205.1338	0.000388
205.3384	0.000641
205.5430	0.000282
205.7475	0.001487
205.9521	0.000282
206.1567	0.001170
206.3614	-0.000564
206.5660	0.001910
206.7706	0.003158
206.9753	-0.000860
207.1800	0.000028
207.3847	0.000282
207.5894	0.000747
207.7941	-0.000670
207.9989	0.002058
208.2036	-0.000500
208.4084	0.000874
208.6132	0.000641
208.8180	0.002079
209.0228	-0.000797
209.2276	-0.000585
209.4325	-0.000226
209.6373	-0.000458
209.8422	-0.002552
210.0471	0.001297
210.2520	0.000049
210.4569	0.000768
210.6618	0.000536
210.8668	0.000515
211.0718	-0.000649
211.2767	0.002143
211.4817	-0.000543
211.6867	0.001509
211.8918	-0.000056
212.0968	0.001783
212.3018	0.000493
212.5069	0.001995
212.7120	0.000155
212.9171	-0.000141
213.1222	0.000938
213.3273	0.000515
213.5325	0.001043
213.7376	-0.000458
213.9428	-0.000247
214.1480	-0.000289
214.3532	0.000261
214.5584	0.001043
214.7636	0.000070
214.9689	-0.000374
215.1741	-0.000183
215.3794	0.001001
215.5847	0.000641
215.7900	-0.000670
215.9953	-0.000099
216.2007	0.001551
216.4060	-0.002087
216.6114	0.000493
216.8168	-0.000500
217.0222	0.000409
217.2276	-0.000014
217.4330	0.001910
217.6384	0.000493
217.8439	0.001762
218.0494	-0.000014
218.2548	0.001783
218.4603	0.000832
218.6659	0.002312
218.8714	0.000620
219.0769	0.001720
219.2825	-0.000204
219.4881	0.001403
219.6936	0.000197
219.8992	0.001170
220.1049	-0.001304
220.3105	0.000663
220.5161	-0.000120
220.7218	0.000472
220.9275	0.000493
221.1332	0.000430
221.3389	0.000726
221.5446	0.000789
221.7503	-0.000733
221.9561	0.000874
222.1618	-0.000712
222.3676	-0.000797
222.5734	-0.001262
222.7792	-0.000839
222.9850	0.000219
223.1909	0.000874
223.3967	0.000515
223.6026	0.001847
223.8085	0.000303
224.0144	-0.000945
224.2203	0.000388
224.4262	0.000155
224.6322	-0.000754
224.8381	-0.000395
225.0441	0.002291
225.2501	-0.000585
225.4561	0.000493
225.6621	0.002079
225.8681	0.000092
226.0742	0.000980
226.2802	-0.000733
226.4863	-0.000775
226.6924	-0.000627
226.8985	0.001191
227.1046	-0.000352
227.3107	-0.000352
227.5169	-0.001452
227.7230	0.000113
227.9292	-0.000374
228.1354	0.000367
228.3416	0.000811
228.5478	0.001318
228.7541	0.000176
228.9603	0.000641
229.1666	-0.000078
229.3729	0.000557
229.5791	-0.001008
229.7855	-0.001114
229.9918	-0.001389
230.1981	-0.001600
230.4045	0.001826
230.6108	0.000092
230.8172	-0.000204
231.0236	0.000916
231.2300	-0.000543
231.4364	-0.001050
231.6429	0.000367
231.8493	0.001149
232.0558	-0.000310
232.2623	0.000641
232.4688	-0.001029
232.6753	-0.000754
232.8818	0.000176
233.0884	0.002439
233.2949	0.000176
233.5015	0.000747
233.7081	0.001593
233.9147	0.000282
234.1213	0.000578
234.3279	0.001297
234.5346	-0.000818
234.7413	0.001931
234.9479	-0.000374
235.1546	-0.001114
235.3613	-0.000670
235.5680	-0.000141
235.7748	0.001001
235.9815	0.002185
236.1883	-0.000268
236.3951	0.001910
236.6018	0.000388
236.8087	0.001276
237.0155	-0.000035
237.2223	0.000240
237.4292	-0.000585
237.6360	0.000070
237.8429	0.000049
238.0498	0.001551
238.2567	0.000684
238.4636	0.001149
238.6706	0.000028
238.8775	0.002270
239.0845	0.000070
239.2915	0.001910
239.4985	-0.000247
239.7055	0.001022
239.9125	0.000303
240.1195	0.000240
240.3266	0.000240
240.5337	0.000345
240.7407	0.001043
240.9478	0.001720
241.1549	-0.000014
241.3621	0.001466
241.5692	-0.000183
241.7764	0.000049
241.9835	0.000789
242.1907	0.001635
242.3979	-0.000670
242.6051	0.000895
242.8124	0.001149
243.0196	0.001339
243.2269	0.001022
243.4341	-0.002108
243.6414	-0.000627
243.8487	0.000747
244.0560	0.001889
244.2634	-0.000099
244.4707	0.000895
244.6781	0.001001
244.8854	0.001064
245.0928	-0.000522
245.3002	-0.000923
245.5076	0.000515
245.7151	-0.000902
245.9225	0.000832
246.1300	0.000515
246.3375	-0.000183
246.5449	-0.000035
246.7524	0.000980
246.9600	0.001572
247.1675	0.001530
247.3750	0.000028
247.5826	0.001805
247.7902	-0.001198
247.9978	0.002354
248.2054	-0.000945
248.4130	0.000388
248.6206	0.000472
248.8283	-0.000162
249.0359	0.001762
249.2436	0.001826
249.4513	-0.001304
249.6590	-0.000204
249.8667	0.000134
250.0745	0.000113
250.2822	0.001022
250.4900	-0.001241
250.6978	-0.000247
250.9056	-0.000839
251.1134	0.000684
251.3212	0.001699
251.5290	0.000007
251.7369	-0.001135
251.9447	-0.000839
252.1526	-0.000289
252.3605	-0.000289
252.5684	0.000430
252.7763	-0.000014
252.9843	0.000684
253.1922	0.000811
253.4002	-0.000437
253.6082	0.000620
253.8162	-0.001854
254.0242	0.000049
254.2322	0.000663
254.4402	-0.001198
254.6483	0.001022
254.8564	0.000409
255.0644	0.000134
255.2725	-0.000331
255.4806	-0.000437
255.6888	0.000049
255.8969	0.001086
256.1051	0.000620
256.3132	-0.000352
256.5214	0.000282
256.7296	0.000070
256.9378	-0.001579
257.1460	0.001339
257.3543	-0.001156
257.5625	-0.001135
257.7708	0.002312
257.9791	-0.001642
258.1874	0.000620
258.3957	0.000070
258.6040	0.000092
258.8124	0.001551
259.0207	-0.000099
259.2291	0.000515
259.4375	0.001318
259.6459	-0.000839
259.8543	-0.000585
260.0627	0.001466
260.2711	0.000028
260.4796	0.000938
260.6881	0.001212
260.8965	-0.000797
261.1050	0.001043
261.3135	-0.000226
261.5221	0.000726
261.7306	0.001107
261.9392	-0.000395
262.1477	0.000895
262.3563	0.000049
262.5649	-0.001642
262.7735	0.001360
262.9822	0.002270
263.1908	0.001001
263.3995	0.001699
263.6081	-0.000649
263.8168	-0.001198
264.0255	-0.000268
264.2342	0.000049
264.4429	0.000557
264.6517	0.000430
264.8604	0.001572
265.0692	0.000240
265.2780	-0.001156
265.4868	-0.000966
265.6956	-0.000120
265.9044	0.002925
266.1133	-0.001410
266.3221	0.000663
266.5310	0.001191
266.7399	0.000493
266.9488	0.001868
267.1577	-0.000099
267.3666	-0.001029
267.5755	-0.000310
267.7845	0.000028
267.9935	0.000641
268.2024	0.001487
268.4114	0.000938
268.6205	0.000663
268.8295	-0.000458
269.0385	0.000070
269.2476	0.001107
269.4566	0.002101
269.6657	0.000176
269.8748	0.001107
270.0839	0.001593
270.2931	-0.001008
270.5022	-0.000670
270.7114	0.000895
270.9205	0.000663
271.1297	-0.001029
271.3389	-0.000522
271.5481	-0.000712
271.7573	0.000938
271.9666	-0.000500
272.1758	0.000895
272.3851	0.000197
272.5944	0.001805
272.8037	-0.002129
273.0130	-0.000183
273.2223	0.000916
273.4316	0.000536
273.6410	0.000367
273.8504	0.000832
274.0597	-0.000733
274.2691	0.000451
274.4785	-0.001727
274.6880	-0.000479
274.8974	0.000092
275.1069	-0.000141
275.3163	-0.000035
275.5258	-0.001389
275.7353	-0.000226
275.9448	0.001487
276.1543	0.000789
276.3639	-0.000797
276.5734	0.001699
276.7830	0.000599
276.9926	-0.001071
277.2022	0.001086
277.4118	-0.000437
277.6214	-0.000712
277.8310	-0.001896
278.0407	0.000049
278.2503	-0.000458
278.4600	0.002376
278.6697	0.001783
278.8794	-0.000331
279.0891	-0.000395
279.2989	0.001234
279.5086	-0.001283
279.7184	-0.000204
279.9281	0.000113
280.1379	0.001805
280.3477	-0.000543
280.5576	0.000219
280.7674	-0.000162
280.9772	0.000832
281.1871	-0.001473
281.3970	-0.000331
281.6069	0.002249
281.8168	0.000388
282.0267	-0.000585
282.2366	-0.000035
282.4466	0.000789
282.6565	-0.000775
282.8665	-0.000945
283.0765	0.001107
283.2865	0.000747
283.4965	0.001445
283.7065	0.000388
283.9166	-0.000860
284.1266	0.000557
284.3367	-0.000374
284.5468	-0.000860
284.7569	-0.000500
284.9670	-0.000860
285.1771	0.001783
285.3873	0.000895
285.5974	0.000430
285.8076	0.000028
286.0178	0.001064
286.2280	-0.000437
286.4382	0.001720
286.6484	0.000176
286.8587	0.002291
287.0689	-0.000204
287.2792	0.003454
287.4895	0.000916
287.6998	0.000853
287.9101	0.000345
288.1204	0.001297
288.3308	-0.001114
288.5411	0.000747
288.7515	-0.001642
288.9619	0.000282
289.1723	0.000663
289.3827	0.001170
289.5931	0.000092
289.8035	-0.000268
290.0140	0.000493
290.2245	0.000430
290.4349	0.000726
290.6454	0.000641
290.8559	0.000472
291.0665	0.000176
291.2770	0.000092
291.4875	0.000705
291.6981	0.000282
291.9087	0.001826
292.1193	0.000916
292.3299	0.001318
292.5405	0.000832
292.7511	-0.000289
292.9618	0.000261
293.1724	0.001043
293.3831	0.000768
293.5938	-0.000966
293.8045	0.000219
294.0152	0.000874
294.2260	0.000303
294.4367	-0.000204
294.6475	-0.000797
294.8582	0.001191
295.0690	0.001107
295.2798	0.000832
295.4906	-0.000881
295.7015	-0.000352
295.9123	-0.000543
296.1232	0.000155
296.3340	0.000155
296.5449	-0.001431
296.7558	-0.000374
296.9667	0.000853
297.1777	-0.000204
297.3886	0.000684
297.5995	0.000959
297.8105	-0.000035
298.0215	0.001191
298.2325	-0.000310
298.4435	0.001191
298.6545	0.001212
298.8656	-0.001410
299.0766	0.000028
299.2877	-0.002235
299.4988	0.001974
299.7099	0.000811
299.9210	0.001699
300.1321	0.000409
300.3432	0.001234
300.5544	0.000219
300.7655	0.002439
300.9767	0.001551
301.1879	0.000240
301.3991	-0.001685
301.6103	0.000684
301.8215	0.000261
302.0328	0.001741
302.2441	-0.000183
302.4553	0.001910
302.6666	0.000155
302.8779	0.000303
303.0892	0.001001
303.3006	0.000578
303.5119	0.000007
303.7233	0.002122
303.9346	0.000916
304.1460	0.000641
304.3574	-0.000162
304.5688	0.000261
304.7803	-0.001769
304.9917	0.002228
305.2031	-0.000268
305.4146	0.000663
305.6261	-0.001621
305.8376	0.000303
306.0491	0.000197
306.2606	0.000430
306.4722	0.001910
306.6837	-0.001071
306.8953	-0.000289
307.1069	-0.000416
307.3184	-0.000775
307.5301	0.000557
307.7417	-0.003059
307.9533	-0.000543
308.1650	-0.000056
308.3766	0.002502
308.5883	0.000557
308.8000	0.001509
309.0117	0.001064
309.2234	0.000134
309.4351	-0.001008
309.6469	0.001255
309.8586	0.000832
310.0704	0.001318
310.2822	0.000388
310.4940	0.001043
310.7058	-0.000923
310.9176	0.000049
311.1295	0.001170
311.3413	0.001382
311.5532	-0.000775
311.7651	0.000853
311.9770	-0.001579
312.1889	0.001086
312.4008	-0.000860
312.6127	-0.001981
312.8247	-0.000374
313.0366	0.001720
313.2486	-0.000056
313.4606	-0.000078
313.6726	0.000557
313.8846	-0.000352
314.0967	-0.000712
314.3087	0.000028
314.5208	-0.000310
314.7328	-0.000500
314.9449	-0.001093
315.1570	0.000155
315.3692	0.000663
315.5813	0.000684
315.7934	-0.000627
316.0056	0.000536
316.2177	0.001424
316.4299	0.001064
316.6421	-0.000162
316.8543	-0.000458
317.0666	-0.000014
317.2788	0.000324
317.4911	-0.000627
317.7033	-0.000289
317.9156	0.000832
318.1279	0.001847
318.3402	-0.000606
318.5525	-0.001579
318.7649	-0.001304
318.9772	-0.000120
319.1896	-0.000543
319.4019	0.001614
319.6143	0.000557
319.8267	0.000599
320.0392	-0.001198
320.2516	-0.000374
320.4640	-0.001389
320.6765	-0.000331
320.8890	-0.000543
321.1014	-0.000606
321.3139	-0.000141
321.5265	0.000726
321.7390	0.001234
321.9515	0.000726
322.1641	-0.000099
322.3766	-0.000437
322.5892	0.000345
322.8018	-0.000014
323.0144	-0.000204
323.2270	0.001339
323.4397	-0.000247
323.6523	-0.001114
323.8650	0.000811
324.0777	0.001086
324.2904	0.000113
324.5031	0.000388
324.7158	-0.000289
324.9285	0.001255
325.1412	0.000515
325.3540	-0.000162
325.5668	-0.001156
325.7796	0.000515
325.9924	-0.000606
326.2052	0.000303
326.4180	-0.001262
326.6308	0.001339
326.8437	0.000726
327.0566	-0.001050
327.2694	-0.000204
327.4823	0.000028
327.6952	0.001741
327.9082	-0.000331
328.1211	0.000303
328.3340	-0.000649
328.5470	0.001043
328.7600	0.000092
328.9730	-0.000564
329.1860	0.001974
329.3990	0.001297
329.6120	0.000388
329.8251	-0.000712
330.0381	-0.000035
330.2512	-0.000733
330.4643	-0.001473
330.6774	-0.000374
330.8905	0.000303
331.1036	0.000303
331.3167	-0.000522
331.5299	0.000240
331.7431	-0.000120
331.9562	0.000747
332.1694	-0.000120
332.3826	-0.000797
332.5959	-0.000458
332.8091	0.002947
333.0223	0.000134
333.2356	-0.000374
333.4489	-0.000395
333.6622	0.000028
333.8755	-0.000627
334.0888	-0.001600
334.3021	0.000472
334.5154	0.000536
334.7288	0.002291
334.9422	-0.001008
335.1555	-0.001219
335.3689	0.002672
335.5823	0.001657
335.7958	0.000536
336.0092	0.001551
336.2227	-0.000775
336.4361	0.000303
336.6496	-0.000606
336.8631	0.000324
337.0766	-0.000733
337.2901	0.000493
337.5036	0.000176
337.7172	-0.000204
337.9307	-0.001198
338.1443	-0.000310
338.3579	0.000028
338.5715	0.001128
338.7851	-0.000352
338.9987	0.001191
339.2124	-0.002404
339.4260	-0.001071
339.6397	-0.000289
339.8533	0.000747
340.0670	-0.000437
340.2807	0.000853
340.4945	0.001297
340.7082	0.000134
340.9219	0.000853
341.1357	0.001297
341.3495	-0.000945
341.5633	0.001170
341.7771	0.000515
341.9909	0.002439
342.2047	-0.000416
342.4185	-0.000374
342.6324	0.002418
342.8463	0.000028
343.0601	0.001043
343.2740	0.001826
343.4879	-0.000204
343.7019	0.000388
343.9158	0.000324
344.1297	-0.000670
344.3437	0.000282
344.5577	-0.000183
344.7717	-0.000395
344.9857	0.000684
345.1997	0.001255
345.4137	0.002312
345.6277	-0.000585
345.8418	-0.000099
346.0559	0.001424
346.2699	0.001128
346.4840	-0.001241
346.6981	0.000959
346.9123	0.001487
347.1264	0.001699
347.3406	0.000451
347.5547	0.003454
347.7689	-0.000204
347.9831	0.000028
348.1973	0.001318
348.4115	0.000980
348.6257	-0.000289
348.8400	0.001551
349.0542	0.000811
349.2685	0.000324
349.4828	0.000874
349.6971	0.000916
349.9114	-0.000923
350.1257	-0.000416
350.3400	0.001910
350.5544	0.001868
350.7687	0.000599
350.9831	0.000959
351.1975	0.000070
351.4119	-0.000458
351.6263	0.000536
351.8407	0.000282
352.0552	-0.000627
352.2696	0.000493
352.4841	0.000726
352.6986	0.001551
352.9131	0.000895
353.1276	-0.000754
353.3421	-0.000035
353.5566	0.000811
353.7712	0.000219
353.9858	0.002333
354.2003	0.000959
354.4149	-0.001008
354.6295	-0.001093
354.8441	0.001212
355.0588	0.001805
355.2734	0.000536
355.4881	0.000388
355.7027	-0.000099
355.9174	-0.000987
356.1321	-0.001896
356.3468	0.000620
356.5615	0.000197
356.7763	-0.000416
356.9910	-0.000352
357.2058	-0.000416
357.4206	0.002016
357.6353	-0.000522
357.8501	0.000134
358.0650	-0.000479
358.2798	0.000176
358.4946	0.001043
358.7095	0.001487
358.9243	0.000599
359.1392	0.000515
359.3541	-0.000141
359.5690	0.001107
359.7839	0.000282
359.9989	0.001678
360.2138	0.000176
360.4288	-0.000183
360.6438	-0.000120
360.8587	0.000303
361.0737	-0.000204
361.2888	0.001107
361.5038	0.000874
361.7188	-0.000035
361.9339	-0.000902
362.1489	-0.000078
362.3640	-0.000226
362.5791	0.001318
362.7942	-0.000754
363.0093	0.000430
363.2245	0.000176
363.4396	0.001107
363.6548	-0.001219
363.8699	0.000240
364.0851	0.000641
364.3003	0.001847
364.5155	-0.001431
364.7308	-0.000289
364.9460	-0.000649
365.1612	-0.002065
365.3765	-0.000014
365.5918	-0.000247
365.8071	-0.002108
366.0224	0.000832
366.2377	-0.000522
366.4530	-0.000606
366.6684	-0.001050
366.8837	0.001212
367.0991	-0.000120
367.3145	0.001360
367.5299	-0.001050
367.7453	0.000472
367.9607	-0.001346
368.1761	-0.000056
368.3916	0.000430
368.6070	0.001487
368.8225	-0.001410
369.0380	-0.000691
369.2535	0.000472
369.4690	0.001022
369.6845	0.000240
369.9001	0.001487
370.1156	-0.000352
370.3312	-0.000204
370.5468	-0.000120
370.7624	0.001847
370.9780	-0.000691
371.1936	0.001783
371.4092	-0.000374
371.6249	0.000303
371.8405	0.001720
372.0562	-0.001558
372.2719	-0.001579
372.4876	0.000663
372.7033	-0.001198
372.9190	0.000620
373.1348	-0.000543
373.3505	0.001635
373.5663	0.000219
373.7820	0.000303
373.9978	-0.000374
374.2136	0.001424
374.4294	0.000070
374.6453	-0.000204
374.8611	-0.000818
375.0770	0.001678
375.2928	-0.000775
375.5087	-0.000183
375.7246	0.000028
375.9405	-0.000797
376.1564	0.001847
376.3724	0.000493
376.5883	-0.000056
376.8043	-0.000818
377.0203	-0.000310
377.2362	-0.000162
377.4522	0.001678
377.6682	0.000367
377.8843	0.001699
378.1003	0.000768
378.3164	-0.000289
378.5324	-0.000437
378.7485	0.001086
378.9646	0.000451
379.1807	-0.000374
379.3968	0.000070
379.6129	0.000599
379.8291	-0.000035
380.0452	-0.000860
380.2614	0.000007
380.4776	-0.001304
380.6938	0.001064
380.9100	0.001868
381.1262	0.000874
381.3424	-0.000522
381.5587	0.001762
381.7749	-0.000564
381.9912	0.001762
382.2075	0.001276
382.4238	0.000663
382.6401	-0.001325
382.8564	-0.000289
383.0728	0.001191
383.2891	0.001318
383.5055	0.000092
383.7219	0.000599
383.9382	-0.001346
384.1546	0.001255
384.3711	-0.000945
384.5875	-0.001114
384.8039	-0.000120
385.0204	-0.001452
385.2368	0.000938
385.4533	0.000240
385.6698	-0.000966
385.8863	0.000726
386.1028	-0.001029
386.3194	0.000197
386.5359	-0.000458
386.7525	-0.000670
386.9690	0.000895
387.1856	0.000747
387.4022	0.000261
387.6188	0.000282
387.8355	-0.000437
388.0521	-0.001114
388.2687	-0.000289
388.4854	-0.000120
388.7021	-0.000331
388.9188	0.000768
389.1355	0.000768
389.3522	0.001762
389.5689	0.000684
389.7856	-0.001198
390.0024	0.000197
390.2192	0.000789
390.4359	-0.001346
390.6527	0.000282
390.8695	0.000768
391.0863	-0.001008
391.3032	-0.001516
391.5200	-0.001114
391.7369	0.000219
391.9537	0.001191
392.1706	0.000536
392.3875	0.001382
392.6044	-0.000479
392.8213	0.000747
393.0383	-0.001642
393.2552	-0.000733
393.4722	-0.000437
393.6891	0.000557
393.9061	-0.000923
394.1231	-0.000014
394.3401	-0.000945
394.5572	-0.001642
394.7742	0.001212
394.9912	0.000599
395.2083	0.000176
395.4254	-0.000775
395.6425	-0.000395
395.8596	0.001212
396.0767	-0.000691
396.2938	0.001360
396.5109	-0.000141
396.7281	-0.000289
396.9453	-0.000289
397.1624	0.001445
397.3796	-0.001727
397.5968	-0.000649
397.8140	0.000219
398.0313	0.000240
398.2485	0.001191
398.4658	0.000219
398.6830	0.000578
398.9003	-0.001008
399.1176	-0.001156
399.3349	0.000726
399.5522	0.001741
399.7696	0.000705
399.9869	-0.000352
400.2043	0.001022
400.4216	0.000536
400.6390	-0.000522
400.8564	0.000070
401.0738	-0.001135
401.2912	-0.000923
401.5087	0.000070
401.7261	-0.000881
401.9436	0.000599
402.1610	-0.000437
402.3785	0.000726
402.5960	0.000663
402.8135	-0.000099
403.0310	-0.000585
403.2486	-0.000627
403.4661	-0.000289
403.6837	0.001953
403.9013	0.000113
404.1189	0.000324
404.3365	-0.000247
404.5541	0.001107
404.7717	-0.000543
404.9893	-0.000141
405.2070	-0.000099
405.4246	-0.000204
405.6423	0.000811
405.8600	0.000472
406.0777	-0.001981
406.2954	-0.001685
406.5131	0.000028
406.7309	0.000219
406.9486	-0.000120
407.1664	-0.000226
407.3842	0.001509
407.6020	-0.000416
407.8198	-0.000247
408.0376	0.000430
408.2554	0.000303
408.4733	0.001086
408.6911	-0.000014
408.9090	-0.000268
409.1269	0.000493
409.3448	-0.000500
409.5627	-0.000035
409.7806	0.000536
409.9985	-0.000902
410.2165	0.000176
410.4344	0.000641
410.6524	-0.000416
410.8704	0.000472
411.0884	-0.000670
411.3064	0.000599
411.5244	0.001487
411.7424	0.000472
411.9605	0.001953
412.1785	-0.000226
412.3966	0.001678
412.6147	-0.000585
412.8328	0.000832
413.0509	0.001530
413.2690	-0.000247
413.4871	-0.000670
413.7053	-0.001494
413.9234	0.001403
414.1416	-0.000522
414.3598	0.000515
414.5780	-0.000162
414.7962	0.000197
415.0144	0.000367
415.2326	0.000684
415.4509	-0.000606
415.6692	0.000409
415.8874	0.001064
416.1057	0.000261
416.3240	-0.001177
416.5423	-0.000035
416.7606	-0.001219
416.9790	-0.000627
417.1973	0.001107
417.4157	-0.000670
417.6341	0.000070
417.8524	-0.000247
418.0708	-0.000099
418.2893	0.001720
418.5077	0.000895
418.7261	0.001657
418.9446	-0.001664
419.1630	0.000388
419.3815	-0.000564
419.6000	0.000240
419.8185	-0.000606
420.0370	-0.001093
420.2555	0.000515
420.4741	0.001191
420.6926	-0.000352
420.9112	0.000768
421.1298	-0.001008
421.3483	0.000409
421.5669	0.000557
421.7856	-0.000289
422.0042	-0.000966
422.2228	0.000240
422.4415	0.000345
422.6601	0.000959
422.8788	-0.001960
423.0975	0.000493
423.3162	-0.001410
423.5349	-0.000818
423.7536	-0.000352
423.9724	-0.000987
424.1911	-0.000289
424.4099	0.002460
424.6287	-0.000712
424.8475	0.001699
425.0663	-0.001283
425.2851	0.002079
425.5039	0.006330
425.7228	0.002101
425.9416	0.001043
426.1605	-0.001558
426.3793	-0.000247
426.5982	-0.000416
426.8171	0.000789
427.0361	-0.001114
427.2550	-0.000627
427.4739	0.000916
427.6929	0.000557
427.9118	0.000515
428.1308	0.001022
428.3498	-0.001093
428.5688	-0.000754
428.7878	0.000409
429.0068	0.000472
429.2259	0.000472
429.4449	-0.000923
429.6640	-0.000204
429.8831	-0.000543
430.1022	-0.000522
430.3213	-0.000966
430.5404	0.000515
430.7595	0.001234
430.9787	0.000303
431.1978	-0.000289
431.4170	-0.000183
431.6362	0.000472
431.8553	0.000663
432.0745	-0.000395
432.2938	-0.000437
432.5130	0.000176
432.7322	-0.000818
432.9515	0.000789
433.1707	0.002439
433.3900	0.002037
433.6093	0.001128
433.8286	-0.000881
434.0479	0.001297
434.2673	0.000811
434.4866	-0.000754
434.7059	-0.000923
434.9253	0.000874
435.1447	-0.000564
435.3641	0.000874
435.5835	-0.000522
435.8029	0.003771
436.0223	-0.001410
436.2418	0.000515
436.4612	0.000409
436.6807	0.001551
436.9001	-0.000775
437.1196	-0.000141
437.3391	0.000789
437.5586	0.002333
437.7782	-0.000099
437.9977	0.001466
438.2173	0.000472
438.4368	0.000113
438.6564	-0.001642
438.8760	0.000493
439.0956	0.000345
439.3152	-0.000352
439.5348	0.001191
439.7545	0.001445
439.9741	0.000240
440.1938	0.001149
440.4135	0.000261
440.6331	0.002502
440.8528	0.001551
441.0725	0.000007
441.2923	0.001212
441.5120	0.001107
441.7318	0.000853
441.9515	0.001424
442.1713	-0.000458
442.3911	-0.000860
442.6109	-0.000310
442.8307	-0.000945
443.0505	0.000219
443.2703	0.001276
443.4902	-0.001537
443.7101	0.000472
443.9299	-0.001114
444.1498	-0.000099
444.3697	0.001276
444.5896	-0.000247
444.8095	-0.000120
445.0295	0.000155
445.2494	-0.000183
445.4694	0.000916
445.6894	-0.000162
445.9093	-0.000395
446.1293	0.001128
446.3493	0.002756
446.5694	0.000493
446.7894	-0.000543
447.0094	-0.000923
447.2295	0.001445
447.4496	0.000261
447.6696	0.000134
447.8897	-0.000564
448.1098	0.001128
448.3300	-0.000564
448.5501	0.000388
448.7702	0.002185
448.9904	-0.000754
449.2106	-0.001241
449.4307	0.001086
449.6509	-0.000437
449.8711	0.000007
450.0914	0.000282
450.3116	0.001191
450.5318	0.000409
450.7521	0.000007
450.9724	0.000240
451.1926	-0.000289
451.4129	0.000261
451.6332	0.000155
451.8535	-0.001304
452.0739	0.000705
452.2942	-0.000352
452.5146	0.000282
452.7349	-0.001642
452.9553	0.002122
453.1757	0.001149
453.3961	0.000007
453.6165	0.000620
453.8369	-0.000331
454.0574	0.000049
454.2778	0.000155
454.4983	-0.001114
454.7188	0.000261
454.9393	-0.000352
455.1597	0.001107
455.3803	-0.000374
455.6008	-0.000627
455.8213	-0.000543
456.0419	-0.000120
456.2624	0.000409
456.4830	0.001699
456.7036	-0.000099
456.9242	0.001128
457.1448	-0.000331
457.3654	-0.000014
457.5860	0.001572
457.8067	0.000768
458.0274	0.000134
458.2480	0.000409
458.4687	0.000705
458.6894	-0.001600
458.9101	-0.000289
459.1308	0.001212
459.3516	0.000536
459.5723	0.001022
459.7931	-0.000374
460.0138	0.000282
460.2346	-0.000923
460.4554	-0.001219
460.6762	0.000430
460.8970	-0.000712
461.1178	0.000705
461.3387	-0.000268
461.5595	-0.000416
461.7804	0.000472
462.0013	0.000472
462.2222	0.000684
462.4431	0.000409
462.6640	0.001086
462.8849	0.001741
463.1059	0.000240
463.3268	-0.000141
463.5478	-0.001600
463.7687	-0.000120
463.9897	-0.000754
464.2107	-0.001600
464.4317	-0.000564
464.6528	0.001403
464.8738	-0.000056
465.0948	-0.001219
465.3159	0.000007
465.5370	0.000367
465.7581	-0.001029
465.9792	0.001551
466.2003	-0.001114
466.4214	0.001783
466.6425	-0.000437
466.8637	0.000853
467.0848	-0.000923
467.3060	0.000388
467.5272	0.001593
467.7484	-0.000585
467.9696	-0.000162
468.1908	-0.000374
468.4120	0.000472
468.6333	0.001530
468.8545	-0.000247
469.0758	-0.000014
469.2970	-0.000797
469.5183	-0.000014
469.7396	0.000874
469.9610	0.001234
470.1823	-0.000226
470.4036	-0.000543
470.6250	0.000409
470.8463	-0.000183
471.0677	0.000049
471.2891	0.000240
471.5105	0.000113
471.7319	0.001212
471.9533	-0.001346
472.1748	-0.000183
472.3962	0.000980
472.6177	-0.002108
472.8391	-0.001769
473.0606	0.000641
473.2821	0.001128
473.5036	0.000620
473.7251	0.001022
473.9467	0.000176
474.1682	-0.000437
474.3898	0.000768
474.6113	-0.001304
474.8329	0.000007
475.0545	0.000938
475.2761	0.000515
475.4977	-0.000289
475.7193	0.000409
475.9410	-0.001727
476.1626	0.001678
476.3843	0.001424
476.6060	0.000197
476.8277	0.000747
477.0494	-0.000754
477.2711	0.006309
477.4928	0.001360
477.7145	0.000261
477.9363	-0.000543
478.1580	-0.002573
478.3798	-0.000923
478.6016	-0.000627
478.8234	-0.000479
479.0452	-0.001473
479.2670	-0.000120
479.4888	0.000007
479.7107	-0.000543
479.9325	-0.000627
480.1544	0.000641
480.3763	0.000155
480.5982	0.000768
480.8201	0.001445
481.0420	0.000768
481.2639	0.001043
481.4859	-0.000670
481.7078	0.000747
481.9298	0.001593
482.1517	-0.000712
482.3737	0.001001
482.5957	-0.000987
482.8177	-0.001939
483.0398	0.000134
483.2618	-0.000627
483.4838	-0.000437
483.7059	0.001445
483.9280	0.001234
484.1501	0.000747
484.3721	0.001064
484.5943	0.001445
484.8164	0.000282
485.0385	-0.001389
485.2606	-0.001368
485.4828	0.001170
485.7050	0.001001
485.9271	0.000663
486.1493	-0.000162
486.3715	0.000493
486.5937	0.000219
486.8160	0.000197
487.0382	0.000176
487.2605	0.000663
487.4827	0.001530
487.7050	0.000874
487.9273	-0.000775
488.1496	-0.001029
488.3719	-0.001241
488.5942	0.000832
488.8165	0.000515
489.0389	0.001064
489.2612	-0.000500
489.4836	0.000493
489.7060	-0.001135
489.9284	0.001170
490.1508	-0.001029
490.3732	0.000472
490.5956	0.000599
490.8180	-0.000331
491.0405	0.000663
491.2630	0.000536
491.4854	-0.000733
491.7079	0.000472
491.9304	-0.000226
492.1529	0.001487
492.3755	0.000113
492.5980	-0.000585
492.8205	-0.001135
493.0431	0.000345
493.2657	0.000663
493.4882	0.000557
493.7108	-0.000923
493.9334	0.000092
494.1561	-0.000881
494.3787	0.001191
494.6013	-0.000289
494.8240	-0.000141
495.0466	0.000345
495.2693	0.001424
495.4920	-0.000458
495.7147	0.000367
495.9374	-0.000395
496.1601	-0.000500
496.3829	-0.001748
496.6056	0.000176
496.8284	-0.000120
497.0511	-0.000056
497.2739	0.000663
497.4967	-0.000099
497.7195	0.001678
497.9423	0.001360
498.1652	-0.001135
498.3880	-0.000352
498.6109	-0.000056
498.8337	0.000345
499.0566	-0.000331
499.2795	-0.000289
499.5024	-0.000141
499.7253	0.000768
499.9482	0.000240
500.1712	0.000980
500.3941	-0.000183
500.6171	0.001783
500.8400	0.000938
501.0630	-0.000860
501.2860	-0.000035
501.5090	0.001445
501.7320	-0.000014
501.9551	0.000345
502.1781	0.000176
502.4012	0.001064
502.6242	-0.000014
502.8473	-0.000860
503.0704	0.000557
503.2935	0.000938
503.5166	-0.000141
503.7397	0.000599
503.9628	-0.000775
504.1860	-0.000670
504.4092	-0.001769
504.6323	0.001149
504.8555	0.000261
505.0787	-0.000268
505.3019	-0.000522
505.5251	-0.000352
505.7483	0.001783
505.9716	0.000007
506.1948	0.000789
506.4181	0.000599
506.6414	0.001530
506.8647	0.000155
507.0880	0.001678
507.3113	0.000895
507.5346	-0.002171
507.7579	0.000430
507.9813	-0.000458
508.2046	0.000811
508.4280	-0.000056
508.6514	-0.000056
508.8748	0.000049
509.0982	0.000916
509.3216	0.000938
509.5450	0.000028
509.7685	0.000176
509.9919	-0.000627
510.2154	-0.000099
510.4388	-0.001452
510.6623	0.000134
510.8858	0.000240
511.1093	0.001276
511.3329	-0.000818
511.5564	-0.000078
511.7799	-0.001600
512.0035	0.002354
512.2270	0.000134
512.4506	-0.001917
512.6742	-0.000797
512.8978	-0.000247
513.1214	0.000620
513.3451	-0.000818
513.5687	-0.000754
513.7923	0.000049
514.0160	0.000747
514.2397	-0.000099
514.4634	0.000240
514.6871	0.000747
514.9108	0.000282
515.1345	-0.000014
515.3582	0.000515
515.5819	0.001466
515.8057	-0.001008
516.0295	0.001741
516.2532	-0.000416
516.4770	-0.000670
516.7008	0.000028
516.9246	-0.000458
517.1485	0.000938
517.3723	-0.000712
517.5961	0.000409
517.8200	-0.000775
518.0439	0.001107
518.2677	-0.001875
518.4916	0.000768
518.7155	0.002270
518.9395	0.000515
519.1634	-0.001452
519.3873	0.001128
519.6113	-0.000078
519.8352	0.000324
520.0592	0.000747
520.2832	-0.000183
520.5072	0.000916
520.7312	0.001318
520.9552	0.000409
521.1792	0.001022
521.4033	0.001805
521.6273	0.001657
521.8514	0.000726
522.0755	0.000197
522.2996	0.000367
522.5237	-0.000923
522.7478	-0.001050
522.9719	-0.001262
523.1960	0.001762
523.4202	-0.000754
523.6443	-0.001854
523.8685	0.000070
524.0927	-0.000374
524.3169	-0.001050
524.5411	-0.001177
524.7653	-0.000395
524.9895	0.001043
525.2138	0.000430
525.4380	-0.000585
525.6623	-0.000437
525.8865	0.001212
526.1108	-0.001071
526.3351	-0.000606
526.5594	0.000282
526.7837	0.000980
527.0081	0.000049
527.2324	-0.000564
527.4568	-0.000712
527.6811	-0.000754
527.9055	-0.000035
528.1299	-0.000902
528.3543	-0.000268
528.5787	0.001720
528.8031	0.000134
529.0276	0.001022
529.2520	-0.000162
529.4765	0.000811
529.7009	0.000451
529.9254	0.001022
530.1499	0.001720
530.3744	-0.000183
530.5989	-0.000881
530.8234	0.000684
531.0480	0.000832
531.2725	0.000620
531.4971	0.000620
531.7217	0.000113
531.9462	-0.000881
532.1708	-0.000522
532.3954	-0.002446
532.6200	0.000726
532.8447	0.000219
533.0693	-0.001600
533.2940	-0.001642
533.5186	0.000430
533.7433	0.000155
533.9680	0.000916
534.1927	-0.000310
534.4174	-0.000014
534.6421	-0.000078
534.8668	-0.001833
535.0916	0.001128
535.3163	0.001128
535.5411	-0.001748
535.7659	-0.000860
535.9907	0.000493
536.2155	0.000747
536.4403	-0.000818
536.6651	-0.000141
536.8899	0.000536
537.1148	0.002481
537.3396	-0.000775
537.5645	0.000768
537.7894	-0.000606
538.0143	-0.001516
538.2392	-0.000902
538.4641	0.000895
538.6890	-0.000120
538.9139	0.000240
539.1389	-0.000162
539.3638	-0.000183
539.5888	-0.000014
539.8138	-0.000543
540.0388	0.000197
540.2638	-0.000352
540.4888	0.001635
540.7138	0.002206
540.9389	-0.000627
541.1639	0.000472
541.3890	-0.001029
541.6140	0.000113
541.8391	-0.000374
542.0642	0.001403
542.2893	0.000832
542.5144	0.001424
542.7396	0.000303
542.9647	-0.000395
543.1899	0.000430
543.4150	-0.002065
543.6402	0.001064
543.8654	0.001974
544.0906	-0.000437
544.3158	-0.000923
544.5410	-0.001621
544.7662	-0.002806
544.9915	0.001022
545.2167	0.001128
545.4420	0.001107
545.6673	0.000768
545.8926	0.000493
546.1179	-0.000183
546.3432	-0.000458
546.5685	-0.000141
546.7938	-0.000204
547.0192	0.000028
547.2445	-0.000035
547.4699	0.001001
547.6953	0.000895
547.9206	-0.000691
548.1460	-0.001135
548.3715	-0.000056
548.5969	0.000663
548.8223	-0.000374
549.0478	-0.000733
549.2732	0.000726
549.4987	-0.000712
549.7242	-0.000923
549.9496	-0.000670
550.1751	0.000620
550.4007	-0.000120
550.6262	-0.001727
550.8517	-0.000839
551.0773	0.000113
551.3028	0.001043
551.5284	0.002947
551.7540	-0.000014
551.9796	-0.000775
552.2052	-0.000987
552.4308	-0.000035
552.6564	-0.001071
552.8820	0.000747
553.1077	0.000219
553.3333	-0.000120
553.5590	0.001339
553.7847	0.001149
554.0104	-0.000141
554.2361	0.001699
554.4618	0.000028
554.6875	-0.001008
554.9132	0.001191
555.1390	-0.000691
555.3648	-0.001854
555.5905	0.000028
555.8163	0.001191
556.0421	0.000493
556.2679	-0.000014
556.4937	0.000620
556.7195	-0.001283
556.9454	-0.000543
557.1712	0.000176
557.3971	-0.001981
557.6230	0.003116
557.8488	0.000007
558.0747	-0.000331
558.3006	-0.001050
558.5266	0.001001
558.7525	0.000620
558.9784	0.000641
559.2044	0.000811
559.4303	0.000028
559.6563	0.000155
559.8823	-0.001114
560.1083	0.000705
560.3343	-0.000374
560.5603	0.000324
560.7863	0.000747
561.0124	-0.000162
561.2384	-0.001304
561.4645	-0.000500
561.6905	-0.001093
561.9166	0.001234
562.1427	-0.000374
562.3688	0.001128
562.5949	0.001614
562.8211	0.000726
563.0472	0.001128
563.2733	0.000747
563.4995	-0.001473
563.7257	-0.000374
563.9519	-0.000099
564.1781	0.001445
564.4043	0.001001
564.6305	0.000388
564.8567	-0.000627
565.0829	0.000557
565.3092	0.000895
565.5355	0.000684
565.7617	-0.001198
565.9880	0.000367
566.2143	-0.000204
566.4406	0.002206
566.6669	-0.000437
566.8932	0.001360
567.1196	-0.000775
567.3459	0.000324
567.5723	0.000726
567.7987	0.001424
568.0250	-0.000966
568.2514	-0.000162
568.4778	-0.001050
568.7043	0.000959
568.9307	0.000938
569.1571	0.001255
569.3836	0.000324
569.6100	-0.000374
569.8365	0.000578
570.0630	0.001826
570.2895	0.000747
570.5160	0.000155
570.7425	-0.001410
570.9690	-0.000416
571.1956	0.000768
571.4221	0.001360
571.6487	0.000536
571.8752	0.001128
572.1018	-0.000268
572.3284	-0.001219
572.5550	-0.000078
572.7816	0.000705
573.0082	0.000007
573.2349	0.000240
573.4615	-0.001981
573.6882	0.001403
573.9149	0.000515
574.1415	-0.001685
574.3682	-0.001029
574.5949	0.000007
574.8216	-0.001114
575.0484	0.000895
575.2751	-0.000226
575.5018	0.000980
575.7286	0.000219
575.9554	0.000049
576.1821	0.001783
576.4089	-0.000649
576.6357	0.000176
576.8626	-0.001304
577.0894	0.000747
577.3162	-0.000500
577.5431	-0.000754
577.7699	0.000472
577.9968	0.000493
578.2237	0.000768
578.4505	0.002291
578.6774	0.000176
578.9044	0.000303
579.1313	-0.001917
579.3582	0.001001
579.5851	0.000282
579.8121	0.000367
580.0391	-0.001198
580.2660	-0.000522
580.4930	-0.001177
580.7200	-0.001769
580.9470	0.001107
581.1741	0.001403
581.4011	-0.001093
581.6281	0.000895
581.8552	0.000853
582.0822	0.000155
582.3093	-0.000120
582.5364	0.000049
582.7635	-0.000754
582.9906	-0.000141
583.2177	0.001889
583.4449	0.000388
583.6720	0.001022
583.8991	-0.000712
584.1263	0.001720
584.3535	0.000176
584.5807	-0.000374
584.8079	-0.000691
585.0351	-0.000881
585.2623	-0.000543
585.4895	0.000134
585.7167	0.001086
585.9440	-0.001050
586.1713	-0.000014
586.3985	0.000282
586.6258	-0.001029
586.8531	0.000345
587.0804	0.001360
587.3077	0.000197
587.5350	0.000620
587.7624	0.000557
587.9897	0.000684
588.2171	0.000028
588.4445	-0.000712
588.6718	-0.000331
588.8992	0.000070
589.1266	0.000409
589.3540	-0.000374
589.5815	0.002185
589.8089	0.000768
590.0363	0.001107
590.2638	-0.000120
590.4913	0.001107
590.7187	0.000388
590.9462	0.001276
591.1737	-0.000183
591.4012	0.000705
591.6288	0.001403
591.8563	-0.000606
592.0838	-0.000902
592.3114	0.000916
592.5389	0.001509
592.7665	-0.001664
592.9941	-0.001050
593.2217	-0.001642
593.4493	-0.000649
593.6769	-0.000500
593.9046	-0.000162
594.1322	-0.000331
594.3598	-0.000564
594.5875	-0.001494
594.8152	0.000113
595.0429	-0.001452
595.2705	-0.000162
595.4983	-0.002044
595.7260	-0.001114
595.9537	0.000028
596.1814	0.000007
596.4092	0.000959
596.6369	0.001043
596.8647	-0.001093
597.0925	0.000070
597.3203	-0.000056
597.5481	0.000684
597.7759	0.000092
598.0037	-0.000268
598.2315	-0.000183
598.4594	0.000007
598.6872	-0.000839
598.9151	-0.000268
599.1430	-0.000733
599.3709	-0.000691
599.5988	0.000113
599.8267	-0.000247
600.0546	-0.001177
600.2825	0.000261
600.5105	-0.000183
600.7384	-0.001029
600.9664	-0.000479
601.1944	-0.000606
601.4223	0.001678
601.6503	0.002101
601.8783	0.000832
602.1064	0.001022
602.3344	0.000303
602.5624	-0.000670
602.7905	0.001509
603.0185	-0.000543
603.2466	-0.001029
603.4747	-0.000712
603.7028	0.001572
603.9309	0.000155
604.1590	-0.001071
604.3871	-0.000754
604.6152	-0.000352
604.8434	-0.000331
605.0715	-0.001642
605.2997	0.000176
605.5279	-0.001727
605.7561	0.000324
605.9843	0.000578
606.2125	-0.001135
606.4407	-0.000458
606.6689	-0.000670
606.8972	-0.000268
607.1254	-0.000247
607.3537	0.000303
607.5819	0.001805
607.8102	-0.001219
608.0385	-0.000331
608.2668	0.000240
608.4951	0.001297
608.7235	0.001107
608.9518	-0.000099
609.1801	-0.001917
609.4085	0.000134
609.6369	-0.000120
609.8653	0.000155
610.0936	-0.000945
610.3220	-0.000014
610.5505	-0.000712
610.7789	0.000303
611.0073	-0.001368
611.2357	-0.000966
611.4642	0.000472
611.6927	0.000515
611.9211	0.000895
612.1496	0.001403
612.3781	-0.000818
612.6066	0.000388
612.8351	0.001191
613.0637	0.000451
613.2922	-0.001769
613.5208	0.002228
613.7493	-0.000437
613.9779	0.000409
614.2065	-0.000839
614.4351	-0.000543
614.6637	0.000219
614.8923	0.001086
615.1209	0.000092
615.3495	0.000345
615.5782	-0.000902
615.8068	0.002735
616.0355	-0.001939
616.2642	0.000092
616.4929	0.000409
616.7216	-0.000733
616.9503	0.000705
617.1790	-0.000310
617.4077	-0.000056
617.6365	-0.001452
617.8652	0.000113
618.0940	0.001487
618.3227	-0.000289
618.5515	-0.000014
618.7803	-0.001685
619.0091	0.001297
619.2379	-0.001452
619.4667	-0.000183
619.6956	-0.002742
619.9244	0.000197
620.1533	0.002566
620.3821	0.000726
620.6110	0.000789
620.8399	0.000789
621.0688	0.000049
621.2977	0.000557
621.5266	0.001509
621.7556	0.000747
621.9845	-0.000543
622.2135	0.001297
622.4424	-0.001917
622.6714	-0.000331
622.9004	0.001234
623.1294	0.002016
623.3584	-0.000775
623.5874	0.001487
623.8164	0.000113
624.0454	0.000049
624.2745	-0.000014
624.5035	-0.000585
624.7326	0.000219
624.9617	0.000282
625.1908	-0.002129
625.4199	-0.001114
625.6490	-0.000331
625.8781	0.001614
626.1072	-0.000987
626.3364	0.000155
626.5655	0.000028
626.7947	0.000832
627.0238	-0.000183
627.2530	0.000895
627.4822	0.001170
627.7114	-0.000522
627.9406	0.000578
628.1698	-0.000543
628.3991	-0.001198
628.6283	0.001868
628.8576	-0.000374
629.0868	0.000451
629.3161	-0.000966
629.5454	0.000959
629.7747	0.001001
630.0040	0.000493
630.2333	0.001191
630.4626	-0.001558
630.6920	-0.000945
630.9213	-0.000543
631.1507	-0.000606
631.3801	0.000832
631.6094	-0.000543
631.8388	-0.000183
632.0682	-0.002488
632.2976	0.000853
632.5271	-0.001198
632.7565	-0.000543
632.9859	-0.000775
633.2154	0.000895
633.4448	0.000388
633.6743	0.000874
633.9038	-0.000500
634.1333	0.000726
634.3628	0.000240
634.5923	0.001107
634.8218	0.000219
635.0514	0.000049
635.2809	-0.000035
635.5105	0.002925
635.7400	-0.001896
635.9696	-0.000056
636.1992	0.001086
636.4288	0.000303
636.6584	0.002502
636.8880	-0.000818
637.1177	0.000388
637.3473	0.001212
637.5770	0.000959
637.8066	-0.000120
638.0363	-0.000247
638.2660	0.000113
638.4957	0.000472
638.7254	0.000219
638.9551	-0.001135
639.1848	0.000726
639.4145	0.001678
639.6443	0.000028
639.8740	0.001328
640.1038	0.000558
640.3336	-0.000380
640.5633	-0.000185
640.7931	-0.000014
641.0229	-0.000077
641.2528	0.002231
641.4826	0.000071
641.7124	-0.001100
641.9423	-0.000248
642.1721	0.000711
642.4020	0.000560
642.6319	-0.000985
642.8617	-0.000120
643.0916	0.000113
643.3216	0.000894
643.5515	-0.000059
643.7814	-0.000954
644.0113	0.001150
644.2413	-0.002228
644.4712	0.000298
644.7012	-0.001379
644.9312	0.001414
645.1612	0.000749
645.3912	-0.000015
645.6212	0.001010
645.8512	0.000615
646.0812	-0.001555
646.3113	-0.000283
646.5413	-0.002412
646.7714	0.001477
647.0015	-0.000260
647.2316	-0.002521
647.4616	0.000452
647.6918	0.000030
647.9219	-0.000480
648.1520	0.000513
648.3821	0.000293
648.6123	0.001042
648.8424	0.001688
649.0726	0.001088
649.3028	0.000116
649.5329	-0.002351
649.7631	-0.000741
649.9933	-0.000057
650.2236	0.000049
650.4538	0.000723
650.6840	-0.001520
650.9143	-0.000419
651.1445	0.000199
651.3748	-0.000463
651.6051	-0.001224
651.8354	-0.000504
652.0657	0.001837
652.2960	0.001024
652.5263	-0.000935
652.7566	0.000007
652.9870	0.000968
653.2173	-0.001914
653.4477	-0.001101
653.6780	0.000523
653.9084	-0.000312
654.1388	0.001225
654.3692	-0.001436
654.5996	-0.000250
654.8300	-0.001876
655.0605	0.001311
655.2909	-0.000036
655.5213	0.000675
655.7518	0.000115
655.9823	0.000972
656.2128	-0.000354
656.4433	-0.000035
656.6738	0.000496
656.9043	0.000650
657.1348	0.000641
657.3653	-0.001207
657.5959	0.000156
657.8264	0.001106
658.0570	0.002011
658.2875	-0.000141
658.5181	-0.000752
658.7487	0.000386
658.9793	0.001827
659.2099	-0.000546
659.4406	0.000156
659.6712	0.000093
659.9018	-0.000671
660.1325	0.000135
660.3632	-0.000370
660.5938	0.000387
660.8245	0.000495
661.0552	0.001149
661.2859	-0.000629
661.5166	0.000556
661.7474	-0.000035
661.9781	-0.000057
662.2088	-0.000905
662.4396	0.000739
662.6704	-0.000695
662.9011	0.002619
663.1319	0.000555
663.3627	0.001233
663.5935	-0.000895
663.8243	0.000595
664.0552	-0.001964
664.2860	-0.000492
664.5168	0.000852
664.7477	0.000217
664.9786	0.000409
665.2094	0.000133
665.4403	0.000425
665.6712	0.001518
665.9021	0.000153
666.1330	0.001017
666.3640	-0.000415
666.5949	0.001487
666.8259	-0.000035
667.0568	-0.000333
667.2878	-0.001044
667.5188	0.000092
667.7497	-0.000120
667.9807	0.000264
668.2117	0.000468
668.4428	0.000240
668.6738	-0.000564
668.9048	0.000219
669.1359	-0.000881
669.3669	0.000070
669.5980	0.000007
669.8291	-0.000649
670.0602	0.000007
670.2913	0.001699
670.5224	0.000219
670.7535	0.002376
670.9846	-0.000120
671.2157	-0.000712
671.4469	0.000345
671.6781	0.001910
671.9092	-0.000902
672.1404	0.000641
672.3716	0.000303
672.6028	0.001635
672.8340	-0.001241
673.0652	-0.000522
673.2964	0.000747
673.5277	-0.000374
673.7589	-0.001135
673.9902	-0.000543
674.2214	0.001043
674.4527	0.000472
674.6840	0.001086
674.9153	0.000557
675.1466	-0.000543
675.3779	0.001593
675.6093	0.000938
675.8406	-0.000352
676.0719	0.000070
676.3033	0.000726
676.5347	0.000388
676.7661	-0.000268
676.9974	-0.000670
677.2288	-0.000141
677.4602	0.000113
677.6917	-0.000543
677.9231	-0.001579
678.1545	0.001487
678.3860	-0.000120
678.6174	0.000092
678.8489	-0.000141
679.0804	-0.000226
679.3119	-0.001262
679.5434	-0.000310
679.7749	-0.000204
680.0064	-0.000120
680.2379	0.001360
680.4694	-0.000627
680.7010	-0.001093
680.9325	-0.000247
681.1641	0.000388
681.3957	0.000811
681.6273	0.000515
681.8589	0.000367
682.0905	0.000895
682.3221	-0.001177
682.5537	0.000240
682.7854	-0.000670
683.0170	0.000197
683.2487	-0.000818
683.4803	0.000345
683.7120	0.000155
683.9437	0.000113
684.1754	0.001382
684.4071	0.000388
684.6388	0.001022
684.8705	-0.000818
685.1023	-0.000078
685.3340	0.000515
685.5658	0.001128
685.7975	0.000853
686.0293	0.000240
686.2611	-0.000522
686.4929	-0.000437
686.7247	-0.001177
686.9565	0.000070
687.1883	-0.000585
687.4202	-0.000500
687.6520	0.001678
687.8838	0.000007
688.1157	-0.000289
688.3476	-0.000035
688.5795	0.000367
688.8114	0.000155
689.0433	-0.001706
689.2752	0.000430
689.5071	0.000155
689.7390	0.000472
689.9710	-0.000120
690.2029	-0.000945
690.4349	0.000219
690.6669	0.001170
690.8988	0.000557
691.1308	0.000768
691.3628	-0.000775
691.5948	0.000895
691.8269	-0.000247
692.0589	0.000959
692.2909	-0.000945
692.5230	0.000980
692.7550	-0.000543
692.9871	0.000345
693.2192	0.000832
693.4513	-0.000987
693.6834	0.000028
693.9155	0.000176
694.1476	-0.000204
694.3797	0.000007
694.6119	0.000536
694.8440	0.001783
695.0762	-0.001600
695.3083	-0.001156
695.5405	-0.001706
695.7727	0.000219
696.0049	0.000557
696.2371	0.000134
696.4693	0.001086
696.7016	-0.000204
696.9338	-0.000500
697.1660	-0.001219
697.3983	0.000049
697.6306	0.000134
697.8628	-0.000437
698.0951	0.000028
698.3274	0.000620
698.5597	-0.001389
698.7920	0.005992
699.0243	0.002185
699.2567	0.000557
699.4890	-0.001283
699.7214	-0.000374
699.9537	0.000261
700.1861	0.001128
700.4185	0.000176
700.6509	0.001339
700.8833	-0.001558
701.1157	-0.000014
701.3481	-0.000733
701.5806	0.000176
701.8130	-0.000543
702.0454	0.000747
702.2779	-0.000395
702.5104	0.000176
702.7429	-0.002087
702.9753	0.000959
703.2078	-0.002340
703.4403	0.001403
703.6729	0.001593
703.9054	0.001107
704.1379	0.001107
704.3705	-0.000056
704.6030	0.002164
704.8356	0.001086
705.0682	-0.000712
705.3008	0.000261
705.5334	0.001107
705.7660	0.001043
705.9986	-0.001219
706.2312	0.000811
706.4638	-0.000374
706.6965	0.001593
706.9291	0.000493
707.1618	0.001889
707.3945	0.000874
707.6272	-0.001029
707.8599	-0.001452
708.0926	-0.000627
708.3253	0.001043
708.5580	-0.001177
708.7907	0.000345
709.0235	0.001086
709.2562	0.000684
709.4890	-0.001558
709.7217	-0.001769
709.9545	0.000028
710.1873	0.000451
710.4201	-0.001431
710.6529	-0.000099
710.8857	0.001910
711.1186	0.001995
711.3514	-0.000522
711.5842	-0.000775
711.8171	-0.000374
712.0500	-0.001537
712.2828	0.000240
712.5157	0.000430
712.7486	0.000113
712.9815	-0.000585
713.2144	-0.000649
713.4474	-0.000522
713.6803	0.000768
713.9132	-0.000247
714.1462	-0.000500
714.3791	-0.001473
714.6121	0.000092
714.8451	-0.000437
715.0781	-0.001050
715.3111	0.001043
715.5441	0.000789
715.7771	-0.002171
716.0102	0.000282
716.2432	-0.000606
716.4762	0.000938
716.7093	-0.000670
716.9424	-0.002171
717.1754	-0.000374
717.4085	0.000493
717.6416	-0.000141
717.8747	0.000197
718.1078	-0.001177
718.3410	-0.000987
718.5741	0.000768
718.8072	-0.000945
719.0404	0.000916
719.2736	0.001064
719.5067	-0.000543
719.7399	0.001276
719.9731	-0.001558
720.2063	-0.000247
720.4395	0.000409
720.6727	0.000028
720.9060	-0.000374
721.1392	0.000007
721.3725	-0.000649
721.6057	0.000832
721.8390	0.001107
722.0723	0.001741
722.3055	0.001149
722.5388	0.001234
722.7721	-0.000966
723.0055	0.001657
723.2388	-0.000500
723.4721	-0.000543
723.7055	-0.001241
723.9388	0.000451
724.1722	-0.000479
724.4056	-0.000141
724.6389	-0.000162
724.8723	-0.000733
725.1057	0.000811
725.3391	0.000515
725.5726	0.000388
725.8060	0.000705
726.0394	-0.000120
726.2729	-0.000543
726.5063	-0.000247
726.7398	0.000895
726.9733	-0.001008
727.2068	0.000515
727.4403	-0.000183
727.6738	0.000938
727.9073	0.001720
728.1408	0.000092
728.3743	0.000388
728.6079	0.001487
728.8414	-0.001431
729.0750	0.001382
729.3086	0.000070
729.5421	0.001043
729.7757	0.001783
730.0093	-0.000374
730.2429	-0.000860
730.4766	-0.000014
730.7102	-0.000585
730.9438	-0.000056
731.1775	-0.000500
731.4111	0.000282
731.6448	-0.000056
731.8785	0.000811
732.1122	0.000261
732.3458	-0.000923
732.5795	0.000134
732.8133	-0.001071
733.0470	-0.001368
733.2807	-0.000183
733.5145	0.001170
733.7482	0.000303
733.9820	-0.000522
734.2157	-0.000670
734.4495	0.000493
734.6833	-0.000120
734.9171	0.000811
735.1509	0.000345
735.3847	-0.000374
735.6185	0.000641
735.8524	-0.000035
736.0862	-0.001198
736.3201	-0.000839
736.5539	0.000557
736.7878	-0.000670
737.0217	-0.000352
737.2556	0.001466
737.4895	-0.000183
737.7234	-0.001642
737.9573	-0.001431
738.1912	-0.000014
738.4252	0.000747
738.6591	0.000493
738.8931	0.001445
739.1271	-0.001368
739.3610	-0.000035
739.5950	-0.001494
739.8290	-0.000670
740.0630	-0.000204
740.2970	-0.000712
740.5310	-0.001558
740.7651	0.002164
740.9991	-0.000670
741.2332	0.000261
741.4672	-0.000352
741.7013	0.001995
741.9354	-0.000860
742.1695	0.000895
742.4036	0.000092
742.6377	-0.000183
742.8718	0.000155
743.1059	0.001445
743.3400	0.000409
743.5742	0.000367
743.8083	0.001297
744.0425	-0.000289
744.2767	0.000663
744.5108	0.000959
744.7450	-0.000839
744.9792	0.000980
745.2134	-0.001410
745.4477	0.000155
745.6819	0.000705
745.9161	-0.000056
746.1504	0.000261
746.3846	0.001635
746.6189	-0.001558
746.8532	0.000176
747.0874	0.000472
747.3217	0.001022
747.5560	0.000557
747.7903	0.002228
748.0247	0.000070
748.2590	0.001678
748.4933	0.000916
748.7277	-0.000522
748.9620	-0.000014
749.1964	0.000895
749.4308	-0.001368
749.6652	0.000092
749.8995	-0.000923
750.1339	0.000895
750.3684	0.000451
750.6028	0.000789
750.8372	-0.000860
751.0717	-0.000775
751.3061	0.000684
751.5406	0.000451
751.7750	-0.000902
752.0095	0.002925
752.2440	-0.000204
752.4785	-0.000078
752.7130	0.000705
752.9475	0.000980
753.1820	-0.000331
753.4166	0.001445
753.6511	0.000176
753.8856	0.000028
754.1202	0.000895
754.3548	0.000430
754.5894	0.000070
754.8239	0.000853
755.0585	-0.001262
755.2931	-0.000374
755.5278	0.000028
755.7624	0.000874
755.9970	-0.000797
756.2317	-0.000458
756.4663	0.000070
756.7010	0.000811
756.9356	0.000028
757.1703	-0.000437
757.4050	0.001212
757.6397	0.000620
757.8744	0.000663
758.1091	-0.001219
758.3438	-0.001389
758.5786	-0.000881
758.8133	0.000747
759.0481	0.000515
759.2828	0.000219
759.5176	-0.000860
759.7524	0.000641
759.9872	-0.000247
760.2220	0.000007
760.4568	-0.000627
760.6916	0.000409
760.9264	0.000303
761.1613	-0.000183
761.3961	0.000578
761.6310	0.001022
761.8658	0.001910
762.1007	0.000620
762.3356	0.002016
762.5705	0.000493
762.8054	0.000007
763.0403	-0.000268
763.2752	-0.000120
763.5101	-0.000204
763.7450	0.000515
763.9800	-0.001071
764.2149	-0.001050
764.4499	0.000557
764.6849	-0.001621
764.9198	0.000726
765.1548	-0.000014
765.3898	0.001318
765.6248	-0.000310
765.8599	-0.000543
766.0949	0.000197
766.3299	-0.000056
766.5650	0.000768
766.8000	-0.001135
767.0351	0.000092
767.2701	-0.000056
767.5052	0.001678
767.7403	0.001403
767.9754	-0.000712
768.2105	0.001086
768.4456	-0.000183
768.6808	-0.001431
768.9159	-0.000923
769.1510	0.000409
769.3862	0.001276
769.6214	0.000134
769.8565	0.000578
770.0917	-0.000247
770.3269	-0.002150
770.5621	0.000663
770.7973	0.000367
771.0325	0.000451
771.2677	-0.000860
771.5030	0.000493
771.7382	-0.000902
771.9735	-0.000902
772.2087	-0.000585
772.4440	0.001064
772.6793	-0.000923
772.9146	-0.000733
773.1499	-0.000458
773.3852	-0.000797
773.6205	-0.000437
773.8558	0.001593
774.0911	0.001995
774.3265	0.001149
774.5618	-0.001071
774.7972	-0.000310
775.0326	-0.000331
775.2679	0.000007
775.5033	-0.001452
775.7387	0.000113
775.9741	-0.001114
776.2095	-0.000120
776.4450	0.001212
776.6804	-0.001093
776.9158	-0.000966
777.1513	-0.000479
777.3868	-0.000945
777.6222	-0.000797
777.8577	0.000261
778.0932	-0.000564
778.3287	-0.000712
778.5642	0.001720
778.7997	-0.000289
779.0352	-0.000162
779.2707	-0.000923
779.5063	-0.000141
779.7418	0.001551
779.9774	0.000768
780.2130	0.001128
780.4485	-0.000078
780.6841	-0.000204
780.9197	0.001212
781.1553	0.000197
781.3909	0.000303
781.6265	0.000536
781.8622	-0.000078
782.0978	-0.000099
782.3335	0.000853
782.5691	0.000789
782.8048	0.001445
783.0405	-0.001389
783.2761	0.000197
783.5118	0.000916
783.7475	0.000240
783.9832	-0.000099
784.2190	-0.000183
784.4547	-0.001600
784.6904	0.000388
784.9262	-0.000056
785.1619	-0.000670
785.3977	0.001487
785.6335	0.000219
785.8692	-0.001473
786.1050	0.001657
786.3408	0.000134
786.5766	0.000345
786.8124	-0.000627
787.0483	-0.000797
787.2841	-0.002023
787.5199	-0.000141
787.7558	0.000092
787.9917	-0.000754
788.2275	-0.000902
788.4634	-0.000670
788.6993	-0.002235
788.9352	0.000726
789.1711	-0.000649
789.4070	0.000641
789.6429	-0.000543
789.8789	0.000345
790.1148	-0.000712
790.3507	0.001064
790.5867	-0.000479
790.8227	0.001170
791.0586	0.000980
791.2946	0.000240
791.5306	0.000070
791.7666	0.000747
792.0026	0.001530
792.2387	-0.000543
792.4747	0.001487
792.7107	0.001212
792.9468	-0.001029
793.1828	-0.000564
793.4189	0.000726
793.6550	-0.000289
793.8910	-0.000839
794.1271	-0.001896
794.3632	-0.000014
794.5993	-0.000479
794.8355	-0.000395
795.0716	0.000303
795.3077	0.000916
795.5439	0.000430
795.7800	-0.000606
796.0162	-0.000035
796.2523	-0.000352
796.4885	-0.000035
796.7247	-0.000078
796.9609	0.000070
797.1971	0.000874
797.4333	0.001720
797.6695	0.000028
797.9058	-0.001896
798.1420	-0.000395
798.3783	0.000472
798.6145	0.001297
798.8508	-0.000247
799.0871	-0.000374
799.3233	-0.000183
799.5596	0.000599
799.7959	-0.000881
800.0322	-0.000606
800.2686	0.002608
800.5049	-0.000310
800.7412	0.001678
800.9776	-0.000099
801.2139	0.001149
801.4503	-0.000352
801.6867	-0.000247
801.9230	-0.001071
802.1594	-0.000479
802.3958	-0.000564
802.6322	-0.000078
802.8686	0.000557
803.1051	-0.000543
803.3415	0.000768
803.5779	0.000007
803.8144	-0.000183
804.0508	0.000578
804.2873	0.001107
804.5238	0.000282
804.7603	-0.000818
804.9968	-0.001008
805.2333	0.001128
805.4698	0.000303
805.7063	-0.000902
805.9428	0.000388
806.1794	-0.000881
806.4159	0.001635
806.6525	0.001868
806.8890	0.000980
807.1256	0.000557
807.3622	0.000938
807.5988	0.001255
807.8354	-0.000374
808.0720	-0.000670
808.3086	0.001318
808.5452	-0.000585
808.7818	0.000409
809.0185	0.001614
809.2551	0.001995
809.4918	-0.000352
809.7284	0.002376
809.9651	0.002164
810.2018	0.001678
810.4385	0.000155
810.6752	0.000599
810.9119	-0.001071
811.1486	0.002672
811.3853	0.000409
811.6221	-0.000881
811.8588	-0.000839
812.0956	0.000515
812.3323	-0.000056
812.5691	-0.000204
812.8059	-0.000712
813.0427	-0.000564
813.2795	-0.000204
813.5163	0.000895
813.7531	-0.000627
813.9899	0.000451
814.2267	-0.000352
814.4636	-0.000416
814.7004	-0.001558
814.9373	-0.000120
815.1742	0.000028
815.4110	-0.000162
815.6479	0.000070
815.8848	0.000324
816.1217	-0.000606
816.3586	0.000684
816.5955	-0.000056
816.8324	-0.000818
817.0694	0.001360
817.3063	-0.001304
817.5433	-0.000247
817.7802	0.001318
818.0172	-0.001114
818.2542	0.001043
818.4912	0.001805
818.7282	0.000388
818.9652	0.000557
819.2022	0.000451
819.4392	0.001487
819.6762	-0.000712
819.9133	0.000684
820.1503	-0.001325
820.3874	-0.000522
820.6244	0.000303
820.8615	0.000155
821.0986	-0.001854
821.3357	0.000028
821.5727	-0.000289
821.8099	-0.001875
822.0470	-0.001558
822.2841	0.001001
822.5212	-0.000268
822.7584	-0.000416
822.9955	0.000768
823.2327	-0.000966
823.4698	-0.000183
823.7070	0.001191
823.9442	0.000070
824.1814	0.000980
824.4186	-0.000247
824.6558	-0.001685
824.8930	-0.000585
825.1302	0.000409
825.3675	0.000980
825.6047	-0.000649
825.8419	-0.000183
826.0792	-0.000395
826.3165	0.001234
826.5537	-0.000881
826.7910	0.001001
827.0283	0.001086
827.2656	-0.000268
827.5029	0.000345
827.7402	0.001255
827.9776	0.002206
828.2149	-0.000775
828.4522	0.001974
828.6896	-0.000691
828.9270	-0.000649
829.1643	-0.000247
829.4017	0.000493
829.6391	0.000663
829.8765	0.001762
830.1139	-0.000204
830.3513	0.001424
830.5887	-0.000120
830.8261	0.001107
831.0636	-0.001346
831.3010	-0.000056
831.5385	-0.001537
831.7759	0.001234
832.0134	-0.000078
832.2509	0.001953
832.4884	-0.000141
832.7259	-0.002065
832.9634	0.002545
833.2009	0.000916
833.4384	0.000303
833.6759	0.001424
833.9135	-0.001135
834.1510	0.000789
834.3886	-0.000014
834.6261	0.000663
834.8637	-0.000712
835.1013	0.000345
835.3389	0.000028
835.5765	-0.000120
835.8141	-0.000585
836.0517	0.000916
836.2893	-0.000966
836.5269	0.000176
836.7646	-0.000183
837.0022	0.001107
837.2399	0.000663
837.4775	-0.000754
837.7152	0.000959
837.9529	-0.000649
838.1906	-0.000818
838.4283	0.001297
838.6660	-0.000775
838.9037	-0.000522
839.1414	0.000388
839.3791	0.000599
839.6169	0.001297
839.8546	0.000768
840.0924	-0.000331
840.3302	0.000070
840.5679	-0.000458
840.8057	0.000472
841.0435	0.001022
841.2813	0.000134
841.5191	-0.001050
841.7569	0.000916
841.9947	0.000472
842.2326	-0.001029
842.4704	-0.000543
842.7082	0.000303
842.9461	0.000557
843.1840	0.003518
843.4218	0.000641
843.6597	-0.001960
843.8976	-0.001219
844.1355	-0.000458
844.3734	-0.000289
844.6113	0.001191
844.8492	-0.001790
845.0872	0.000092
845.3251	0.002376
845.5631	-0.000691
845.8010	0.000853
846.0390	0.000620
846.2770	0.000134
846.5149	0.001614
846.7529	-0.000395
846.9909	0.001170
847.2289	-0.002044
847.4669	-0.000564
847.7050	0.002058
847.9430	0.001382
848.1810	-0.000860
848.4191	0.000028
848.6571	-0.000120
848.8952	0.001720
849.1333	-0.000522
849.3713	0.000134
849.6094	-0.000374
849.8475	0.000367
850.0856	0.001572
850.3237	0.000959
850.5619	0.000197
850.8000	-0.000902
851.0381	-0.000479
851.2763	-0.000120
851.5144	-0.002065
851.7526	-0.000923
851.9908	-0.000818
852.2289	-0.000881
852.4671	0.001001
852.7053	0.001001
852.9435	-0.001114
853.1817	0.000747
853.4200	-0.000416
853.6582	0.001107
853.8964	0.001128
854.1347	-0.000352
854.3729	-0.000204
854.6112	-0.000014
854.8495	0.000578
855.0877	0.001318
855.3260	-0.000564
855.5643	0.001487
855.8026	0.000155
856.0409	0.000113
856.2792	0.000070
856.5176	0.000409
856.7559	-0.000120
856.9942	0.000367
857.2326	0.000747
857.4710	-0.000585
857.7093	-0.000268
857.9477	0.000557
858.1861	0.001487
858.4245	0.001783
858.6629	-0.000120
858.9013	0.000261
859.1397	-0.000056
859.3781	-0.000966
859.6166	-0.000099
859.8550	0.001255
860.0935	-0.000268
860.3319	-0.000331
860.5704	-0.000120
860.8089	0.001255
861.0473	-0.001621
861.2858	-0.000204
861.5243	0.000261
861.7628	0.000261
862.0013	0.000345
862.2399	-0.000352
862.4784	-0.000374
862.7169	-0.000543
862.9555	0.001551
863.1940	-0.000627
863.4326	0.001466
863.6712	0.001001
863.9098	-0.000987
864.1483	0.000557
864.3869	0.001466
864.6255	-0.000183
864.8642	-0.000458
865.1028	-0.000818
865.3414	-0.000522
865.5800	0.000007
865.8187	0.001318
866.0573	-0.000014
866.2960	-0.000416
866.5347	0.000515
866.7733	0.000113
867.0120	0.000832
867.2507	0.000155
867.4894	0.000663
867.7281	-0.001748
867.9669	-0.000522
868.2056	0.000430
868.4443	-0.000352
868.6831	-0.000902
868.9218	-0.001642
869.1606	-0.000374
869.3993	0.000430
869.6381	0.000367
869.8769	0.000959
870.1157	-0.001177
870.3545	0.001170
870.5933	-0.000416
870.8321	-0.001473
871.0709	0.000430
871.3097	0.000641
871.5486	0.000768
871.7874	-0.000374
872.0263	-0.000458
872.2651	0.000895
872.5040	0.001128
872.7429	-0.000670
872.9818	-0.000522
873.2207	0.000197
873.4596	0.000451
873.6985	-0.001389
873.9374	-0.000183
874.1763	0.000176
874.4153	-0.000056
874.6542	-0.000035
874.8932	0.000578
875.1321	0.000303
875.3711	0.000515
875.6101	-0.000035
875.8491	-0.000733
876.0880	0.000007
876.3270	-0.000543
876.5661	0.000663
876.8051	-0.001600
877.0441	-0.001262
877.2831	-0.000775
877.5222	0.000451
877.7612	0.000726
878.0003	-0.001219
878.2393	0.000367
878.4784	-0.001093
878.7175	0.000028
878.9566	0.000092
879.1957	0.001234
879.4348	-0.000733
879.6739	-0.000204
879.9130	-0.000670
880.1521	0.000916
880.3913	-0.001389
880.6304	0.000472
880.8696	0.000980
881.1087	0.001783
881.3479	0.001086
881.5871	0.001360
881.8262	-0.001008
882.0654	0.001234
882.3046	0.000134
882.5438	0.000705
882.7831	-0.001790
883.0223	0.001064
883.2615	-0.000035
883.5007	0.001783
883.7400	0.001191
883.9792	0.001826
884.2185	-0.001431
884.4578	0.000113
884.6971	0.000578
884.9363	0.002291
885.1756	-0.000839
885.4149	0.000811
885.6542	-0.000564
885.8936	0.000832
886.1329	0.000092
886.3722	0.000726
886.6116	-0.000352
886.8509	0.000938
887.0903	-0.000585
887.3296	0.001022
887.5690	-0.000014
887.8084	0.001212
888.0478	0.000070
888.2872	-0.001008
888.5266	0.000155
888.7660	0.000726
889.0054	0.000811
889.2448	-0.000374
889.4843	-0.000818
889.7237	-0.000120
889.9632	0.000197
890.2026	-0.000289
890.4421	-0.000352
890.6816	0.000155
890.9211	0.001403
891.1606	-0.000627
891.4001	-0.000416
891.6396	0.000303
891.8791	-0.000078
892.1186	0.000916
892.3581	0.000113
892.5977	0.000684
892.8372	0.000240
893.0768	0.002947
893.3163	0.003179
893.5559	0.001339
893.7955	-0.000268
894.0351	0.000811
894.2747	-0.001283
894.5143	0.000959
894.7539	-0.000310
894.9935	0.000367
895.2331	-0.001198
895.4727	0.000578
895.7124	-0.000352
895.9520	-0.000078
896.1917	-0.000078
896.4314	-0.000183
896.6710	0.000367
896.9107	-0.000987
897.1504	-0.000543
897.3901	-0.000987
897.6298	0.000092
897.8695	0.000176
898.1092	-0.000141
898.3489	-0.000204
898.5887	0.000134
898.8284	0.001509
899.0682	-0.001410
899.3079	-0.000162
899.5477	0.000684
899.7875	0.000430
900.0272	0.000430
900.2670	0.000536
900.5068	0.001170
900.7466	-0.000289
900.9864	0.000240
901.2263	0.001128
901.4661	-0.000564
901.7059	-0.000078
901.9458	-0.000374
902.1856	-0.000627
902.4255	-0.000606
902.6654	0.000134
902.9052	0.000049
903.1451	0.000007
903.3850	-0.000500
903.6249	0.001107
903.8648	0.000874
904.1047	0.000367
904.3446	-0.000289
904.5846	0.000811
904.8245	-0.001452
905.0644	0.002333
905.3044	-0.000014
905.5444	0.000070
905.7843	-0.001093
906.0243	-0.001325
906.2643	0.001191
906.5043	0.001149
906.7443	-0.001410
906.9843	0.000240
907.2243	-0.000204
907.4643	-0.000183
907.7043	-0.001600
907.9444	-0.000923
908.1844	-0.000670
908.4245	0.001001
908.6645	-0.001219
908.9046	0.000367
909.1447	0.000007
909.3847	0.000726
909.6248	-0.000712
909.8649	0.000049
910.1050	-0.000352
910.3452	0.000747
910.5853	0.000895
910.8254	-0.000183
911.0655	-0.000691
911.3057	-0.000733
911.5458	0.000388
911.7860	0.002333
912.0262	0.000282
912.2663	0.000578
912.5065	-0.001198
912.7467	0.001403
912.9869	-0.000902
913.2271	0.000768
913.4673	0.000134
913.7075	0.001995
913.9478	-0.000585
914.1880	0.000472
914.4283	-0.000712
914.6685	-0.001579
914.9088	-0.000204
915.1490	0.000536
915.3893	0.001360
915.6296	-0.000204
915.8699	-0.001219
916.1102	-0.000204
916.3505	0.000028
916.5908	0.000980
916.8311	0.000472
917.0714	0.000430
917.3118	-0.000479
917.5521	-0.000437
917.7925	0.000240
918.0328	0.001022
918.2732	-0.000374
918.5136	0.001487
918.7539	0.000028
918.9943	0.000641
919.2347	0.000092
919.4751	0.000367
919.7155	0.000155
919.9560	0.000768
920.1964	0.000980
920.4368	0.002798
920.6773	0.000049
920.9177	0.001953
921.1582	0.000388
921.3986	0.001889
921.6391	-0.000966
921.8796	0.001614
922.1201	-0.000183
922.3606	0.001424
922.6011	-0.000374
922.8416	-0.000183
923.0821	-0.000099
923.3226	0.000578
923.5631	0.000303
923.8037	0.000070
924.0442	-0.001896
924.2848	0.000134
924.5254	0.001086
924.7659	0.000811
925.0065	-0.000035
925.2471	0.000916
925.4877	0.000684
925.7283	0.000959
925.9689	-0.000035
926.2095	0.000578
926.4501	-0.000606
926.6908	-0.000500
926.9314	0.000282
927.1720	0.001720
927.4127	-0.000120
927.6533	0.000007
927.8940	-0.000120
928.1347	0.000472
928.3754	-0.000670
928.6161	0.001107
928.8568	-0.000733
929.0975	0.001297
929.3382	-0.000078
929.5789	-0.000564
929.8196	-0.001473
930.0604	0.000240
930.3011	-0.000881
930.5419	0.000028
930.7826	-0.001431
931.0234	0.001657
931.2642	-0.001389
931.5049	0.001699
931.7457	-0.000204
931.9865	0.000620
932.2273	0.000663
932.4681	0.000345
932.7089	0.000070
932.9498	-0.000500
933.1906	0.001466
933.4314	0.002608
933.6723	0.001614
933.9131	0.000049
934.1540	-0.000416
934.3949	-0.000416
934.6358	-0.001135
934.8766	-0.000754
935.1175	-0.000078
935.3584	-0.000247
935.5993	-0.002235
935.8403	0.000134
936.0812	-0.000564
936.3221	0.000641
936.5630	0.000007
936.8040	0.000240
937.0449	0.000367
937.2859	0.001509
937.5269	0.000134
937.7678	-0.000374
938.0088	-0.000331
938.2498	0.000451
938.4908	0.000959
938.7318	0.000620
938.9728	0.000895
939.2138	-0.001600
939.4549	-0.000754
939.6959	-0.001727
939.9369	0.001149
940.1780	0.000070
940.4190	-0.001198
940.6601	-0.001431
940.9012	-0.000120
941.1422	0.001657
941.3833	-0.000797
941.6244	0.000345
941.8655	0.002968
942.1066	-0.001304
942.3477	0.000832
942.5889	0.000515
942.8300	0.000240
943.0711	0.001657
943.3123	0.000641
943.5534	0.001297
943.7946	-0.000606
944.0357	-0.001071
944.2769	-0.000479
944.5181	-0.000479
944.7593	-0.000754
945.0005	-0.001368
945.2417	0.000113
945.4829	0.000367
945.7241	0.001995
945.9653	0.000726
946.2066	0.000240
946.4478	0.000768
946.6891	0.001466
946.9303	0.000219
947.1716	0.001297
947.4128	-0.000437
947.6541	-0.001156
947.8954	0.000832
948.1367	0.000240
948.3780	0.002058
948.6193	-0.001283
948.8606	0.002798
949.1019	0.000070
949.3433	0.000197
949.5846	-0.000099
949.8259	-0.000458
950.0673	0.000472
950.3086	-0.001283
950.5500	0.001487
950.7914	0.001889
951.0327	-0.001283
951.2741	0.001572
951.5155	0.001974
951.7569	-0.000500
951.9983	-0.000585
952.2398	0.000197
952.4812	-0.000543
952.7226	-0.000458
952.9640	-0.000120
953.2055	0.000240
953.4469	0.000049
953.6884	0.000578
953.9299	0.000747
954.1713	-0.000479
954.4128	-0.000902
954.6543	0.000578
954.8958	-0.001008
955.1373	-0.000289
955.3788	-0.000754
955.6203	0.000578
955.8618	0.000768
956.1034	-0.000606
956.3449	0.001783
956.5865	0.001635
956.8280	-0.000374
957.0696	0.000197
957.3111	0.001276
957.5527	-0.000733
957.7943	0.000959
958.0359	0.000388
958.2775	0.001593
958.5191	0.001022
958.7607	-0.001219
959.0023	-0.001769
959.2439	0.001572
959.4856	-0.000945
959.7272	0.000472
959.9688	-0.001325
960.2105	0.000641
960.4522	-0.001346
960.6938	-0.001241
960.9355	0.000155
961.1772	0.000345
961.4189	-0.001833
961.6606	0.000874
961.9023	0.000832
962.1440	-0.000141
962.3857	-0.000268
962.6274	0.000515
962.8692	0.000388
963.1109	-0.000585
963.3527	-0.000352
963.5944	0.001593
963.8362	-0.001219
964.0779	0.001360
964.3197	-0.000754
964.5615	0.000853
964.8033	0.000007
965.0451	0.001551
965.2869	0.000938
965.5287	-0.000500
965.7705	-0.000120
966.0123	-0.000183
966.2542	-0.000522
966.4960	-0.000416
966.7379	0.000134
966.9797	0.000472
967.2216	0.000599
967.4634	0.000557
967.7053	-0.000797
967.9472	0.000367
968.1891	-0.000289
968.4310	0.001149
968.6729	-0.001706
968.9148	0.000515
969.1567	0.000811
969.3987	0.000472
969.6406	-0.001262
969.8825	-0.001050
970.1245	0.000155
970.3664	0.000811
970.6084	0.000219
970.8504	0.001509
971.0923	-0.000247
971.3343	0.000430
971.5763	0.000303
971.8183	0.000641
972.0603	0.000303
972.3023	-0.000585
972.5443	-0.000226
972.7864	0.000134
973.0284	-0.000204
973.2704	-0.000183
973.5125	0.000388
973.7545	0.002376
973.9966	-0.000183
974.2387	0.000536
974.4807	-0.001410
974.7228	-0.000247
974.9649	0.000028
975.2070	-0.000564
975.4491	-0.001093
975.6912	-0.001114
975.9333	-0.001494
976.1755	-0.000247
976.4176	0.000747
976.6597	-0.000310
976.9019	-0.000881
977.1440	-0.000310
977.3862	-0.001135
977.6283	0.000261
977.8705	-0.000754
978.1127	0.000938
978.3549	0.000092
978.5971	0.002524
978.8393	0.001107
979.0815	0.001212
979.3237	-0.000289
979.5659	0.001318
979.8082	0.001868
980.0504	-0.000797
980.2926	0.000663
980.5349	-0.000543
980.7771	0.000282
981.0194	0.000726
981.2617	-0.000458
981.5040	0.000197
981.7462	-0.000141
981.9885	0.000916
982.2308	-0.000564
982.4731	0.001128
982.7155	-0.000374
982.9578	-0.000564
983.2001	-0.000691
983.4424	0.002291
983.6848	0.000240
983.9271	0.001445
984.1695	0.000430
984.4118	0.000472
984.6542	-0.000014
984.8966	-0.000458
985.1390	0.000599
985.3814	0.000261
985.6238	0.000536
985.8662	0.002037
986.1086	0.002164
986.3510	0.000303
986.5934	-0.000183
986.8358	-0.000247
987.0783	0.000705
987.3207	0.000282
987.5632	0.001339
987.8056	0.001720
988.0481	0.000028
988.2906	0.002101
988.5331	-0.000839
988.7756	-0.000331
989.0180	0.000472
989.2605	0.000240
989.5031	-0.001664
989.7456	0.000070
989.9881	-0.000923
990.2306	0.000938
990.4732	0.000049
990.7157	0.000134
990.9582	0.000832
991.2008	-0.000712
991.4434	0.000282
991.6859	0.000451
991.9285	-0.000289
992.1711	-0.000754
992.4137	-0.000649
992.6563	0.000959
992.8989	-0.001071
993.1415	0.001170
993.3841	-0.000818
993.6267	0.000113
993.8694	-0.000543
994.1120	0.001022
994.3547	-0.000458
994.5973	0.000980
994.8400	-0.001008
995.0826	0.000663
995.3253	0.000367
995.5680	0.001826
995.8107	-0.000331
996.0534	-0.000352
996.2961	0.000895
996.5388	0.001360
996.7815	-0.000606
997.0242	0.001635
997.2670	0.001086
997.5097	0.000134
997.7524	0.001783
997.9952	0.001931
998.2379	-0.001156
998.4807	0.001466
998.7235	0.000493
998.9662	-0.000564
999.2090	0.001593
999.4518	0.000324
999.6946	0.000472
999.9374	0.000007
1000.1802	-0.000945
1000.4230	-0.001135
1000.6659	0.000684
1000.9087	-0.000162
1001.1515	-0.000670
1001.3944	-0.001917
1001.6372	-0.000099
1001.8801	0.000811
1002.1230	-0.001325
1002.3658	0.002312
1002.6087	0.001783
1002.8516	0.001445
1003.0945	0.002079
1003.3374	-0.001114
1003.5803	-0.001198
1003.8232	-0.000733
1004.0661	0.000853
1004.3091	0.000092
1004.5520	0.000197
1004.7949	-0.000691
1005.0379	-0.000522
1005.2808	-0.001198
1005.5238	0.000620
1005.7667	-0.000775
1006.0097	0.000663
1006.2527	-0.001029
1006.4957	0.001466
1006.7387	0.000747
1006.9817	0.000388
1007.2247	-0.000522
1007.4677	0.000176
1007.7107	0.000240
1007.9538	0.001128
1008.1968	-0.000120
1008.4398	0.000578
1008.6829	-0.001664
1008.9259	0.000515
1009.1690	0.001149
1009.4121	0.001022
1009.6551	0.001107
1009.8982	-0.001008
1010.1413	-0.000162
1010.3844	0.001001
1010.6275	-0.000310
1010.8706	-0.000014
1011.1137	-0.000902
1011.3568	0.000409
1011.6000	0.001297
1011.8431	-0.001558
1012.0863	0.000938
1012.3294	0.001318
1012.5726	0.001128
1012.8157	-0.001727
1013.0589	-0.000331
1013.3021	-0.000627
1013.5452	-0.000056
1013.7884	0.000980
1014.0316	-0.000268
1014.2748	0.001001
1014.5180	-0.001304
1014.7613	0.000578
1015.0045	-0.000120
1015.2477	-0.000458
1015.4909	0.001509
1015.7342	0.000092
1015.9774	-0.000289
1016.2207	-0.000099
1016.4640	-0.000881
1016.7072	-0.000204
1016.9505	-0.000839
1017.1938	0.001234
1017.4371	0.001382
1017.6804	0.001107
1017.9237	0.001022
1018.1670	-0.000374
1018.4103	-0.001389
1018.6536	0.000472
1018.8969	0.000663
1019.1403	0.000261
1019.3836	0.000430
1019.6270	0.000895
1019.8703	0.000028
1020.1137	0.002228
1020.3571	-0.000395
1020.6004	-0.000945
1020.8438	0.000599
1021.0872	0.002185
1021.3306	0.001699
1021.5740	-0.000395
1021.8174	-0.002108
1022.0608	-0.002721
1022.3042	-0.002996
1022.5477	-0.002509
1022.7911	-0.003757
1023.0345	-0.002235
