# Wavelength (nm)	Intensity (a.u.)
197.7802	0.010561
197.9842	0.008656
198.1882	0.011216
198.3922	0.010349
198.5963	0.009651
198.8003	0.008381
199.0044	0.011089
199.2085	0.010645
199.4126	0.009714
199.6168	0.009080
199.8209	0.012253
200.0251	0.008931
200.2292	0.009524
200.4334	0.010137
200.6376	0.008910
200.8418	0.008530
201.0461	0.012211
201.2503	0.009312
201.4546	0.010391
201.6589	0.010497
201.8631	0.010730
202.0674	0.010772
202.2718	0.009397
202.4761	0.009947
202.6805	0.009122
202.8848	0.010751
203.0892	0.009143
203.2936	0.012613
203.4980	0.010349
203.7024	0.009397
203.9069	0.010582
204.1113	0.008424
204.3158	0.008593
204.5203	0.009651
204.7248	0.010709
204.9293	0.010624
205.1338	0.010836
205.3384	0.009905
205.5430	0.009947
205.7475	0.011195
205.9521	0.008868
206.1567	0.011301
206.3614	0.011809
206.5660	0.009778
206.7706	0.011280
206.9753	0.010243
207.1800	0.010645
207.3847	0.009122
207.5894	0.011491
207.7941	0.011449
207.9989	0.009778
208.2036	0.008847
208.4084	0.010201
208.6132	0.009016
208.8180	0.011238
209.0228	0.009122
209.2276	0.010751
209.4325	0.008043
209.6373	0.009757
209.8422	0.008424
210.0471	0.010666
210.2520	0.009609
210.4569	0.009862
210.6618	0.009799
210.8668	0.009609
211.0718	0.010455
211.2767	0.011513
211.4817	0.010159
211.6867	0.010391
211.8918	0.010836
212.0968	0.010095
212.3018	0.010201
212.5069	0.010582
212.7120	0.012317
212.9171	0.008001
213.1222	0.008847
213.3273	0.011153
213.5325	0.012126
213.7376	0.009630
213.9428	0.009651
214.1480	0.011280
214.3532	0.010793
214.5584	0.011682
214.7636	0.009397
214.9689	0.011089
215.1741	0.010814
215.3794	0.011280
215.5847	0.008805
215.7900	0.008508
215.9953	0.008953
216.2007	0.011893
216.4060	0.010370
216.6114	0.008741
216.8168	0.010074
217.0222	0.010666
217.2276	0.010963
217.4330	0.008572
217.6384	0.010984
217.8439	0.011364
218.0494	0.008931
218.2548	0.014199
218.4603	0.010328
218.6659	0.010561
218.8714	0.010476
219.0769	0.010984
219.2825	0.009037
219.4881	0.011555
219.6936	0.010857
219.8992	0.011216
220.1049	0.009524
220.3105	0.011068
220.5161	0.010286
220.7218	0.011893
220.9275	0.010645
221.1332	0.011724
221.3389	0.011301
221.5446	0.010603
221.7503	0.008889
221.9561	0.009439
222.1618	0.008656
222.3676	0.010286
222.5734	0.009926
222.7792	0.010328
222.9850	0.011576
223.1909	0.010349
223.3967	0.010687
223.6026	0.010434
223.8085	0.010180
224.0144	0.009482
224.2203	0.010709
224.4262	0.010582
224.6322	0.009355
224.8381	0.011153
225.0441	0.007451
225.2501	0.011407
225.4561	0.009397
225.6621	0.010095
225.8681	0.011259
226.0742	0.011915
226.2802	0.008635
226.4863	0.010518
226.6924	0.008466
226.8985	0.012168
227.1046	0.009355
227.3107	0.011682
227.5169	0.009143
227.7230	0.011364
227.9292	0.012380
228.1354	0.011618
228.3416	0.010328
228.5478	0.011661
228.7541	0.011068
228.9603	0.011640
229.1666	0.009757
229.3729	0.009989
229.5791	0.008783
229.7855	0.009355
229.9918	0.009693
230.1981	0.010497
230.4045	0.011534
230.6108	0.010201
230.8172	0.011068
231.0236	0.010793
231.2300	0.010730
231.4364	0.009905
231.6429	0.011830
231.8493	0.011216
232.0558	0.009058
232.2623	0.009566
232.4688	0.011216
232.6753	0.009207
232.8818	0.011238
233.0884	0.011322
233.2949	0.010201
233.5015	0.010476
233.7081	0.010053
233.9147	0.010286
234.1213	0.012232
234.3279	0.011449
234.5346	0.010201
234.7413	0.012274
234.9479	0.010222
235.1546	0.010412
235.3613	0.010497
235.5680	0.011301
235.7748	0.011428
235.9815	0.009735
236.1883	0.011957
236.3951	0.012592
236.6018	0.012655
236.8087	0.012803
237.0155	0.011724
237.2223	0.010836
237.4292	0.010561
237.6360	0.009630
237.8429	0.010518
238.0498	0.011872
238.2567	0.012676
238.4636	0.012845
238.6706	0.012041
238.8775	0.012867
239.0845	0.012507
239.2915	0.012655
239.4985	0.009418
239.7055	0.010539
239.9125	0.009672
240.1195	0.011005
240.3266	0.011026
240.5337	0.012359
240.7407	0.011343
240.9478	0.011386
241.1549	0.010687
241.3621	0.012295
241.5692	0.012338
241.7764	0.011364
241.9835	0.009820
242.1907	0.012338
242.3979	0.012613
242.6051	0.012190
242.8124	0.011174
243.0196	0.011301
243.2269	0.011238
243.4341	0.012592
243.6414	0.011555
243.8487	0.013205
244.0560	0.011555
244.2634	0.011618
244.4707	0.010645
244.6781	0.009862
244.8854	0.011893
245.0928	0.011788
245.3002	0.009672
245.5076	0.010307
245.7151	0.011026
245.9225	0.011534
246.1300	0.010539
246.3375	0.010836
246.5449	0.010286
246.7524	0.012317
246.9600	0.010455
247.1675	0.011661
247.3750	0.010709
247.5826	0.012592
247.7902	0.010941
247.9978	0.013057
248.2054	0.011809
248.4130	0.010751
248.6206	0.012317
248.8283	0.011555
249.0359	0.012740
249.2436	0.013226
249.4513	0.009905
249.6590	0.010264
249.8667	0.011153
250.0745	0.011259
250.2822	0.011132
250.4900	0.010730
250.6978	0.011111
250.9056	0.010793
251.1134	0.011915
251.3212	0.012084
251.5290	0.009714
251.7369	0.010243
251.9447	0.011766
252.1526	0.011407
252.3605	0.009587
252.5684	0.012909
252.7763	0.010814
252.9843	0.012126
253.1922	0.010772
253.4002	0.011216
253.6082	0.011301
253.8162	0.010666
254.0242	0.011597
254.2322	0.011809
254.4402	0.010539
254.6483	0.012126
254.8564	0.009778
255.0644	0.012634
255.2725	0.011682
255.4806	0.012359
255.6888	0.010243
255.8969	0.012232
256.1051	0.011386
256.3132	0.012570
256.5214	0.011407
256.7296	0.013163
256.9378	0.010582
257.1460	0.011936
257.3543	0.010941
257.5625	0.011513
257.7708	0.010878
257.9791	0.010582
258.1874	0.012020
258.3957	0.011491
258.6040	0.011089
258.8124	0.012782
259.0207	0.012253
259.2291	0.011999
259.4375	0.010645
259.6459	0.012465
259.8543	0.010666
260.0627	0.012190
260.2711	0.010349
260.4796	0.013205
260.6881	0.013311
260.8965	0.013078
261.1050	0.013438
261.3135	0.011745
261.5221	0.009799
261.7306	0.012972
261.9392	0.010286
262.1477	0.012232
262.3563	0.012909
262.5649	0.013099
262.7735	0.011407
262.9822	0.013438
263.1908	0.011957
263.3995	0.012041
263.6081	0.008868
263.8168	0.010264
264.0255	0.010455
264.2342	0.011661
264.4429	0.009630
264.6517	0.011470
264.8604	0.011005
265.0692	0.011026
265.2780	0.012697
265.4868	0.012676
265.6956	0.010836
265.9044	0.014115
266.1133	0.012824
266.3221	0.013544
266.5310	0.011174
266.7399	0.010095
266.9488	0.012803
267.1577	0.011555
267.3666	0.011005
267.5755	0.011111
267.7845	0.011428
267.9935	0.011047
268.2024	0.012486
268.4114	0.012634
268.6205	0.011618
268.8295	0.010624
269.0385	0.010412
269.2476	0.013205
269.4566	0.012232
269.6657	0.011449
269.8748	0.011915
270.0839	0.011618
270.2931	0.012972
270.5022	0.012295
270.7114	0.011407
270.9205	0.012380
271.1297	0.012020
271.3389	0.012613
271.5481	0.011132
271.7573	0.012063
271.9666	0.012549
272.1758	0.012465
272.3851	0.010476
272.5944	0.010518
272.8037	0.010772
273.0130	0.012232
273.2223	0.012613
273.4316	0.013057
273.6410	0.011640
273.8504	0.012422
274.0597	0.010751
274.2691	0.012105
274.4785	0.010201
274.6880	0.011703
274.8974	0.011386
275.1069	0.012740
275.3163	0.010941
275.5258	0.011343
275.7353	0.010328
275.9448	0.012190
276.1543	0.010476
276.3639	0.011386
276.5734	0.011703
276.7830	0.012126
276.9926	0.011026
277.2022	0.013438
277.4118	0.010836
277.6214	0.010328
277.8310	0.009884
278.0407	0.011809
278.2503	0.010920
278.4600	0.014305
278.6697	0.012211
278.8794	0.011555
279.0891	0.011999
279.2989	0.013417
279.5086	0.012105
279.7184	0.010963
279.9281	0.012232
280.1379	0.012507
280.3477	0.013120
280.5576	0.011703
280.7674	0.011089
280.9772	0.013332
281.1871	0.011216
281.3970	0.011322
281.6069	0.013120
281.8168	0.011978
282.0267	0.012697
282.2366	0.011745
282.4466	0.011174
282.6565	0.011132
282.8665	0.011957
283.0765	0.010349
283.2865	0.011195
283.4965	0.010772
283.7065	0.011957
283.9166	0.011068
284.1266	0.011195
284.3367	0.012634
284.5468	0.011089
284.7569	0.011830
284.9670	0.012232
285.1771	0.011491
285.3873	0.012697
285.5974	0.011407
285.8076	0.013649
286.0178	0.010476
286.2280	0.012422
286.4382	0.013247
286.6484	0.011999
286.8587	0.012740
287.0689	0.012634
287.2792	0.012126
287.4895	0.011132
287.6998	0.012168
287.9101	0.013395
288.1204	0.011216
288.3308	0.012592
288.5411	0.012740
288.7515	0.009926
288.9619	0.010561
289.1723	0.012634
289.3827	0.011703
289.5931	0.012613
289.8035	0.011111
290.0140	0.010412
290.2245	0.012888
290.4349	0.012190
290.6454	0.012994
290.8559	0.010899
291.0665	0.012613
291.2770	0.011640
291.4875	0.012740
291.6981	0.012782
291.9087	0.012549
292.1193	0.011111
292.3299	0.011724
292.5405	0.013692
292.7511	0.012443
292.9618	0.012401
293.1724	0.013311
293.3831	0.014072
293.5938	0.012232
293.8045	0.012655
294.0152	0.014051
294.2260	0.011703
294.4367	0.010730
294.6475	0.010709
294.8582	0.014051
295.0690	0.013861
295.2798	0.012570
295.4906	0.010137
295.7015	0.011428
295.9123	0.011661
296.1232	0.012359
296.3340	0.011957
296.5449	0.011534
296.7558	0.011111
296.9667	0.010793
297.1777	0.012253
297.3886	0.011470
297.5995	0.012697
297.8105	0.013269
298.0215	0.012909
298.2325	0.011957
298.4435	0.012507
298.6545	0.011936
298.8656	0.010159
299.0766	0.011999
299.2877	0.011893
299.4988	0.012507
299.7099	0.011195
299.9210	0.012930
300.1321	0.012465
300.3432	0.013015
300.5544	0.012655
300.7655	0.012676
300.9767	0.011661
301.1879	0.012718
301.3991	0.010053
301.6103	0.011068
301.8215	0.013078
302.0328	0.013036
302.2441	0.012994
302.4553	0.013395
302.6666	0.012761
302.8779	0.010899
303.0892	0.010518
303.3006	0.012528
303.5119	0.010984
303.7233	0.012845
303.9346	0.012380
304.1460	0.010899
304.3574	0.011513
304.5688	0.011555
304.7803	0.012190
304.9917	0.012718
305.2031	0.011132
305.4146	0.012592
305.6261	0.010793
305.8376	0.011766
306.0491	0.011301
306.2606	0.012084
306.4722	0.011597
306.6837	0.010772
306.8953	0.011893
307.1069	0.012676
307.3184	0.011216
307.5301	0.012063
307.7417	0.010116
307.9533	0.013226
308.1650	0.011407
308.3766	0.013501
308.5883	0.010920
308.8000	0.011470
309.0117	0.013290
309.2234	0.010497
309.4351	0.010434
309.6469	0.014094
309.8586	0.011068
310.0704	0.011322
310.2822	0.012147
310.4940	0.013036
310.7058	0.011428
310.9176	0.011386
311.1295	0.009905
311.3413	0.013163
311.5532	0.010074
311.7651	0.011618
311.9770	0.011089
312.1889	0.013607
312.4008	0.011470
312.6127	0.011470
312.8247	0.010899
313.0366	0.012528
313.2486	0.011195
313.4606	0.010053
313.6726	0.012867
313.8846	0.014453
314.0967	0.010053
314.3087	0.010095
314.5208	0.011999
314.7328	0.011513
314.9449	0.010201
315.1570	0.013163
315.3692	0.013522
315.5813	0.011343
315.7934	0.012168
316.0056	0.013946
316.2177	0.011957
316.4299	0.010751
316.6421	0.011301
316.8543	0.012570
317.0666	0.011809
317.2788	0.014686
317.4911	0.011513
317.7033	0.011978
317.9156	0.012359
318.1279	0.012359
318.3402	0.011978
318.5525	0.009101
318.7649	0.010645
318.9772	0.012317
319.1896	0.011724
319.4019	0.013332
319.6143	0.012803
319.8267	0.013205
320.0392	0.011238
320.2516	0.011470
320.4640	0.010814
320.6765	0.011343
320.8890	0.011682
321.1014	0.011978
321.3139	0.011216
321.5265	0.013967
321.7390	0.013036
321.9515	0.012317
322.1641	0.011766
322.3766	0.011428
322.5892	0.011661
322.8018	0.011661
323.0144	0.014940
323.2270	0.013036
323.4397	0.010539
323.6523	0.010878
323.8650	0.012845
324.0777	0.011957
324.2904	0.011936
324.5031	0.011830
324.7158	0.013036
324.9285	0.013163
325.1412	0.014305
325.3540	0.012740
325.5668	0.011766
325.7796	0.012380
325.9924	0.009989
326.2052	0.012274
326.4180	0.010878
326.6308	0.012528
326.8437	0.012507
327.0566	0.011766
327.2694	0.012782
327.4823	0.011174
327.6952	0.012317
327.9082	0.012443
328.1211	0.013882
328.3340	0.011915
328.5470	0.012465
328.7600	0.011238
328.9730	0.012486
329.1860	0.013290
329.3990	0.013544
329.6120	0.011978
329.8251	0.013438
330.0381	0.013226
330.2512	0.010391
330.4643	0.011809
330.6774	0.012845
330.8905	0.011936
331.1036	0.012930
331.3167	0.012570
331.5299	0.013649
331.7431	0.012422
331.9562	0.012655
332.1694	0.011513
332.3826	0.012655
332.5959	0.012634
332.8091	0.013205
333.0223	0.013078
333.2356	0.013078
333.4489	0.010941
333.6622	0.012147
333.8755	0.013163
334.0888	0.011936
334.3021	0.013438
334.5154	0.013988
334.7288	0.013882
334.9422	0.012972
335.1555	0.011428
335.3689	0.012994
335.5823	0.013332
335.7958	0.013797
336.0092	0.011597
336.2227	0.012443
336.4361	0.012888
336.6496	0.012168
336.8631	0.014051
337.0766	0.013120
337.2901	0.012697
337.5036	0.014580
337.7172	0.012401
337.9307	0.012634
338.1443	0.012401
338.3579	0.014284
338.5715	0.013734
338.7851	0.011238
338.9987	0.012486
339.2124	0.013607
339.4260	0.011428
339.6397	0.011999
339.8533	0.012422
340.0670	0.012465
340.2807	0.013057
340.4945	0.011661
340.7082	0.012718
340.9219	0.011788
341.1357	0.012486
341.3495	0.011068
341.5633	0.014157
341.7771	0.011555
341.9909	0.015638
342.2047	0.011364
342.4185	0.012761
342.6324	0.014348
342.8463	0.010899
343.0601	0.012359
343.2740	0.013078
343.4879	0.013882
343.7019	0.013713
343.9158	0.013099
344.1297	0.012295
344.3437	0.011259
344.5577	0.015342
344.7717	0.009862
344.9857	0.013522
345.1997	0.012803
345.4137	0.013988
345.6277	0.012740
345.8418	0.012486
346.0559	0.013734
346.2699	0.013903
346.4840	0.012422
346.6981	0.012211
346.9123	0.013120
347.1264	0.013586
347.3406	0.012592
347.5547	0.014686
347.7689	0.013607
347.9831	0.011513
348.1973	0.013438
348.4115	0.012084
348.6257	0.011216
348.8400	0.012634
349.0542	0.014051
349.2685	0.014009
349.4828	0.013015
349.6971	0.013671
349.9114	0.012274
350.1257	0.015300
350.3400	0.015702
350.5544	0.014855
350.7687	0.012782
350.9831	0.014390
351.1975	0.013607
351.4119	0.013988
351.6263	0.013776
351.8407	0.013671
352.0552	0.012422
352.2696	0.012845
352.4841	0.011893
352.6986	0.013459
352.9131	0.010201
353.1276	0.013247
353.3421	0.013247
353.5566	0.013988
353.7712	0.013290
353.9858	0.015596
354.2003	0.013417
354.4149	0.013015
354.6295	0.012951
354.8441	0.014411
355.0588	0.015786
355.2734	0.011915
355.4881	0.014517
355.7027	0.014665
355.9174	0.012845
356.1321	0.012486
356.3468	0.012951
356.5615	0.013247
356.7763	0.014115
356.9910	0.013586
357.2058	0.014263
357.4206	0.012274
357.6353	0.013205
357.8501	0.013607
358.0650	0.013269
358.2798	0.015532
358.4946	0.013057
358.7095	0.013184
358.9243	0.014157
359.1392	0.015680
359.3541	0.011153
359.5690	0.013099
359.7839	0.011766
359.9989	0.014284
360.2138	0.013142
360.4288	0.013755
360.6438	0.015532
360.8587	0.015575
361.0737	0.013353
361.2888	0.012740
361.5038	0.013924
361.7188	0.014348
361.9339	0.012338
362.1489	0.014094
362.3640	0.012803
362.5791	0.016273
362.7942	0.013332
363.0093	0.014517
363.2245	0.013120
363.4396	0.013628
363.6548	0.012951
363.8699	0.013692
364.0851	0.015257
364.3003	0.016654
364.5155	0.014432
364.7308	0.013438
364.9460	0.014326
365.1612	0.013501
365.3765	0.013459
365.5918	0.014136
365.8071	0.014559
366.0224	0.014178
366.2377	0.013819
366.4530	0.012613
366.6684	0.014326
366.8837	0.015025
367.0991	0.015088
367.3145	0.014094
367.5299	0.012697
367.7453	0.015067
367.9607	0.011661
368.1761	0.014411
368.3916	0.013247
368.6070	0.015490
368.8225	0.014707
369.0380	0.013544
369.2535	0.015342
369.4690	0.014453
369.6845	0.013946
369.9001	0.013967
370.1156	0.013946
370.3312	0.015257
370.5468	0.013099
370.7624	0.013607
370.9780	0.015490
371.1936	0.016442
371.4092	0.014263
371.6249	0.014496
371.8405	0.015109
372.0562	0.013269
372.2719	0.014242
372.4876	0.015363
372.7033	0.014094
372.9190	0.015659
373.1348	0.014876
373.3505	0.013713
373.5663	0.014411
373.7820	0.014136
373.9978	0.013713
374.2136	0.013797
374.4294	0.014369
374.6453	0.016696
374.8611	0.012740
375.0770	0.015850
375.2928	0.014601
375.5087	0.015405
375.7246	0.013311
375.9405	0.015786
376.1564	0.017923
376.3724	0.017225
376.5883	0.013755
376.8043	0.015257
377.0203	0.013882
377.2362	0.015490
377.4522	0.015003
377.6682	0.014094
377.8843	0.014834
378.1003	0.014771
378.3164	0.014348
378.5324	0.015575
378.7485	0.016738
378.9646	0.016484
379.1807	0.014707
379.3968	0.017394
379.6129	0.015490
379.8291	0.015955
380.0452	0.015659
380.2614	0.014538
380.4776	0.015913
380.6938	0.017479
380.9100	0.017733
381.1262	0.016505
381.3424	0.016146
381.5587	0.017521
381.7749	0.017775
381.9912	0.018685
382.2075	0.017309
382.4238	0.019827
382.6401	0.019235
382.8564	0.018156
383.0728	0.020187
383.2891	0.019827
383.5055	0.021054
383.7219	0.019806
383.9382	0.022725
384.1546	0.024333
384.3711	0.024799
384.5875	0.024016
384.8039	0.027803
385.0204	0.028268
385.2368	0.029813
385.4533	0.030849
385.6698	0.033134
385.8863	0.034383
386.1028	0.035673
386.3194	0.041893
386.5359	0.040793
386.7525	0.045363
386.9690	0.047330
387.1856	0.052662
387.4022	0.056004
387.6188	0.060807
387.8355	0.063853
388.0521	0.067979
388.2687	0.077330
388.4854	0.076611
388.7021	0.083021
388.9188	0.089537
389.1355	0.092393
389.3522	0.094593
389.5689	0.103479
389.7856	0.105785
390.0024	0.115052
390.2192	0.120912
390.4359	0.128592
390.6527	0.135256
390.8695	0.147167
391.0863	0.153302
391.3032	0.161003
391.5200	0.171328
391.7369	0.179134
391.9537	0.195911
392.1706	0.201391
392.3875	0.214867
392.6044	0.230269
392.8213	0.252060
393.0383	0.265219
393.2552	0.275692
393.4722	0.275692
393.6891	0.281594
393.9061	0.286439
394.1231	0.297673
394.3401	0.304210
394.5572	0.322511
394.7742	0.330846
394.9912	0.342948
395.2083	0.352934
395.4254	0.356636
395.6425	0.368780
395.8596	0.379929
396.0767	0.394781
396.2938	0.408130
396.5109	0.419618
396.7281	0.440859
396.9453	0.448920
397.1624	0.461910
397.3796	0.480887
397.5968	0.505598
397.8140	0.522861
398.0313	0.542008
398.2485	0.562106
398.4658	0.591027
398.6830	0.609433
398.9003	0.610046
399.1176	0.617705
399.3349	0.613706
399.5522	0.614807
399.7696	0.626358
399.9869	0.624475
400.2043	0.633488
400.4216	0.630885
400.6390	0.634947
400.8564	0.654136
401.0738	0.669009
401.2912	0.684961
401.5087	0.690694
401.7261	0.682253
401.9436	0.693593
402.1610	0.699220
402.3785	0.709502
402.5960	0.716569
402.8135	0.723614
403.0310	0.737661
403.2486	0.744516
403.4661	0.752809
403.6837	0.764890
403.9013	0.780207
404.1189	0.780545
404.3365	0.792372
404.5541	0.803817
404.7717	0.819494
404.9893	0.833394
405.2070	0.846067
405.4246	0.867583
405.6423	0.883196
405.8600	0.892589
406.0777	0.881694
406.2954	0.871031
406.5131	0.847611
406.7309	0.843168
406.9486	0.835975
407.1664	0.830897
407.3842	0.830284
407.6020	0.823048
407.8198	0.840947
408.0376	0.845728
408.2554	0.874733
408.4733	0.899000
408.6911	0.910466
408.9090	0.906468
409.1269	0.905960
409.3448	0.899973
409.5627	0.905114
409.7806	0.918887
409.9985	0.922483
410.2165	0.914021
410.4344	0.893626
410.6524	0.899359
410.8704	0.898450
411.0884	0.905558
411.3064	0.909366
411.5244	0.911207
411.7424	0.910445
411.9605	0.921447
412.1785	0.936743
412.3966	0.961474
412.6147	0.974951
412.8328	0.980367
413.0509	0.992384
413.2690	0.987899
413.4871	0.996340
413.7053	0.994097
413.9234	0.984281
414.1416	0.977638
414.3598	0.965959
414.5780	0.970402
414.7962	0.968752
415.0144	0.969746
415.2326	0.975057
415.4509	0.971545
415.6692	0.968710
415.8874	0.968054
416.1057	0.976453
416.3240	0.984894
416.5423	0.987793
416.7606	0.983667
416.9790	0.985698
417.1973	0.976390
417.4157	0.987983
417.6341	0.986566
417.8524	0.981023
418.0708	0.992130
418.2893	0.989993
418.5077	0.991918
418.7261	0.995409
418.9446	1.000000
419.1630	1.000000
419.3815	1.000000
419.6000	1.000000
419.8185	1.000000
420.0370	1.000000
420.2555	1.000000
420.4741	1.000000
420.6926	1.000000
420.9112	1.000000
421.1298	1.000000
421.3483	1.000000
421.5669	1.000000
421.7856	1.000000
422.0042	1.000000
422.2228	1.000000
422.4415	1.000000
422.6601	1.000000
422.8788	1.000000
423.0975	1.000000
423.3162	1.000000
423.5349	1.000000
423.7536	1.000000
423.9724	1.000000
424.1911	1.000000
424.4099	1.000000
424.6287	1.000000
424.8475	1.000000
425.0663	1.000000
425.2851	1.000000
425.5039	1.000000
425.7228	1.000000
425.9416	1.000000
426.1605	0.998307
426.3793	1.000000
426.5982	0.996509
426.8171	0.984260
427.0361	1.000000
427.2550	1.000000
427.4739	1.000000
427.6929	1.000000
427.9118	1.000000
428.1308	1.000000
428.3498	1.000000
428.5688	1.000000
428.7878	1.000000
429.0068	1.000000
429.2259	1.000000
429.4449	1.000000
429.6640	1.000000
429.8831	1.000000
430.1022	1.000000
430.3213	1.000000
430.5404	1.000000
430.7595	1.000000
430.9787	1.000000
431.1978	1.000000
431.4170	1.000000
431.6362	1.000000
431.8553	1.000000
432.0745	0.970720
432.2938	0.955635
432.5130	0.962744
432.7322	0.954091
432.9515	0.956418
433.1707	0.946178
433.3900	0.987391
433.6093	1.000000
433.8286	1.000000
434.0479	1.000000
434.2673	1.000000
434.4866	1.000000
434.7059	1.000000
434.9253	1.000000
435.1447	1.000000
435.3641	1.000000
435.5835	1.000000
435.8029	1.000000
436.0223	0.993568
436.2418	1.000000
436.4612	1.000000
436.6807	1.000000
436.9001	1.000000
437.1196	1.000000
437.3391	1.000000
437.5586	1.000000
437.7782	0.997990
437.9977	0.991855
438.2173	1.000000
438.4368	1.000000
438.6564	1.000000
438.8760	1.000000
439.0956	1.000000
439.3152	1.000000
439.5348	1.000000
439.7545	0.997334
439.9741	0.991876
440.1938	0.978759
440.4135	0.976622
440.6331	0.970656
440.8528	1.000000
441.0725	1.000000
441.2923	1.000000
441.5120	1.000000
441.7318	1.000000
441.9515	1.000000
442.1713	1.000000
442.3911	1.000000
442.6109	1.000000
442.8307	1.000000
443.0505	1.000000
443.2703	1.000000
443.4902	1.000000
443.7101	1.000000
443.9299	1.000000
444.1498	1.000000
444.3697	1.000000
444.5896	1.000000
444.8095	1.000000
445.0295	1.000000
445.2494	1.000000
445.4694	1.000000
445.6894	1.000000
445.9093	1.000000
446.1293	1.000000
446.3493	1.000000
446.5694	1.000000
446.7894	1.000000
447.0094	1.000000
447.2295	0.991601
447.4496	0.990226
447.6696	0.980028
447.8897	0.965113
448.1098	0.953943
448.3300	0.939260
448.5501	0.936933
448.7702	0.937250
448.9904	0.932469
449.2106	0.934902
449.4307	0.926439
449.6509	0.925762
449.8711	0.922462
450.0914	0.907081
450.3116	0.899063
450.5318	0.886835
450.7521	0.886750
450.9724	0.869592
451.1926	0.846976
451.4129	0.838175
451.6332	0.836017
451.8535	0.832653
452.0739	0.837456
452.2942	0.824297
452.5146	0.816596
452.7349	0.804537
452.9553	0.806398
453.1757	0.785517
453.3961	0.767746
453.6165	0.754036
453.8369	0.753613
454.0574	0.747774
454.2778	0.734446
454.4983	0.716124
454.7188	0.710687
454.9393	0.718557
455.1597	0.738338
455.3803	0.752556
455.6008	0.752831
455.8213	0.739629
456.0419	0.719277
456.2624	0.706181
456.4830	0.697486
456.7036	0.693783
456.9242	0.683205
457.1448	0.689996
457.3654	0.692408
457.5860	0.702500
457.8067	0.711406
458.0274	0.722260
458.2480	0.719996
458.4687	0.718367
458.6894	0.722090
458.9101	0.727570
459.1308	0.710116
459.3516	0.698713
459.5723	0.702796
459.7931	0.701357
460.0138	0.702098
460.2346	0.681449
460.4554	0.659150
460.6762	0.653015
460.8970	0.642818
461.1178	0.644954
461.3387	0.641844
461.5595	0.643389
461.7804	0.612839
462.0013	0.586584
462.2222	0.557727
462.4431	0.545689
462.6640	0.546450
462.8849	0.540125
463.1059	0.526458
463.3268	0.561239
463.5478	0.576916
463.7687	0.577656
463.9897	0.573573
464.2107	0.581951
464.4317	0.584257
464.6528	0.600716
464.8738	0.611020
465.0948	0.597310
465.3159	0.599426
465.5370	0.606302
465.7581	0.613347
465.9792	0.605646
466.2003	0.583516
466.4214	0.544948
466.6425	0.520471
466.8637	0.508052
467.0848	0.485414
467.3060	0.473038
467.5272	0.455605
467.7484	0.459921
467.9696	0.459392
468.1908	0.455499
468.4120	0.452516
468.6333	0.427742
468.8545	0.417080
469.0758	0.405655
469.2970	0.393956
469.5183	0.384774
469.7396	0.372651
469.9610	0.360571
470.1823	0.349548
470.4036	0.356445
470.6250	0.351431
470.8463	0.340790
471.0677	0.330508
471.2891	0.327609
471.5105	0.330550
471.7319	0.326382
471.9533	0.327102
472.1748	0.324246
472.3962	0.324351
472.6177	0.330656
472.8391	0.333702
473.0606	0.344154
473.2821	0.343561
473.5036	0.337786
473.7251	0.335099
473.9467	0.327419
474.1682	0.319422
474.3898	0.315381
474.6113	0.313265
474.8329	0.312885
475.0545	0.328625
475.2761	0.324605
475.4977	0.329471
475.7193	0.319908
475.9410	0.309267
476.1626	0.302222
476.3843	0.307130
476.6060	0.300931
476.8277	0.292532
477.0494	0.281510
477.2711	0.276432
477.4928	0.270170
477.7145	0.272561
477.9363	0.281298
478.1580	0.279288
478.3798	0.274782
478.6016	0.271862
478.8234	0.264500
479.0452	0.262511
479.2670	0.264331
479.4888	0.260015
479.7107	0.253731
479.9325	0.260544
480.1544	0.267822
480.3763	0.268266
480.5982	0.262215
480.8201	0.258745
481.0420	0.250050
481.2639	0.251552
481.4859	0.254535
481.7078	0.253647
481.9298	0.251447
482.1517	0.247596
482.3737	0.240064
482.5957	0.231729
482.8177	0.226503
483.0398	0.223859
483.2618	0.223774
483.4838	0.221764
483.7059	0.219437
483.9280	0.217300
484.1501	0.222103
484.3721	0.232956
484.5943	0.238351
484.8164	0.235156
485.0385	0.238076
485.2606	0.234120
485.4828	0.319782
485.7050	0.497685
485.9271	0.672563
486.1493	0.698988
486.3715	0.592931
486.5937	0.473123
486.8160	0.408575
487.0382	0.385959
487.2605	0.362369
487.4827	0.303449
487.7050	0.240403
487.9273	0.210065
488.1496	0.196102
488.3719	0.189141
488.5942	0.181186
488.8165	0.179578
489.0389	0.178859
489.2612	0.174755
489.4836	0.173316
489.7060	0.172851
489.9284	0.170058
490.1508	0.167096
490.3732	0.166313
490.5956	0.161194
490.8180	0.159332
491.0405	0.160220
491.2630	0.157576
491.4854	0.154212
491.7079	0.149515
491.9304	0.148881
492.1529	0.145009
492.3755	0.147294
492.5980	0.145136
492.8205	0.143126
493.0431	0.141857
493.2657	0.143190
493.4882	0.142068
493.7108	0.140418
493.9334	0.142365
494.1561	0.138789
494.3787	0.141243
494.6013	0.139128
494.8240	0.139276
495.0466	0.132760
495.2693	0.128740
495.4920	0.122583
495.7147	0.122710
495.9374	0.129142
496.1601	0.133394
496.3829	0.138281
496.6056	0.139381
496.8284	0.136081
497.0511	0.133521
497.2739	0.131490
497.4967	0.122160
497.7195	0.123493
497.9423	0.116681
498.1652	0.117696
498.3880	0.117231
498.6109	0.117040
498.8337	0.121547
499.0566	0.120362
499.2795	0.119093
499.5024	0.121674
499.7253	0.124297
499.9482	0.124339
500.1712	0.119896
500.3941	0.117696
500.6171	0.114840
500.8400	0.111011
501.0630	0.113909
501.2860	0.118035
501.5090	0.117485
501.7320	0.118416
501.9551	0.115115
502.1781	0.114840
502.4012	0.117040
502.6242	0.120616
502.8473	0.116004
503.0704	0.115919
503.2935	0.115708
503.5166	0.115157
503.7397	0.114036
503.9628	0.111074
504.1860	0.111836
504.4092	0.107647
504.6323	0.107160
504.8555	0.105468
505.0787	0.105066
505.3019	0.108134
505.5251	0.105637
505.7483	0.107457
505.9716	0.104029
506.1948	0.102252
506.4181	0.106441
506.6414	0.109234
506.8647	0.107308
507.0880	0.106843
507.3113	0.098254
507.5346	0.095884
507.7579	0.099798
507.9813	0.104050
508.2046	0.102294
508.4280	0.101533
508.6514	0.102400
508.8748	0.101723
509.0982	0.102760
509.3216	0.102442
509.5450	0.101808
509.7685	0.098338
509.9919	0.100475
510.2154	0.100475
510.4388	0.099650
510.6623	0.098740
510.8858	0.103564
511.1093	0.098084
511.3329	0.100665
511.5564	0.103670
511.7799	0.101596
512.0035	0.103225
512.2270	0.096963
512.4506	0.094911
512.6742	0.098804
512.8978	0.096349
513.1214	0.099311
513.3451	0.097598
513.5687	0.098677
513.7923	0.096455
514.0160	0.101871
514.2397	0.099290
514.4634	0.098084
514.6871	0.098550
514.9108	0.100390
515.1345	0.098211
515.3582	0.097302
515.5819	0.095292
515.8057	0.100962
516.0295	0.102612
516.2532	0.097873
516.4770	0.101406
516.7008	0.101152
516.9246	0.101512
517.1485	0.104368
517.3723	0.101744
517.5961	0.102993
517.8200	0.101681
518.0439	0.100623
518.2677	0.103839
518.4916	0.100771
518.7155	0.103098
518.9395	0.105616
519.1634	0.104135
519.3873	0.108197
519.6113	0.111392
519.8352	0.110609
520.0592	0.107541
520.2832	0.107372
520.5072	0.103945
520.7312	0.101533
520.9552	0.106335
521.1792	0.109551
521.4033	0.110249
521.6273	0.107710
521.8514	0.107478
522.0755	0.107308
522.2996	0.107033
522.5237	0.106547
522.7478	0.108768
522.9719	0.111074
523.1960	0.118183
523.4202	0.113211
523.6443	0.114819
523.8685	0.122541
524.0927	0.123430
524.3169	0.123683
524.5411	0.122710
524.7653	0.120891
524.9895	0.123430
525.2138	0.123387
525.4380	0.123197
525.6623	0.124318
525.8865	0.126349
526.1108	0.133987
526.3351	0.135087
526.5594	0.135298
526.7837	0.135531
527.0081	0.143867
527.2324	0.142132
527.4568	0.145221
527.6811	0.144544
527.9055	0.141307
528.1299	0.142047
528.3543	0.145263
528.5787	0.156433
528.8031	0.159755
529.0276	0.169064
529.2520	0.165806
529.4765	0.165510
529.7009	0.164240
529.9254	0.163775
530.1499	0.168027
530.3744	0.169572
530.5989	0.169550
530.8234	0.170566
531.0480	0.170502
531.2725	0.172597
531.4971	0.173655
531.7217	0.179473
531.9462	0.183450
532.1708	0.181377
532.3954	0.187195
532.6200	0.188062
532.8447	0.195298
533.0693	0.207970
533.2940	0.217216
533.5186	0.227138
533.7433	0.234775
533.9680	0.239768
534.1927	0.243894
534.4174	0.247829
534.6421	0.253097
534.8668	0.261729
535.0916	0.266214
535.3163	0.267208
535.5411	0.270360
535.7659	0.269451
535.9907	0.268837
536.2155	0.266489
536.4403	0.258661
536.6651	0.258259
536.8899	0.253520
537.1148	0.254683
537.3396	0.261898
537.5645	0.273661
537.7894	0.280663
538.0143	0.299281
538.2392	0.307236
538.4641	0.312483
538.6890	0.319591
538.9139	0.325303
539.1389	0.336410
539.3638	0.341848
539.5888	0.351368
539.8138	0.351897
540.0388	0.349929
540.2638	0.344746
540.4888	0.347877
540.7138	0.359979
540.9389	0.372355
541.1639	0.379612
541.3890	0.392919
541.6140	0.391671
541.8391	0.390380
542.0642	0.400514
542.2893	0.417757
542.5144	0.430260
542.7396	0.438067
542.9647	0.437961
543.1899	0.436670
543.4150	0.441325
543.6402	0.457530
543.8654	0.476275
544.0906	0.476973
544.3158	0.494258
544.5410	0.499822
544.7662	0.500584
544.9915	0.515372
545.2167	0.524554
545.4420	0.519857
545.6673	0.500774
545.8926	0.498828
546.1179	0.498743
546.3432	0.499505
546.5685	0.504349
546.7938	0.509512
547.0192	0.529293
547.2445	0.543594
547.4699	0.574483
547.6953	0.605456
547.9206	0.638629
548.1460	0.677070
548.3715	0.678678
548.5969	0.676879
548.8223	0.670109
549.0478	0.650603
549.2732	0.638840
549.4987	0.621090
549.7242	0.625998
549.9496	0.638819
550.1751	0.632451
550.4007	0.632155
550.6262	0.632388
550.8517	0.628262
551.0773	0.618276
551.3028	0.610491
551.5284	0.617218
551.7540	0.655596
551.9796	0.715405
552.2052	0.756935
552.4308	0.775701
552.6564	0.779043
552.8820	0.769121
553.1077	0.757527
553.3333	0.760172
553.5590	0.796582
553.7847	0.808260
554.0104	0.818627
554.2361	0.800961
554.4618	0.789452
554.6875	0.757379
554.9132	0.761103
555.1390	0.793578
555.3648	0.839698
555.5905	0.872089
555.8163	0.886560
556.0421	0.906320
556.2679	0.915290
556.4937	0.911968
556.7195	0.883831
556.9454	0.872322
557.1712	0.870015
557.3971	0.886158
557.6230	0.881990
557.8488	0.901665
558.0747	0.916856
558.3006	0.902617
558.5266	0.878626
558.7525	0.861807
558.9784	0.856370
559.2044	0.868915
559.4303	0.876786
559.6563	0.883302
559.8823	0.923922
560.1083	0.974634
560.3343	1.000000
560.5603	1.000000
560.7863	1.000000
561.0124	1.000000
561.2384	1.000000
561.4645	1.000000
561.6905	1.000000
561.9166	1.000000
562.1427	1.000000
562.3688	1.000000
562.5949	1.000000
562.8211	1.000000
563.0472	1.000000
563.2733	1.000000
563.4995	1.000000
563.7257	1.000000
563.9519	1.000000
564.1781	1.000000
564.4043	1.000000
564.6305	1.000000
564.8567	1.000000
565.0829	1.000000
565.3092	1.000000
565.5355	1.000000
565.7617	1.000000
565.9880	1.000000
566.2143	1.000000
566.4406	1.000000
566.6669	1.000000
566.8932	1.000000
567.1196	1.000000
567.3459	1.000000
567.5723	1.000000
567.7987	1.000000
568.0250	1.000000
568.2514	1.000000
568.4778	1.000000
568.7043	1.000000
568.9307	1.000000
569.1571	1.000000
569.3836	1.000000
569.6100	1.000000
569.8365	1.000000
570.0630	1.000000
570.2895	1.000000
570.5160	1.000000
570.7425	1.000000
570.9690	1.000000
571.1956	1.000000
571.4221	1.000000
571.6487	1.000000
571.8752	1.000000
572.1018	1.000000
572.3284	1.000000
572.5550	1.000000
572.7816	1.000000
573.0082	1.000000
573.2349	1.000000
573.4615	1.000000
573.6882	1.000000
573.9149	1.000000
574.1415	1.000000
574.3682	1.000000
574.5949	1.000000
574.8216	1.000000
575.0484	1.000000
575.2751	1.000000
575.5018	1.000000
575.7286	1.000000
575.9554	1.000000
576.1821	1.000000
576.4089	1.000000
576.6357	1.000000
576.8626	1.000000
577.0894	1.000000
577.3162	1.000000
577.5431	1.000000
577.7699	1.000000
577.9968	1.000000
578.2237	1.000000
578.4505	1.000000
578.6774	1.000000
578.9044	1.000000
579.1313	1.000000
579.3582	1.000000
579.5851	1.000000
579.8121	1.000000
580.0391	1.000000
580.2660	1.000000
580.4930	1.000000
580.7200	1.000000
580.9470	1.000000
581.1741	1.000000
581.4011	1.000000
581.6281	1.000000
581.8552	1.000000
582.0822	1.000000
582.3093	1.000000
582.5364	1.000000
582.7635	1.000000
582.9906	1.000000
583.2177	1.000000
583.4449	1.000000
583.6720	1.000000
583.8991	1.000000
584.1263	1.000000
584.3535	1.000000
584.5807	1.000000
584.8079	1.000000
585.0351	1.000000
585.2623	1.000000
585.4895	1.000000
585.7167	1.000000
585.9440	1.000000
586.1713	1.000000
586.3985	1.000000
586.6258	1.000000
586.8531	1.000000
587.0804	1.000000
587.3077	1.000000
587.5350	1.000000
587.7624	1.000000
587.9897	1.000000
588.2171	1.000000
588.4445	1.000000
588.6718	1.000000
588.8992	1.000000
589.1266	1.000000
589.3540	1.000000
589.5815	1.000000
589.8089	1.000000
590.0363	1.000000
590.2638	1.000000
590.4913	1.000000
590.7187	1.000000
590.9462	1.000000
591.1737	1.000000
591.4012	1.000000
591.6288	1.000000
591.8563	1.000000
592.0838	1.000000
592.3114	1.000000
592.5389	1.000000
592.7665	1.000000
592.9941	1.000000
593.2217	1.000000
593.4493	1.000000
593.6769	1.000000
593.9046	1.000000
594.1322	1.000000
594.3598	1.000000
594.5875	1.000000
594.8152	1.000000
595.0429	1.000000
595.2705	1.000000
595.4983	1.000000
595.7260	1.000000
595.9537	1.000000
596.1814	1.000000
596.4092	1.000000
596.6369	1.000000
596.8647	1.000000
597.0925	1.000000
597.3203	1.000000
597.5481	1.000000
597.7759	1.000000
598.0037	1.000000
598.2315	1.000000
598.4594	1.000000
598.6872	1.000000
598.9151	1.000000
599.1430	1.000000
599.3709	1.000000
599.5988	1.000000
599.8267	1.000000
600.0546	1.000000
600.2825	1.000000
600.5105	1.000000
600.7384	1.000000
600.9664	1.000000
601.1944	1.000000
601.4223	1.000000
601.6503	1.000000
601.8783	1.000000
602.1064	1.000000
602.3344	1.000000
602.5624	1.000000
602.7905	1.000000
603.0185	1.000000
603.2466	1.000000
603.4747	1.000000
603.7028	1.000000
603.9309	1.000000
604.1590	1.000000
604.3871	1.000000
604.6152	1.000000
604.8434	1.000000
605.0715	1.000000
605.2997	1.000000
605.5279	1.000000
605.7561	1.000000
605.9843	1.000000
606.2125	1.000000
606.4407	1.000000
606.6689	1.000000
606.8972	1.000000
607.1254	1.000000
607.3537	1.000000
607.5819	1.000000
607.8102	1.000000
608.0385	1.000000
608.2668	1.000000
608.4951	1.000000
608.7235	1.000000
608.9518	1.000000
609.1801	1.000000
609.4085	1.000000
609.6369	1.000000
609.8653	1.000000
610.0936	1.000000
610.3220	1.000000
610.5505	1.000000
610.7789	1.000000
611.0073	1.000000
611.2357	1.000000
611.4642	1.000000
611.6927	1.000000
611.9211	1.000000
612.1496	1.000000
612.3781	1.000000
612.6066	1.000000
612.8351	1.000000
613.0637	1.000000
613.2922	1.000000
613.5208	1.000000
613.7493	1.000000
613.9779	1.000000
614.2065	1.000000
614.4351	1.000000
614.6637	1.000000
614.8923	1.000000
615.1209	1.000000
615.3495	1.000000
615.5782	1.000000
615.8068	1.000000
616.0355	1.000000
616.2642	1.000000
616.4929	1.000000
616.7216	1.000000
616.9503	1.000000
617.1790	1.000000
617.4077	1.000000
617.6365	1.000000
617.8652	1.000000
618.0940	1.000000
618.3227	1.000000
618.5515	1.000000
618.7803	1.000000
619.0091	1.000000
619.2379	1.000000
619.4667	1.000000
619.6956	1.000000
619.9244	1.000000
620.1533	1.000000
620.3821	1.000000
620.6110	1.000000
620.8399	1.000000
621.0688	1.000000
621.2977	1.000000
621.5266	1.000000
621.7556	1.000000
621.9845	1.000000
622.2135	1.000000
622.4424	1.000000
622.6714	1.000000
622.9004	1.000000
623.1294	1.000000
623.3584	1.000000
623.5874	1.000000
623.8164	1.000000
624.0454	1.000000
624.2745	1.000000
624.5035	1.000000
624.7326	1.000000
624.9617	1.000000
625.1908	1.000000
625.4199	1.000000
625.6490	1.000000
625.8781	1.000000
626.1072	1.000000
626.3364	1.000000
626.5655	1.000000
626.7947	1.000000
627.0238	1.000000
627.2530	1.000000
627.4822	1.000000
627.7114	1.000000
627.9406	1.000000
628.1698	1.000000
628.3991	1.000000
628.6283	1.000000
628.8576	1.000000
629.0868	1.000000
629.3161	1.000000
629.5454	1.000000
629.7747	1.000000
630.0040	1.000000
630.2333	1.000000
630.4626	1.000000
630.6920	1.000000
630.9213	1.000000
631.1507	1.000000
631.3801	1.000000
631.6094	1.000000
631.8388	1.000000
632.0682	1.000000
632.2976	1.000000
632.5271	1.000000
632.7565	1.000000
632.9859	1.000000
633.2154	1.000000
633.4448	1.000000
633.6743	1.000000
633.9038	1.000000
634.1333	1.000000
634.3628	1.000000
634.5923	1.000000
634.8218	1.000000
635.0514	1.000000
635.2809	1.000000
635.5105	1.000000
635.7400	1.000000
635.9696	1.000000
636.1992	1.000000
636.4288	1.000000
636.6584	1.000000
636.8880	1.000000
637.1177	1.000000
637.3473	1.000000
637.5770	1.000000
637.8066	1.000000
638.0363	1.000000
638.2660	1.000000
638.4957	1.000000
638.7254	1.000000
638.9551	1.000000
639.1848	1.000000
639.4145	1.000000
639.6443	1.000000
639.8740	1.000000
640.1038	1.000000
640.3336	1.000000
640.5633	1.000000
640.7931	1.000000
641.0229	1.000000
641.2528	1.000000
641.4826	1.000000
641.7124	1.000000
641.9423	1.000000
642.1721	1.000000
642.4020	1.000000
642.6319	1.000000
642.8617	1.000000
643.0916	1.000000
643.3216	1.000000
643.5515	1.000000
643.7814	1.000000
644.0113	1.000000
644.2413	1.000000
644.4712	1.000000
644.7012	1.000000
644.9312	1.000000
645.1612	1.000000
645.3912	1.000000
645.6212	1.000000
645.8512	1.000000
646.0812	1.000000
646.3113	1.000000
646.5413	1.000000
646.7714	1.000000
647.0015	1.000000
647.2316	1.000000
647.4616	1.000000
647.6918	1.000000
647.9219	1.000000
648.1520	1.000000
648.3821	1.000000
648.6123	1.000000
648.8424	1.000000
649.0726	1.000000
649.3028	1.000000
649.5329	1.000000
649.7631	1.000000
649.9933	1.000000
650.2236	1.000000
650.4538	1.000000
650.6840	1.000000
650.9143	1.000000
651.1445	1.000000
651.3748	1.000000
651.6051	1.000000
651.8354	1.000000
652.0657	1.000000
652.2960	1.000000
652.5263	1.000000
652.7566	1.000000
652.9870	1.000000
653.2173	1.000000
653.4477	1.000000
653.6780	1.000000
653.9084	1.000000
654.1388	1.000000
654.3692	1.000000
654.5996	1.000000
654.8300	1.000000
655.0605	1.000000
655.2909	1.000000
655.5213	1.000000
655.7518	1.000000
655.9823	1.000000
656.2128	1.000000
656.4433	1.000000
656.6738	1.000000
656.9043	1.000000
657.1348	1.000000
657.3653	1.000000
657.5959	1.000000
657.8264	1.000000
658.0570	1.000000
658.2875	1.000000
658.5181	1.000000
658.7487	1.000000
658.9793	1.000000
659.2099	1.000000
659.4406	1.000000
659.6712	1.000000
659.9018	1.000000
660.1325	1.000000
660.3632	1.000000
660.5938	1.000000
660.8245	1.000000
661.0552	1.000000
661.2859	1.000000
661.5166	1.000000
661.7474	1.000000
661.9781	1.000000
662.2088	1.000000
662.4396	1.000000
662.6704	1.000000
662.9011	1.000000
663.1319	1.000000
663.3627	1.000000
663.5935	1.000000
663.8243	1.000000
664.0552	1.000000
664.2860	1.000000
664.5168	1.000000
664.7477	1.000000
664.9786	1.000000
665.2094	1.000000
665.4403	1.000000
665.6712	1.000000
665.9021	1.000000
666.1330	1.000000
666.3640	1.000000
666.5949	1.000000
666.8259	1.000000
667.0568	1.000000
667.2878	1.000000
667.5188	1.000000
667.7497	1.000000
667.9807	1.000000
668.2117	1.000000
668.4428	1.000000
668.6738	1.000000
668.9048	1.000000
669.1359	1.000000
669.3669	1.000000
669.5980	1.000000
669.8291	1.000000
670.0602	1.000000
670.2913	1.000000
670.5224	1.000000
670.7535	1.000000
670.9846	1.000000
671.2157	1.000000
671.4469	1.000000
671.6781	1.000000
671.9092	1.000000
672.1404	1.000000
672.3716	1.000000
672.6028	1.000000
672.8340	1.000000
673.0652	1.000000
673.2964	1.000000
673.5277	1.000000
673.7589	1.000000
673.9902	1.000000
674.2214	1.000000
674.4527	1.000000
674.6840	1.000000
674.9153	1.000000
675.1466	1.000000
675.3779	1.000000
675.6093	1.000000
675.8406	1.000000
676.0719	1.000000
676.3033	1.000000
676.5347	1.000000
676.7661	1.000000
676.9974	1.000000
677.2288	1.000000
677.4602	1.000000
677.6917	1.000000
677.9231	1.000000
678.1545	1.000000
678.3860	1.000000
678.6174	1.000000
678.8489	1.000000
679.0804	1.000000
679.3119	1.000000
679.5434	1.000000
679.7749	1.000000
680.0064	1.000000
680.2379	1.000000
680.4694	1.000000
680.7010	1.000000
680.9325	1.000000
681.1641	1.000000
681.3957	1.000000
681.6273	1.000000
681.8589	1.000000
682.0905	1.000000
682.3221	1.000000
682.5537	1.000000
682.7854	1.000000
683.0170	1.000000
683.2487	1.000000
683.4803	1.000000
683.7120	1.000000
683.9437	1.000000
684.1754	1.000000
684.4071	1.000000
684.6388	1.000000
684.8705	1.000000
685.1023	1.000000
685.3340	1.000000
685.5658	1.000000
685.7975	1.000000
686.0293	1.000000
686.2611	1.000000
686.4929	1.000000
686.7247	1.000000
686.9565	1.000000
687.1883	1.000000
687.4202	1.000000
687.6520	1.000000
687.8838	1.000000
688.1157	1.000000
688.3476	1.000000
688.5795	1.000000
688.8114	1.000000
689.0433	1.000000
689.2752	1.000000
689.5071	1.000000
689.7390	1.000000
689.9710	1.000000
690.2029	1.000000
690.4349	1.000000
690.6669	1.000000
690.8988	1.000000
691.1308	1.000000
691.3628	1.000000
691.5948	1.000000
691.8269	1.000000
692.0589	1.000000
692.2909	1.000000
692.5230	1.000000
692.7550	1.000000
692.9871	1.000000
693.2192	1.000000
693.4513	1.000000
693.6834	1.000000
693.9155	1.000000
694.1476	1.000000
694.3797	1.000000
694.6119	1.000000
694.8440	1.000000
695.0762	1.000000
695.3083	1.000000
695.5405	1.000000
695.7727	1.000000
696.0049	1.000000
696.2371	1.000000
696.4693	1.000000
696.7016	1.000000
696.9338	1.000000
697.1660	1.000000
697.3983	1.000000
697.6306	1.000000
697.8628	1.000000
698.0951	1.000000
698.3274	1.000000
698.5597	1.000000
698.7920	1.000000
699.0243	1.000000
699.2567	1.000000
699.4890	1.000000
699.7214	1.000000
699.9537	1.000000
700.1861	1.000000
700.4185	1.000000
700.6509	1.000000
700.8833	1.000000
701.1157	1.000000
701.3481	1.000000
701.5806	1.000000
701.8130	1.000000
702.0454	1.000000
702.2779	1.000000
702.5104	1.000000
702.7429	1.000000
702.9753	1.000000
703.2078	1.000000
703.4403	1.000000
703.6729	1.000000
703.9054	1.000000
704.1379	1.000000
704.3705	1.000000
704.6030	1.000000
704.8356	1.000000
705.0682	1.000000
705.3008	1.000000
705.5334	1.000000
705.7660	1.000000
705.9986	1.000000
706.2312	1.000000
706.4638	1.000000
706.6965	1.000000
706.9291	1.000000
707.1618	1.000000
707.3945	1.000000
707.6272	1.000000
707.8599	1.000000
708.0926	1.000000
708.3253	1.000000
708.5580	1.000000
708.7907	1.000000
709.0235	1.000000
709.2562	1.000000
709.4890	1.000000
709.7217	1.000000
709.9545	1.000000
710.1873	1.000000
710.4201	1.000000
710.6529	1.000000
710.8857	1.000000
711.1186	1.000000
711.3514	1.000000
711.5842	1.000000
711.8171	1.000000
712.0500	1.000000
712.2828	1.000000
712.5157	1.000000
712.7486	1.000000
712.9815	1.000000
713.2144	1.000000
713.4474	1.000000
713.6803	1.000000
713.9132	1.000000
714.1462	1.000000
714.3791	1.000000
714.6121	1.000000
714.8451	1.000000
715.0781	1.000000
715.3111	1.000000
715.5441	1.000000
715.7771	1.000000
716.0102	1.000000
716.2432	1.000000
716.4762	1.000000
716.7093	1.000000
716.9424	1.000000
717.1754	1.000000
717.4085	1.000000
717.6416	1.000000
717.8747	1.000000
718.1078	1.000000
718.3410	1.000000
718.5741	1.000000
718.8072	1.000000
719.0404	1.000000
719.2736	1.000000
719.5067	1.000000
719.7399	1.000000
719.9731	1.000000
720.2063	1.000000
720.4395	1.000000
720.6727	1.000000
720.9060	1.000000
721.1392	1.000000
721.3725	1.000000
721.6057	1.000000
721.8390	1.000000
722.0723	1.000000
722.3055	1.000000
722.5388	1.000000
722.7721	1.000000
723.0055	1.000000
723.2388	1.000000
723.4721	1.000000
723.7055	1.000000
723.9388	1.000000
724.1722	1.000000
724.4056	1.000000
724.6389	1.000000
724.8723	1.000000
725.1057	1.000000
725.3391	1.000000
725.5726	1.000000
725.8060	1.000000
726.0394	1.000000
726.2729	1.000000
726.5063	1.000000
726.7398	1.000000
726.9733	1.000000
727.2068	1.000000
727.4403	1.000000
727.6738	1.000000
727.9073	1.000000
728.1408	1.000000
728.3743	1.000000
728.6079	1.000000
728.8414	1.000000
729.0750	1.000000
729.3086	1.000000
729.5421	1.000000
729.7757	1.000000
730.0093	1.000000
730.2429	1.000000
730.4766	1.000000
730.7102	1.000000
730.9438	1.000000
731.1775	1.000000
731.4111	1.000000
731.6448	1.000000
731.8785	1.000000
732.1122	1.000000
732.3458	1.000000
732.5795	1.000000
732.8133	1.000000
733.0470	1.000000
733.2807	1.000000
733.5145	1.000000
733.7482	1.000000
733.9820	1.000000
734.2157	1.000000
734.4495	1.000000
734.6833	1.000000
734.9171	1.000000
735.1509	1.000000
735.3847	1.000000
735.6185	1.000000
735.8524	1.000000
736.0862	1.000000
736.3201	1.000000
736.5539	1.000000
736.7878	1.000000
737.0217	1.000000
737.2556	1.000000
737.4895	1.000000
737.7234	1.000000
737.9573	1.000000
738.1912	1.000000
738.4252	1.000000
738.6591	1.000000
738.8931	1.000000
739.1271	1.000000
739.3610	1.000000
739.5950	1.000000
739.8290	1.000000
740.0630	1.000000
740.2970	1.000000
740.5310	1.000000
740.7651	1.000000
740.9991	1.000000
741.2332	1.000000
741.4672	1.000000
741.7013	1.000000
741.9354	1.000000
742.1695	1.000000
742.4036	1.000000
742.6377	1.000000
742.8718	1.000000
743.1059	1.000000
743.3400	1.000000
743.5742	1.000000
743.8083	1.000000
744.0425	1.000000
744.2767	1.000000
744.5108	1.000000
744.7450	1.000000
744.9792	1.000000
745.2134	1.000000
745.4477	1.000000
745.6819	1.000000
745.9161	1.000000
746.1504	1.000000
746.3846	1.000000
746.6189	1.000000
746.8532	1.000000
747.0874	1.000000
747.3217	1.000000
747.5560	1.000000
747.7903	1.000000
748.0247	1.000000
748.2590	1.000000
748.4933	1.000000
748.7277	1.000000
748.9620	1.000000
749.1964	1.000000
749.4308	1.000000
749.6652	1.000000
749.8995	1.000000
750.1339	1.000000
750.3684	1.000000
750.6028	1.000000
750.8372	1.000000
751.0717	1.000000
751.3061	1.000000
751.5406	1.000000
751.7750	1.000000
752.0095	1.000000
752.2440	1.000000
752.4785	1.000000
752.7130	1.000000
752.9475	1.000000
753.1820	1.000000
753.4166	1.000000
753.6511	1.000000
753.8856	1.000000
754.1202	1.000000
754.3548	1.000000
754.5894	1.000000
754.8239	1.000000
755.0585	1.000000
755.2931	1.000000
755.5278	1.000000
755.7624	1.000000
755.9970	1.000000
756.2317	1.000000
756.4663	1.000000
756.7010	1.000000
756.9356	1.000000
757.1703	1.000000
757.4050	1.000000
757.6397	1.000000
757.8744	1.000000
758.1091	1.000000
758.3438	1.000000
758.5786	1.000000
758.8133	1.000000
759.0481	1.000000
759.2828	1.000000
759.5176	1.000000
759.7524	1.000000
759.9872	1.000000
760.2220	1.000000
760.4568	1.000000
760.6916	1.000000
760.9264	1.000000
761.1613	1.000000
761.3961	1.000000
761.6310	1.000000
761.8658	1.000000
762.1007	1.000000
762.3356	1.000000
762.5705	1.000000
762.8054	1.000000
763.0403	1.000000
763.2752	1.000000
763.5101	1.000000
763.7450	1.000000
763.9800	1.000000
764.2149	1.000000
764.4499	1.000000
764.6849	1.000000
764.9198	1.000000
765.1548	1.000000
765.3898	1.000000
765.6248	1.000000
765.8599	1.000000
766.0949	1.000000
766.3299	1.000000
766.5650	1.000000
766.8000	1.000000
767.0351	1.000000
767.2701	1.000000
767.5052	1.000000
767.7403	1.000000
767.9754	1.000000
768.2105	1.000000
768.4456	1.000000
768.6808	1.000000
768.9159	1.000000
769.1510	1.000000
769.3862	1.000000
769.6214	1.000000
769.8565	1.000000
770.0917	1.000000
770.3269	1.000000
770.5621	1.000000
770.7973	1.000000
771.0325	1.000000
771.2677	1.000000
771.5030	1.000000
771.7382	1.000000
771.9735	1.000000
772.2087	1.000000
772.4440	1.000000
772.6793	1.000000
772.9146	1.000000
773.1499	1.000000
773.3852	1.000000
773.6205	1.000000
773.8558	1.000000
774.0911	1.000000
774.3265	1.000000
774.5618	1.000000
774.7972	1.000000
775.0326	1.000000
775.2679	1.000000
775.5033	1.000000
775.7387	1.000000
775.9741	1.000000
776.2095	1.000000
776.4450	1.000000
776.6804	1.000000
776.9158	1.000000
777.1513	1.000000
777.3868	1.000000
777.6222	1.000000
777.8577	1.000000
778.0932	1.000000
778.3287	1.000000
778.5642	1.000000
778.7997	1.000000
779.0352	1.000000
779.2707	1.000000
779.5063	1.000000
779.7418	1.000000
779.9774	1.000000
780.2130	1.000000
780.4485	1.000000
780.6841	1.000000
780.9197	1.000000
781.1553	1.000000
781.3909	1.000000
781.6265	1.000000
781.8622	1.000000
782.0978	1.000000
782.3335	1.000000
782.5691	1.000000
782.8048	1.000000
783.0405	1.000000
783.2761	1.000000
783.5118	1.000000
783.7475	1.000000
783.9832	1.000000
784.2190	1.000000
784.4547	1.000000
784.6904	1.000000
784.9262	1.000000
785.1619	1.000000
785.3977	1.000000
785.6335	1.000000
785.8692	1.000000
786.1050	1.000000
786.3408	1.000000
786.5766	1.000000
786.8124	1.000000
787.0483	1.000000
787.2841	1.000000
787.5199	1.000000
787.7558	1.000000
787.9917	1.000000
788.2275	1.000000
788.4634	1.000000
788.6993	1.000000
788.9352	1.000000
789.1711	1.000000
789.4070	1.000000
789.6429	1.000000
789.8789	1.000000
790.1148	1.000000
790.3507	1.000000
790.5867	1.000000
790.8227	1.000000
791.0586	1.000000
791.2946	1.000000
791.5306	1.000000
791.7666	1.000000
792.0026	1.000000
792.2387	1.000000
792.4747	1.000000
792.7107	1.000000
792.9468	1.000000
793.1828	1.000000
793.4189	1.000000
793.6550	1.000000
793.8910	1.000000
794.1271	1.000000
794.3632	1.000000
794.5993	1.000000
794.8355	1.000000
795.0716	1.000000
795.3077	1.000000
795.5439	1.000000
795.7800	1.000000
796.0162	1.000000
796.2523	1.000000
796.4885	1.000000
796.7247	1.000000
796.9609	1.000000
797.1971	1.000000
797.4333	1.000000
797.6695	1.000000
797.9058	1.000000
798.1420	1.000000
798.3783	1.000000
798.6145	1.000000
798.8508	1.000000
799.0871	1.000000
799.3233	1.000000
799.5596	1.000000
799.7959	1.000000
800.0322	1.000000
800.2686	1.000000
800.5049	1.000000
800.7412	1.000000
800.9776	1.000000
801.2139	1.000000
801.4503	1.000000
801.6867	1.000000
801.9230	1.000000
802.1594	1.000000
802.3958	1.000000
802.6322	1.000000
802.8686	1.000000
803.1051	1.000000
803.3415	1.000000
803.5779	1.000000
803.8144	1.000000
804.0508	1.000000
804.2873	1.000000
804.5238	1.000000
804.7603	1.000000
804.9968	1.000000
805.2333	1.000000
805.4698	1.000000
805.7063	1.000000
805.9428	1.000000
806.1794	1.000000
806.4159	1.000000
806.6525	1.000000
806.8890	1.000000
807.1256	1.000000
807.3622	1.000000
807.5988	1.000000
807.8354	1.000000
808.0720	1.000000
808.3086	1.000000
808.5452	1.000000
808.7818	1.000000
809.0185	1.000000
809.2551	1.000000
809.4918	1.000000
809.7284	1.000000
809.9651	1.000000
810.2018	1.000000
810.4385	1.000000
810.6752	1.000000
810.9119	1.000000
811.1486	1.000000
811.3853	1.000000
811.6221	1.000000
811.8588	1.000000
812.0956	1.000000
812.3323	1.000000
812.5691	1.000000
812.8059	1.000000
813.0427	1.000000
813.2795	1.000000
813.5163	1.000000
813.7531	1.000000
813.9899	1.000000
814.2267	1.000000
814.4636	1.000000
814.7004	1.000000
814.9373	1.000000
815.1742	1.000000
815.4110	1.000000
815.6479	1.000000
815.8848	1.000000
816.1217	1.000000
816.3586	1.000000
816.5955	1.000000
816.8324	1.000000
817.0694	1.000000
817.3063	1.000000
817.5433	1.000000
817.7802	1.000000
818.0172	1.000000
818.2542	1.000000
818.4912	1.000000
818.7282	1.000000
818.9652	1.000000
819.2022	1.000000
819.4392	1.000000
819.6762	1.000000
819.9133	1.000000
820.1503	1.000000
820.3874	1.000000
820.6244	1.000000
820.8615	1.000000
821.0986	1.000000
821.3357	1.000000
821.5727	1.000000
821.8099	1.000000
822.0470	1.000000
822.2841	1.000000
822.5212	1.000000
822.7584	1.000000
822.9955	1.000000
823.2327	1.000000
823.4698	1.000000
823.7070	1.000000
823.9442	1.000000
824.1814	1.000000
824.4186	1.000000
824.6558	1.000000
824.8930	1.000000
825.1302	1.000000
825.3675	1.000000
825.6047	1.000000
825.8419	1.000000
826.0792	1.000000
826.3165	1.000000
826.5537	1.000000
826.7910	1.000000
827.0283	1.000000
827.2656	1.000000
827.5029	1.000000
827.7402	1.000000
827.9776	1.000000
828.2149	1.000000
828.4522	1.000000
828.6896	1.000000
828.9270	1.000000
829.1643	1.000000
829.4017	1.000000
829.6391	1.000000
829.8765	1.000000
830.1139	1.000000
830.3513	1.000000
830.5887	1.000000
830.8261	1.000000
831.0636	1.000000
831.3010	1.000000
831.5385	1.000000
831.7759	1.000000
832.0134	1.000000
832.2509	1.000000
832.4884	1.000000
832.7259	1.000000
832.9634	1.000000
833.2009	1.000000
833.4384	1.000000
833.6759	1.000000
833.9135	1.000000
834.1510	1.000000
834.3886	1.000000
834.6261	1.000000
834.8637	1.000000
835.1013	1.000000
835.3389	1.000000
835.5765	1.000000
835.8141	1.000000
836.0517	1.000000
836.2893	1.000000
836.5269	1.000000
836.7646	1.000000
837.0022	1.000000
837.2399	1.000000
837.4775	1.000000
837.7152	1.000000
837.9529	1.000000
838.1906	1.000000
838.4283	1.000000
838.6660	1.000000
838.9037	1.000000
839.1414	1.000000
839.3791	1.000000
839.6169	1.000000
839.8546	1.000000
840.0924	1.000000
840.3302	1.000000
840.5679	1.000000
840.8057	1.000000
841.0435	1.000000
841.2813	1.000000
841.5191	1.000000
841.7569	1.000000
841.9947	1.000000
842.2326	1.000000
842.4704	1.000000
842.7082	1.000000
842.9461	1.000000
843.1840	1.000000
843.4218	1.000000
843.6597	1.000000
843.8976	1.000000
844.1355	1.000000
844.3734	1.000000
844.6113	1.000000
844.8492	1.000000
845.0872	1.000000
845.3251	1.000000
845.5631	1.000000
845.8010	1.000000
846.0390	1.000000
846.2770	1.000000
846.5149	1.000000
846.7529	1.000000
846.9909	1.000000
847.2289	1.000000
847.4669	1.000000
847.7050	1.000000
847.9430	1.000000
848.1810	1.000000
848.4191	1.000000
848.6571	1.000000
848.8952	1.000000
849.1333	1.000000
849.3713	1.000000
849.6094	1.000000
849.8475	1.000000
850.0856	1.000000
850.3237	1.000000
850.5619	1.000000
850.8000	1.000000
851.0381	1.000000
851.2763	1.000000
851.5144	1.000000
851.7526	1.000000
851.9908	1.000000
852.2289	1.000000
852.4671	1.000000
852.7053	1.000000
852.9435	1.000000
853.1817	1.000000
853.4200	1.000000
853.6582	1.000000
853.8964	1.000000
854.1347	1.000000
854.3729	1.000000
854.6112	1.000000
854.8495	1.000000
855.0877	1.000000
855.3260	1.000000
855.5643	1.000000
855.8026	1.000000
856.0409	1.000000
856.2792	1.000000
856.5176	1.000000
856.7559	1.000000
856.9942	1.000000
857.2326	1.000000
857.4710	1.000000
857.7093	1.000000
857.9477	1.000000
858.1861	1.000000
858.4245	1.000000
858.6629	1.000000
858.9013	1.000000
859.1397	1.000000
859.3781	1.000000
859.6166	1.000000
859.8550	1.000000
860.0935	1.000000
860.3319	1.000000
860.5704	1.000000
860.8089	1.000000
861.0473	1.000000
861.2858	1.000000
861.5243	1.000000
861.7628	1.000000
862.0013	1.000000
862.2399	1.000000
862.4784	1.000000
862.7169	1.000000
862.9555	1.000000
863.1940	1.000000
863.4326	1.000000
863.6712	1.000000
863.9098	1.000000
864.1483	1.000000
864.3869	1.000000
864.6255	1.000000
864.8642	0.209388
865.1028	1.000000
865.3414	0.191320
865.5800	1.000000
865.8187	0.178838
866.0573	1.000000
866.2960	0.164240
866.5347	1.000000
866.7733	0.176320
867.0120	1.000000
867.2507	0.189628
867.4894	1.000000
867.7281	0.188866
867.9669	0.901136
868.2056	0.195340
868.4443	0.192992
868.6831	0.183027
868.9218	0.177315
869.1606	0.171666
869.3993	0.164494
869.6381	0.162569
869.8769	0.163457
870.1157	0.163077
870.3545	0.165763
870.5933	0.171433
870.8321	0.185439
871.0709	0.202131
871.3097	0.200016
871.5486	0.186243
871.7874	0.177928
872.0263	0.175241
872.2651	0.171158
872.5040	0.164748
872.7429	0.162653
872.9818	0.162146
873.2207	0.171476
873.4596	0.177632
873.6985	0.173570
873.9374	0.170375
874.1763	0.174628
874.4153	0.177949
874.6542	0.179028
874.8932	0.184296
875.1321	0.197202
875.3711	0.204712
875.6101	0.210319
875.8491	0.204522
876.0880	0.194663
876.3270	0.193394
876.5661	0.190389
876.8051	0.186835
877.0441	0.186349
877.2831	0.187491
877.5222	0.199296
877.7612	0.219691
878.0003	0.233823
878.2393	0.242709
878.4784	0.238668
878.7175	0.236087
878.9566	0.244444
879.1957	0.254091
879.4348	0.259211
879.6739	0.260523
879.9130	0.262469
880.1521	0.277977
880.3913	0.286058
880.6304	0.280663
880.8696	0.274719
881.1087	0.272328
881.3479	0.263548
881.5871	0.249098
881.8262	0.235135
882.0654	0.224070
882.3046	0.220262
882.5438	0.210784
882.7831	0.210911
883.0223	0.211144
883.2615	0.218866
883.5007	0.215312
883.7400	0.214084
883.9792	0.208584
884.2185	0.207970
884.4578	0.208922
884.6971	0.208203
884.9363	0.200819
885.1756	0.209028
885.4149	0.214169
885.6542	0.229592
885.8936	0.234035
886.1329	0.235876
886.3722	0.222589
886.6116	0.217406
886.8509	0.207780
887.0903	0.202512
887.3296	0.198450
887.5690	0.191278
887.8084	0.188951
888.0478	0.189945
888.2872	0.186877
888.5266	0.186814
888.7660	0.177442
889.0054	0.175030
889.2448	0.172597
889.4843	0.171518
889.7237	0.167900
889.9632	0.161405
890.2026	0.159543
890.4421	0.155439
890.6816	0.148902
890.9211	0.152731
891.1606	0.154000
891.4001	0.164431
891.6396	0.171518
891.8791	0.179832
892.1186	0.175284
892.3581	0.172428
892.5977	0.171010
892.8372	0.170651
893.0768	0.170185
893.3163	0.167371
893.5559	0.164875
893.7955	0.160453
894.0351	0.156857
894.2747	0.153323
894.5143	0.151610
894.7539	0.146511
894.9935	0.145644
895.2331	0.145496
895.4727	0.149494
895.7124	0.158634
895.9520	0.165552
896.1917	0.173189
896.4314	0.166440
896.6710	0.167816
896.9107	0.164409
897.1504	0.166187
897.3901	0.165488
897.6298	0.161257
897.8695	0.161130
898.1092	0.163838
898.3489	0.165256
898.5887	0.165319
898.8284	0.168408
899.0682	0.166652
899.3079	0.156984
899.5477	0.153323
899.7875	0.139403
900.0272	0.138747
900.2670	0.141497
900.5068	0.148119
900.7466	0.148521
900.9864	0.148606
901.2263	0.149917
901.4661	0.155333
901.7059	0.156560
901.9458	0.161215
902.1856	0.158951
902.4255	0.152879
902.6654	0.148161
902.9052	0.145411
903.1451	0.136145
903.3850	0.135975
903.6249	0.135023
903.8648	0.138260
904.1047	0.151208
904.3446	0.159670
904.5846	0.161257
904.8245	0.157978
905.0644	0.163690
905.3044	0.168450
905.5444	0.170904
905.7843	0.179811
906.0243	0.178224
906.2643	0.173866
906.5043	0.165912
906.7443	0.160517
906.9843	0.155481
907.2243	0.153768
907.4643	0.150848
907.7043	0.148458
907.9444	0.147104
908.1844	0.143401
908.4245	0.137054
908.6645	0.131363
908.9046	0.126899
909.1447	0.126116
909.3847	0.125482
909.6248	0.120298
909.8649	0.118458
910.1050	0.121504
910.3452	0.121335
910.5853	0.125799
910.8254	0.126222
911.0655	0.127640
911.3057	0.132379
911.5458	0.127936
911.7860	0.131215
912.0262	0.133860
912.2663	0.131554
912.5065	0.133415
912.7467	0.134939
912.9869	0.130792
913.2271	0.126836
913.4673	0.122351
913.7075	0.114988
913.9478	0.111011
914.1880	0.109763
914.4283	0.106547
914.6685	0.103987
914.9088	0.107626
915.1490	0.105933
915.3893	0.109403
915.6296	0.107182
915.8699	0.113719
916.1102	0.114205
916.3505	0.120552
916.5908	0.120193
916.8311	0.124255
917.0714	0.123937
917.3118	0.134473
917.5521	0.145982
917.7925	0.145982
918.0328	0.143147
918.2732	0.140609
918.5136	0.137499
918.7539	0.134283
918.9943	0.129353
919.2347	0.130327
919.4751	0.123747
919.7155	0.121695
919.9560	0.124953
920.1964	0.125778
920.4368	0.130115
920.6773	0.126920
920.9177	0.120087
921.1582	0.117802
921.3986	0.114840
921.6391	0.110609
921.8796	0.107732
922.1201	0.107118
922.3606	0.113444
922.6011	0.115179
922.8416	0.113169
923.0821	0.110926
923.3226	0.109255
923.5631	0.105214
923.8037	0.107308
924.0442	0.103352
924.2848	0.104050
924.5254	0.098084
924.7659	0.096921
925.0065	0.093155
925.2471	0.092689
925.4877	0.092351
925.7283	0.089029
925.9689	0.089093
926.2095	0.084587
926.4501	0.085496
926.6908	0.079001
926.9314	0.085877
927.1720	0.087316
927.4127	0.087146
927.6533	0.090108
927.8940	0.088839
928.1347	0.089643
928.3754	0.086427
928.6161	0.090489
928.8568	0.085094
929.0975	0.083486
929.3382	0.080292
929.5789	0.079192
929.8196	0.077541
930.0604	0.075489
930.3011	0.075278
930.5419	0.073226
930.7826	0.074114
931.0234	0.077563
931.2642	0.076526
931.5049	0.077266
931.7457	0.074241
931.9865	0.072295
932.2273	0.072633
932.4681	0.076441
932.7089	0.074622
932.9498	0.072908
933.1906	0.073395
933.4314	0.075151
933.6723	0.076314
933.9131	0.079044
934.1540	0.086258
934.3949	0.080673
934.6358	0.075616
934.8766	0.074707
935.1175	0.071237
935.3584	0.072337
935.5993	0.067725
935.8403	0.067619
936.0812	0.063473
936.3221	0.061061
936.5630	0.056237
936.8040	0.060934
937.0449	0.059664
937.2859	0.060193
937.5269	0.056026
937.7678	0.057803
938.0088	0.055687
938.2498	0.054841
938.4908	0.054439
938.7318	0.056174
938.9728	0.059982
939.2138	0.055370
939.4549	0.054629
939.6959	0.054735
939.9369	0.052450
940.1780	0.049806
940.4190	0.046167
940.6601	0.048663
940.9012	0.044791
941.1422	0.049129
941.3833	0.046780
941.6244	0.048050
941.8655	0.048367
942.1066	0.045828
942.3477	0.043734
942.5889	0.043501
942.8300	0.040835
943.0711	0.041068
943.3123	0.041745
943.5534	0.043945
943.7946	0.042316
944.0357	0.044622
944.2769	0.043501
944.5181	0.041703
944.7593	0.044453
945.0005	0.042887
945.2417	0.041428
945.4829	0.044961
945.7241	0.043416
945.9653	0.041935
946.2066	0.041872
946.4478	0.039693
946.6891	0.040920
946.9303	0.039820
947.1716	0.038445
947.4128	0.037154
947.6541	0.037027
947.8954	0.035504
948.1367	0.035652
948.3780	0.036117
948.6193	0.035462
948.8606	0.037746
949.1019	0.038804
949.3433	0.041026
949.5846	0.038677
949.8259	0.035567
950.0673	0.037873
950.3086	0.037641
950.5500	0.041935
950.7914	0.040666
951.0327	0.039862
951.2741	0.043226
951.5155	0.045617
951.7569	0.045574
951.9983	0.046294
952.2398	0.045849
952.4812	0.050229
952.7226	0.050250
952.9640	0.051160
953.2055	0.050525
953.4469	0.049996
953.6884	0.053233
953.9299	0.049975
954.1713	0.046907
954.4128	0.044643
954.6543	0.044072
954.8958	0.041512
955.1373	0.043818
955.3788	0.041978
955.6203	0.041745
955.8618	0.039820
956.1034	0.037895
956.3449	0.040454
956.5865	0.037450
956.8280	0.037196
957.0696	0.034975
957.3111	0.033642
957.5527	0.033917
957.7943	0.031780
958.0359	0.035292
958.2775	0.033473
958.5191	0.033007
958.7607	0.033219
959.0023	0.034552
959.2439	0.032859
959.4856	0.031886
959.7272	0.030659
959.9688	0.031928
960.2105	0.028734
960.4522	0.030067
960.6938	0.029072
960.9355	0.029601
961.1772	0.029199
961.4189	0.029559
961.6606	0.028628
961.9023	0.028163
962.1440	0.027443
962.3857	0.025920
962.6274	0.025201
962.8692	0.026216
963.1109	0.022197
963.3527	0.024778
963.5944	0.022937
963.8362	0.023487
964.0779	0.025031
964.3197	0.025497
964.5615	0.026110
964.8033	0.022747
965.0451	0.026216
965.2869	0.026449
965.5287	0.026216
965.7705	0.028776
966.0123	0.026512
966.2542	0.028078
966.4960	0.028353
966.7379	0.027866
966.9797	0.028797
967.2216	0.028163
967.4634	0.028988
967.7053	0.028015
967.9472	0.028374
968.1891	0.027359
968.4310	0.029622
968.6729	0.026237
968.9148	0.027951
969.1567	0.028586
969.3987	0.028078
969.6406	0.027549
969.8825	0.028967
970.1245	0.026872
970.3664	0.026110
970.6084	0.026407
970.8504	0.028141
971.0923	0.026893
971.3343	0.025455
971.5763	0.024841
971.8183	0.024312
972.0603	0.026280
972.3023	0.024545
972.5443	0.024291
972.7864	0.026280
973.0284	0.022514
973.2704	0.025370
973.5125	0.023170
973.7545	0.023635
973.9966	0.024820
974.2387	0.024185
974.4807	0.025412
974.7228	0.021964
974.9649	0.022450
975.2070	0.025391
975.4491	0.021583
975.6912	0.023952
975.9333	0.021985
976.1755	0.022048
976.4176	0.023402
976.6597	0.023551
976.9019	0.022810
977.1440	0.024312
977.3862	0.023022
977.6283	0.025137
977.8705	0.024926
978.1127	0.027147
978.3549	0.025751
978.5971	0.026195
978.8393	0.024249
979.0815	0.025095
979.3237	0.023318
979.5659	0.026110
979.8082	0.023191
980.0504	0.021900
980.2926	0.020271
980.5349	0.021795
980.7771	0.020779
981.0194	0.018769
981.2617	0.020525
981.5040	0.020166
981.7462	0.019721
981.9885	0.019785
982.2308	0.018071
982.4731	0.019213
982.7155	0.018346
982.9578	0.018494
983.2001	0.016992
983.4424	0.019298
983.6848	0.018346
983.9271	0.017944
984.1695	0.018367
984.4118	0.016950
984.6542	0.018960
984.8966	0.017965
985.1390	0.018346
985.3814	0.016992
985.6238	0.017077
985.8662	0.017267
986.1086	0.017373
986.3510	0.018621
986.5934	0.017246
986.8358	0.016125
987.0783	0.016019
987.3207	0.015617
987.5632	0.014919
987.8056	0.015384
988.0481	0.015680
988.2906	0.016632
988.5331	0.014030
988.7756	0.015426
989.0180	0.014474
989.2605	0.014813
989.5031	0.015130
989.7456	0.014326
989.9881	0.012676
990.2306	0.014496
990.4732	0.013247
990.7157	0.013861
990.9582	0.014157
991.2008	0.013924
991.4434	0.014538
991.6859	0.013290
991.9285	0.013861
992.1711	0.013480
992.4137	0.012888
992.6563	0.014496
992.8989	0.013501
993.1415	0.012570
993.3841	0.013544
993.6267	0.014517
993.8694	0.015934
994.1120	0.014644
994.3547	0.015511
994.5973	0.015426
994.8400	0.014855
995.0826	0.014538
995.3253	0.013332
995.5680	0.012465
995.8107	0.014305
996.0534	0.012803
996.2961	0.014284
996.5388	0.014199
996.7815	0.015278
997.0242	0.013269
997.2670	0.013015
997.5097	0.015109
997.7524	0.015448
997.9952	0.014432
998.2379	0.014538
998.4807	0.013586
998.7235	0.012232
998.9662	0.014030
999.2090	0.013501
999.4518	0.013797
999.6946	0.012740
999.9374	0.011893
1000.1802	0.012972
1000.4230	0.013205
1000.6659	0.013776
1000.9087	0.011724
1001.1515	0.011661
1001.3944	0.013417
1001.6372	0.013374
1001.8801	0.013459
1002.1230	0.012147
1002.3658	0.013607
1002.6087	0.013755
1002.8516	0.012486
1003.0945	0.014221
1003.3374	0.012761
1003.5803	0.012761
1003.8232	0.010751
1004.0661	0.014496
1004.3091	0.011915
1004.5520	0.013269
1004.7949	0.012740
1005.0379	0.012570
1005.2808	0.012338
1005.5238	0.013226
1005.7667	0.011999
1006.0097	0.014094
1006.2527	0.011513
1006.4957	0.014517
1006.7387	0.014242
1006.9817	0.010539
1007.2247	0.013120
1007.4677	0.011893
1007.7107	0.013078
1007.9538	0.013522
1008.1968	0.013036
1008.4398	0.015300
1008.6829	0.013374
1008.9259	0.017140
1009.1690	0.016400
1009.4121	0.016379
1009.6551	0.015067
1009.8982	0.014834
1010.1413	0.016590
1010.3844	0.015025
1010.6275	0.016400
1010.8706	0.014496
1011.1137	0.014686
1011.3568	0.017584
1011.6000	0.016569
1011.8431	0.016040
1012.0863	0.015215
1012.3294	0.014517
1012.5726	0.015807
1012.8157	0.016252
1013.0589	0.015067
1013.3021	0.014157
1013.5452	0.015596
1013.7884	0.015236
1014.0316	0.013374
1014.2748	0.012676
1014.5180	0.015405
1014.7613	0.015744
1015.0045	0.011999
1015.2477	0.012592
1015.4909	0.012676
1015.7342	0.013734
1015.9774	0.012613
1016.2207	0.012845
1016.4640	0.013015
1016.7072	0.012528
1016.9505	0.011386
1017.1938	0.013988
1017.4371	0.014623
1017.6804	0.013692
1017.9237	0.013755
1018.1670	0.013078
1018.4103	0.012634
1018.6536	0.011216
1018.8969	0.013057
1019.1403	0.012295
1019.3836	0.011364
1019.6270	0.011872
1019.8703	0.011153
1020.1137	0.012041
1020.3571	0.011555
1020.6004	0.009799
1020.8438	0.011576
1021.0872	0.011407
1021.3306	0.011809
1021.5740	0.006054
1021.8174	-0.001160
1022.0608	-0.002578
1022.3042	-0.001922
1022.5477	-0.002239
1022.7911	-0.002429
1023.0345	-0.000970
