# Wavelength (nm)	Intensity (a.u.)
197.7802	0.001056
197.9842	-0.000127
198.1882	-0.000296
198.3922	-0.000591
198.5963	0.000655
198.8003	-0.000359
199.0044	0.000042
199.2085	0.000106
199.4126	-0.000380
199.6168	0.000190
199.8209	0.001330
200.0251	0.000718
200.2292	0.001605
200.4334	-0.000380
200.6376	0.000253
200.8418	0.000063
201.0461	-0.000549
201.2503	0.000190
201.4546	-0.000465
201.6589	-0.000422
201.8631	0.001203
202.0674	0.000317
202.2718	0.000380
202.4761	-0.000866
202.6805	0.000042
202.8848	-0.001267
203.0892	0.000443
203.2936	-0.000718
203.4980	0.000106
203.7024	-0.000422
203.9069	0.001203
204.1113	0.000232
204.3158	-0.000084
204.5203	0.000380
204.7248	0.000929
204.9293	-0.000211
205.1338	0.002238
205.3384	0.000063
205.5430	-0.000274
205.7475	0.000063
205.9521	-0.000802
206.1567	0.000676
206.3614	0.000633
206.5660	-0.001203
206.7706	0.000802
206.9753	0.000887
207.1800	0.000866
207.3847	0.000422
207.5894	-0.000253
207.7941	-0.001457
207.9989	0.001267
208.2036	-0.000106
208.4084	0.000317
208.6132	-0.000486
208.8180	-0.000063
209.0228	0.000908
209.2276	-0.000422
209.4325	-0.000127
209.6373	0.000465
209.8422	0.000802
210.0471	0.001372
210.2520	0.001309
210.4569	0.001478
210.6618	-0.000317
210.8668	0.000169
211.0718	0.000887
211.2767	0.000908
211.4817	-0.000866
211.6867	0.000950
211.8918	0.000802
212.0968	0.001119
212.3018	0.000084
212.5069	0.001182
212.7120	0.000992
212.9171	0.001858
213.1222	0.000591
213.3273	0.001457
213.5325	-0.000253
213.7376	0.001795
213.9428	0.000655
214.1480	0.001562
214.3532	0.000232
214.5584	0.000190
214.7636	-0.000169
214.9689	0.001436
215.1741	-0.000338
215.3794	-0.000338
215.5847	-0.000866
215.7900	0.000296
215.9953	-0.000338
216.2007	0.000253
216.4060	0.000274
216.6114	-0.000296
216.8168	0.000338
217.0222	0.000401
217.2276	0.000465
217.4330	0.000866
217.6384	0.000148
217.8439	0.000676
218.0494	-0.000465
218.2548	0.000866
218.4603	-0.000697
218.6659	0.000971
218.8714	-0.001372
219.0769	0.000422
219.2825	0.000465
219.4881	0.000929
219.6936	0.000190
219.8992	-0.000169
220.1049	-0.000063
220.3105	-0.001415
220.5161	0.000908
220.7218	0.000063
220.9275	0.000211
221.1332	-0.000338
221.3389	0.000887
221.5446	-0.000802
221.7503	-0.000317
221.9561	0.000929
222.1618	0.000676
222.3676	0.000887
222.5734	-0.000042
222.7792	0.000929
222.9850	0.000443
223.1909	0.001710
223.3967	-0.000465
223.6026	0.001056
223.8085	0.000443
224.0144	-0.000317
224.2203	0.000908
224.4262	0.000317
224.6322	-0.000486
224.8381	0.000401
225.0441	0.001203
225.2501	0.000084
225.4561	-0.000760
225.6621	-0.000380
225.8681	-0.000845
226.0742	-0.000739
226.2802	-0.000106
226.4863	-0.000549
226.6924	-0.000486
226.8985	-0.000591
227.1046	0.001013
227.3107	0.000211
227.5169	-0.000253
227.7230	0.000000
227.9292	-0.000971
228.1354	0.000992
228.3416	0.000401
228.5478	-0.000739
228.7541	0.000908
228.9603	0.000232
229.1666	-0.000950
229.3729	0.000929
229.5791	0.000908
229.7855	-0.001225
229.9918	0.001605
230.1981	0.001035
230.4045	0.000422
230.6108	-0.000465
230.8172	0.000359
231.0236	0.000676
231.2300	0.000084
231.4364	0.000422
231.6429	-0.000591
231.8493	0.001203
232.0558	0.000570
232.2623	0.000823
232.4688	-0.001394
232.6753	0.000992
232.8818	-0.000507
233.0884	-0.000084
233.2949	0.000866
233.5015	0.000084
233.7081	-0.000253
233.9147	-0.000359
234.1213	-0.000739
234.3279	-0.000802
234.5346	-0.000148
234.7413	0.001203
234.9479	0.000887
235.1546	0.000127
235.3613	-0.000549
235.5680	-0.000422
235.7748	-0.000190
235.9815	-0.000063
236.1883	-0.000908
236.3951	0.000528
236.6018	0.000823
236.8087	0.000570
237.0155	0.000549
237.2223	0.000084
237.4292	-0.000633
237.6360	-0.000570
237.8429	0.000000
238.0498	0.000971
238.2567	-0.000401
238.4636	-0.000612
238.6706	0.000084
238.8775	-0.000612
239.0845	-0.000992
239.2915	-0.000106
239.4985	0.000570
239.7055	0.000549
239.9125	-0.000127
240.1195	0.000633
240.3266	0.000697
240.5337	0.000021
240.7407	-0.000148
240.9478	0.001415
241.1549	0.001056
241.3621	0.001161
241.5692	0.000697
241.7764	0.002175
241.9835	0.000274
242.1907	0.000211
242.3979	0.000084
242.6051	0.000296
242.8124	-0.000380
243.0196	0.000000
243.2269	-0.000401
243.4341	0.001056
243.6414	-0.000253
243.8487	0.000570
244.0560	-0.000950
244.2634	-0.000633
244.4707	-0.000338
244.6781	0.000908
244.8854	0.000359
245.0928	0.000992
245.3002	0.000802
245.5076	0.000359
245.7151	0.000528
245.9225	-0.000338
246.1300	0.000443
246.3375	-0.000338
246.5449	0.000887
246.7524	-0.000465
246.9600	0.000190
247.1675	0.000866
247.3750	0.000317
247.5826	0.000317
247.7902	0.000486
247.9978	0.001605
248.2054	0.000211
248.4130	-0.001077
248.6206	0.000338
248.8283	0.000528
249.0359	-0.000253
249.2436	0.001035
249.4513	-0.001035
249.6590	-0.001246
249.8667	-0.000760
250.0745	-0.000296
250.2822	0.000127
250.4900	0.000465
250.6978	0.000676
250.9056	0.000549
251.1134	0.000401
251.3212	0.000338
251.5290	-0.000486
251.7369	0.000676
251.9447	0.001013
252.1526	0.000507
252.3605	0.001035
252.5684	0.000317
252.7763	0.000760
252.9843	-0.001056
253.1922	-0.000211
253.4002	-0.000422
253.6082	0.000338
253.8162	0.000317
254.0242	0.001499
254.2322	0.000338
254.4402	0.000380
254.6483	-0.000950
254.8564	-0.000211
255.0644	0.000274
255.2725	0.000950
255.4806	-0.000106
255.6888	-0.000549
255.8969	0.001267
256.1051	0.001942
256.3132	-0.000401
256.5214	0.000802
256.7296	0.000845
256.9378	0.000274
257.1460	0.000929
257.3543	-0.000190
257.5625	0.000000
257.7708	-0.000697
257.9791	0.000042
258.1874	0.001035
258.3957	0.000591
258.6040	-0.002069
258.8124	0.000612
259.0207	0.000359
259.2291	-0.000296
259.4375	0.001119
259.6459	0.000296
259.8543	-0.000866
260.0627	0.000528
260.2711	-0.000296
260.4796	-0.000253
260.6881	-0.000570
260.8965	0.000380
261.1050	-0.001499
261.3135	0.001056
261.5221	0.000021
261.7306	0.000823
261.9392	-0.000084
262.1477	0.000676
262.3563	0.000063
262.5649	-0.001710
262.7735	-0.000486
262.9822	0.000802
263.1908	0.000127
263.3995	0.000823
263.6081	0.000718
263.8168	0.001119
264.0255	0.000401
264.2342	0.000253
264.4429	0.000528
264.6517	0.000697
264.8604	0.000106
265.0692	0.000401
265.2780	0.000802
265.4868	0.000802
265.6956	0.001056
265.9044	-0.000063
266.1133	0.000591
266.3221	0.000317
266.5310	0.000823
266.7399	-0.000718
266.9488	-0.000971
267.1577	0.001330
267.3666	-0.000655
267.5755	0.001098
267.7845	0.000528
267.9935	-0.000380
268.2024	0.000106
268.4114	0.000549
268.6205	0.000021
268.8295	0.001499
269.0385	0.001035
269.2476	0.000929
269.4566	0.000063
269.6657	0.000338
269.8748	0.000823
270.0839	0.000676
270.2931	0.000211
270.5022	0.001520
270.7114	0.000401
270.9205	-0.000422
271.1297	-0.001246
271.3389	0.000760
271.5481	-0.000570
271.7573	0.000084
271.9666	-0.000401
272.1758	0.000042
272.3851	-0.000084
272.5944	0.001140
272.8037	-0.000612
273.0130	0.000718
273.2223	0.000528
273.4316	0.000232
273.6410	0.000211
273.8504	-0.000845
274.0597	0.000443
274.2691	-0.000507
274.4785	-0.000887
274.6880	-0.000443
274.8974	-0.000655
275.1069	-0.000274
275.3163	0.000845
275.5258	0.001182
275.7353	0.001710
275.9448	-0.000443
276.1543	0.000148
276.3639	0.000929
276.5734	-0.000760
276.7830	0.001499
276.9926	-0.000908
277.2022	0.000084
277.4118	-0.000950
277.6214	0.000676
277.8310	0.000021
278.0407	-0.000274
278.2503	-0.000042
278.4600	0.000084
278.6697	-0.000401
278.8794	0.000887
279.0891	-0.000760
279.2989	-0.000359
279.5086	0.000042
279.7184	0.001562
279.9281	0.000697
280.1379	0.000992
280.3477	-0.000042
280.5576	0.001140
280.7674	-0.000274
280.9772	0.000380
281.1871	0.000021
281.3970	-0.000274
281.6069	0.000380
281.8168	-0.001056
282.0267	-0.000443
282.2366	0.000887
282.4466	0.000317
282.6565	-0.000148
282.8665	-0.000823
283.0765	0.000211
283.2865	-0.000127
283.4965	-0.000317
283.7065	-0.000232
283.9166	0.000274
284.1266	0.000106
284.3367	0.000127
284.5468	0.001035
284.7569	0.000929
284.9670	-0.001056
285.1771	0.000718
285.3873	0.000211
285.5974	0.001900
285.8076	-0.001203
286.0178	0.001499
286.2280	0.001858
286.4382	0.000823
286.6484	0.001203
286.8587	0.000845
287.0689	0.000211
287.2792	-0.001182
287.4895	0.000887
287.6998	0.000781
287.9101	-0.000443
288.1204	-0.000232
288.3308	0.000528
288.5411	0.000655
288.7515	0.000021
288.9619	0.000465
289.1723	0.000169
289.3827	-0.000380
289.5931	0.000000
289.8035	0.000211
290.0140	0.000486
290.2245	0.001647
290.4349	-0.000655
290.6454	0.001225
290.8559	-0.000274
291.0665	0.001415
291.2770	0.000169
291.4875	0.000380
291.6981	0.000190
291.9087	-0.000148
292.1193	0.000655
292.3299	-0.000106
292.5405	-0.000908
292.7511	0.001351
292.9618	-0.000021
293.1724	-0.000127
293.3831	-0.000633
293.5938	0.000169
293.8045	0.000317
294.0152	0.000823
294.2260	0.000422
294.4367	-0.000739
294.6475	0.001520
294.8582	-0.000148
295.0690	-0.000190
295.2798	0.000443
295.4906	-0.000676
295.7015	0.001605
295.9123	-0.001647
296.1232	-0.000823
296.3340	-0.000528
296.5449	0.000633
296.7558	0.000591
296.9667	0.000063
297.1777	0.000106
297.3886	0.000823
297.5995	0.001140
297.8105	-0.000063
298.0215	-0.000781
298.2325	0.000992
298.4435	0.000507
298.6545	0.000380
298.8656	-0.000950
299.0766	0.000528
299.2877	-0.000169
299.4988	0.000971
299.7099	0.000655
299.9210	-0.000063
300.1321	0.000443
300.3432	0.000084
300.5544	0.000591
300.7655	0.001626
300.9767	-0.000127
301.1879	0.000528
301.3991	0.000528
301.6103	0.001541
301.8215	0.001013
302.0328	0.000676
302.2441	-0.000528
302.4553	0.000232
302.6666	-0.000465
302.8779	0.001520
303.0892	0.000211
303.3006	0.000232
303.5119	0.000718
303.7233	0.000359
303.9346	0.000106
304.1460	0.000633
304.3574	0.001203
304.5688	0.000486
304.7803	-0.000570
304.9917	0.001964
305.2031	0.001900
305.4146	-0.000465
305.6261	0.000823
305.8376	0.000148
306.0491	-0.000845
306.2606	0.000528
306.4722	0.000127
306.6837	-0.000443
306.8953	0.000274
307.1069	0.000338
307.3184	-0.000422
307.5301	0.001246
307.7417	-0.000465
307.9533	-0.001225
308.1650	-0.000971
308.3766	0.000106
308.5883	0.000296
308.8000	-0.000296
309.0117	-0.001056
309.2234	0.000021
309.4351	-0.000823
309.6469	-0.001203
309.8586	0.000570
310.0704	0.000823
310.2822	-0.000042
310.4940	0.000718
310.7058	-0.000823
310.9176	-0.000148
311.1295	-0.000021
311.3413	-0.000232
311.5532	-0.000211
311.7651	-0.001267
311.9770	-0.000823
312.1889	0.001035
312.4008	-0.000190
312.6127	0.000528
312.8247	0.000845
313.0366	0.000739
313.2486	-0.000823
313.4606	-0.000823
313.6726	-0.001225
313.8846	0.001161
314.0967	-0.000465
314.3087	0.000274
314.5208	0.000507
314.7328	0.000148
314.9449	-0.000887
315.1570	0.000549
315.3692	-0.000401
315.5813	0.000697
315.7934	-0.000992
316.0056	0.000317
316.2177	-0.001309
316.4299	0.001499
316.6421	-0.000084
316.8543	-0.000401
317.0666	-0.000063
317.2788	0.000950
317.4911	-0.000127
317.7033	-0.001161
317.9156	0.000591
318.1279	0.000422
318.3402	0.001394
318.5525	0.001119
318.7649	0.000021
318.9772	-0.000570
319.1896	0.000021
319.4019	0.000929
319.6143	-0.000106
319.8267	0.001119
320.0392	0.000823
320.2516	0.000866
320.4640	0.000718
320.6765	0.000950
320.8890	0.000274
321.1014	0.001267
321.3139	0.001900
321.5265	-0.000232
321.7390	0.000253
321.9515	0.000148
322.1641	-0.000676
322.3766	0.000465
322.5892	-0.000528
322.8018	-0.000232
323.0144	-0.000570
323.2270	0.000021
323.4397	-0.000232
323.6523	0.000486
323.8650	0.000401
324.0777	0.001035
324.2904	-0.001098
324.5031	-0.000211
324.7158	0.000127
324.9285	0.000802
325.1412	0.000929
325.3540	0.000169
325.5668	-0.000253
325.7796	0.000211
325.9924	0.000612
326.2052	0.000274
326.4180	-0.000253
326.6308	-0.000063
326.8437	-0.000950
327.0566	0.001457
327.2694	-0.000633
327.4823	0.000000
327.6952	-0.000253
327.9082	0.000781
328.1211	0.000507
328.3340	0.000042
328.5470	-0.000401
328.7600	0.000528
328.9730	0.001394
329.1860	-0.000866
329.3990	0.000106
329.6120	0.000106
329.8251	-0.001077
330.0381	0.000739
330.2512	0.000063
330.4643	0.000443
330.6774	-0.000422
330.8905	0.001499
331.1036	-0.001119
331.3167	-0.000338
331.5299	0.000169
331.7431	-0.000507
331.9562	-0.000591
332.1694	0.000359
332.3826	0.001098
332.5959	-0.000211
332.8091	0.000380
333.0223	0.000338
333.2356	0.000380
333.4489	0.001499
333.6622	-0.001140
333.8755	-0.000866
334.0888	-0.000929
334.3021	-0.000465
334.5154	0.000021
334.7288	-0.000401
334.9422	0.000465
335.1555	0.000127
335.3689	-0.000971
335.5823	0.000422
335.7958	0.000169
336.0092	0.000697
336.2227	-0.001182
336.4361	0.000443
336.6496	-0.001246
336.8631	0.000908
337.0766	0.001288
337.2901	0.000190
337.5036	0.000148
337.7172	0.000908
337.9307	0.000338
338.1443	0.000845
338.3579	-0.000148
338.5715	0.000887
338.7851	-0.000908
338.9987	0.000612
339.2124	-0.001626
339.4260	-0.001140
339.6397	-0.001394
339.8533	-0.000274
340.0670	-0.000823
340.2807	0.001879
340.4945	-0.000422
340.7082	-0.001013
340.9219	-0.000338
341.1357	-0.000992
341.3495	0.000190
341.5633	0.000929
341.7771	-0.001182
341.9909	-0.000296
342.2047	0.000169
342.4185	0.000718
342.6324	-0.000422
342.8463	0.000338
343.0601	0.000655
343.2740	0.001246
343.4879	0.000591
343.7019	-0.000211
343.9158	0.000317
344.1297	-0.000021
344.3437	0.000063
344.5577	0.000845
344.7717	0.000359
344.9857	0.000802
345.1997	-0.000211
345.4137	-0.000106
345.6277	0.000676
345.8418	-0.000359
346.0559	-0.000211
346.2699	-0.000190
346.4840	-0.000802
346.6981	-0.000781
346.9123	-0.000317
347.1264	-0.000760
347.3406	0.000338
347.5547	0.001288
347.7689	0.000507
347.9831	0.000317
348.1973	-0.000655
348.4115	0.000063
348.6257	0.000760
348.8400	0.000655
349.0542	0.000739
349.2685	0.002006
349.4828	-0.000655
349.6971	0.000274
349.9114	-0.000211
350.1257	0.000000
350.3400	-0.000422
350.5544	0.000929
350.7687	0.000549
350.9831	0.000380
351.1975	0.001056
351.4119	-0.001372
351.6263	0.000042
351.8407	-0.000317
352.0552	-0.000971
352.2696	-0.000486
352.4841	0.000802
352.6986	0.000211
352.9131	0.001225
353.1276	0.000443
353.3421	0.000781
353.5566	0.000486
353.7712	-0.000992
353.9858	0.002048
354.2003	0.000042
354.4149	0.000317
354.6295	0.000169
354.8441	-0.000190
355.0588	0.000443
355.2734	0.000106
355.4881	-0.000359
355.7027	-0.000760
355.9174	-0.000612
356.1321	0.000106
356.3468	-0.000718
356.5615	0.000465
356.7763	-0.000190
356.9910	0.000760
357.2058	-0.000380
357.4206	0.000971
357.6353	-0.001182
357.8501	0.000528
358.0650	0.000380
358.2798	0.000992
358.4946	0.000739
358.7095	0.000338
358.9243	0.001203
359.1392	0.000253
359.3541	0.000422
359.5690	0.000570
359.7839	-0.000359
359.9989	-0.000042
360.2138	0.000401
360.4288	-0.000169
360.6438	0.000401
360.8587	0.000296
361.0737	0.000845
361.2888	0.002344
361.5038	-0.000211
361.7188	-0.000486
361.9339	0.000760
362.1489	0.000971
362.3640	0.000570
362.5791	0.000063
362.7942	0.001288
363.0093	0.000781
363.2245	0.000802
363.4396	0.001246
363.6548	-0.000549
363.8699	0.000992
364.0851	0.000000
364.3003	-0.000359
364.5155	-0.000528
364.7308	0.000528
364.9460	0.000866
365.1612	-0.000570
365.3765	0.000549
365.5918	0.001520
365.8071	0.000380
366.0224	0.000718
366.2377	-0.000739
366.4530	0.000296
366.6684	0.000127
366.8837	0.000106
367.0991	0.000380
367.3145	0.000380
367.5299	0.000063
367.7453	0.001731
367.9607	0.000000
368.1761	0.000169
368.3916	-0.000570
368.6070	0.000655
368.8225	-0.000021
369.0380	0.002513
369.2535	0.000655
369.4690	-0.000929
369.6845	0.001119
369.9001	0.001436
370.1156	-0.000380
370.3312	-0.000148
370.5468	0.000042
370.7624	-0.000063
370.9780	-0.000148
371.1936	-0.000549
371.4092	-0.000232
371.6249	0.000781
371.8405	0.000718
372.0562	0.001119
372.2719	0.000317
372.4876	-0.001056
372.7033	0.000887
372.9190	0.001013
373.1348	-0.002301
373.3505	-0.000127
373.5663	0.000106
373.7820	-0.000042
373.9978	-0.000549
374.2136	0.001098
374.4294	-0.000148
374.6453	0.000148
374.8611	-0.000338
375.0770	0.000591
375.2928	0.001309
375.5087	0.000908
375.7246	-0.000570
375.9405	-0.001140
376.1564	0.000781
376.3724	0.001140
376.5883	0.000190
376.8043	0.000380
377.0203	-0.000253
377.2362	0.001056
377.4522	-0.000823
377.6682	0.000633
377.8843	0.000591
378.1003	0.000633
378.3164	-0.000063
378.5324	-0.000296
378.7485	0.000823
378.9646	0.000042
379.1807	0.000971
379.3968	0.000570
379.6129	0.000359
379.8291	0.001182
380.0452	-0.000063
380.2614	0.000908
380.4776	0.000380
380.6938	-0.001288
380.9100	-0.001140
381.1262	0.000591
381.3424	0.000929
381.5587	0.001520
381.7749	-0.000739
381.9912	-0.000443
382.2075	0.000591
382.4238	0.000950
382.6401	0.000486
382.8564	-0.000401
383.0728	0.000612
383.2891	0.001436
383.5055	-0.000338
383.7219	0.000760
383.9382	-0.000359
384.1546	-0.001309
384.3711	0.000359
384.5875	0.000148
384.8039	0.001288
385.0204	0.001605
385.2368	0.000486
385.4533	0.000866
385.6698	0.000338
385.8863	0.000380
386.1028	0.001415
386.3194	0.000528
386.5359	0.001267
386.7525	0.002069
386.9690	0.000359
387.1856	-0.000591
387.4022	0.001246
387.6188	0.001140
387.8355	0.001562
388.0521	0.001478
388.2687	0.001372
388.4854	0.001520
388.7021	0.001731
388.9188	0.001415
389.1355	0.001879
389.3522	0.000802
389.5689	0.002365
389.7856	0.002048
390.0024	0.001668
390.2192	0.001710
390.4359	0.001879
390.6527	0.001816
390.8695	0.000443
391.0863	0.001752
391.3032	0.002513
391.5200	0.002217
391.7369	0.002914
391.9537	0.002111
392.1706	0.003399
392.3875	0.004603
392.6044	0.002766
392.8213	0.004540
393.0383	0.003146
393.2552	0.003442
393.4722	0.001985
393.6891	0.004920
393.9061	0.003252
394.1231	0.004265
394.3401	0.003737
394.5572	0.003357
394.7742	0.004371
394.9912	0.004793
395.2083	0.004708
395.4254	0.005131
395.6425	0.004962
395.8596	0.005300
396.0767	0.005680
396.2938	0.005342
396.5109	0.006292
396.7281	0.006630
396.9453	0.005257
397.1624	0.006778
397.3796	0.006482
397.5968	0.005257
397.8140	0.006186
398.0313	0.006735
398.2485	0.008066
398.4658	0.006672
398.6830	0.007707
398.9003	0.007580
399.1176	0.008319
399.3349	0.008361
399.5522	0.009016
399.7696	0.008403
399.9869	0.007411
400.2043	0.008952
400.4216	0.008509
400.6390	0.007897
400.8564	0.007115
401.0738	0.009016
401.2912	0.009734
401.5087	0.011021
401.7261	0.009100
401.9436	0.010114
402.1610	0.009248
402.3785	0.011000
402.5960	0.010304
402.8135	0.009734
403.0310	0.011317
403.2486	0.010050
403.4661	0.010430
403.6837	0.009945
403.9013	0.010240
404.1189	0.013175
404.3365	0.011803
404.5541	0.013513
404.7717	0.011613
404.9893	0.012880
405.2070	0.011782
405.4246	0.012584
405.6423	0.013914
405.8600	0.012732
406.0777	0.011507
406.2954	0.014526
406.5131	0.013809
406.7309	0.013281
406.9486	0.012014
407.1664	0.012288
407.3842	0.013682
407.6020	0.012774
407.8198	0.013555
408.0376	0.012816
408.2554	0.012858
408.4733	0.013597
408.6911	0.014949
408.9090	0.014843
409.1269	0.014463
409.3448	0.013872
409.5627	0.013872
409.7806	0.015202
409.9985	0.014252
410.2165	0.015857
410.4344	0.016574
410.6524	0.015857
410.8704	0.015012
411.0884	0.016617
411.3064	0.014336
411.5244	0.015455
411.7424	0.015962
411.9605	0.014970
412.1785	0.015350
412.3966	0.013935
412.6147	0.017335
412.8328	0.017588
413.0509	0.016553
413.2690	0.017630
413.4871	0.017862
413.7053	0.016891
413.9234	0.016722
414.1416	0.018200
414.3598	0.017398
414.5780	0.016617
414.7962	0.017440
415.0144	0.018095
415.2326	0.017588
415.4509	0.019003
415.6692	0.018580
415.8874	0.017694
416.1057	0.018939
416.3240	0.017187
416.5423	0.018686
416.7606	0.018876
416.9790	0.018158
417.1973	0.018665
417.4157	0.019171
417.6341	0.017799
417.8524	0.018517
418.0708	0.016237
418.2893	0.019003
418.5077	0.018137
418.7261	0.020143
418.9446	0.019129
419.1630	0.017250
419.3815	0.020713
419.6000	0.022212
419.8185	0.020734
420.0370	0.019932
420.2555	0.020523
420.4741	0.021578
420.6926	0.021008
420.9112	0.023141
421.1298	0.021853
421.3483	0.024091
421.5669	0.025463
421.7856	0.024978
422.0042	0.026667
422.2228	0.026604
422.4415	0.025189
422.6601	0.024260
422.8788	0.023373
423.0975	0.023732
423.3162	0.024133
423.5349	0.025273
423.7536	0.022676
423.9724	0.023817
424.1911	0.023690
424.4099	0.022993
424.6287	0.023078
424.8475	0.023268
425.0663	0.022381
425.2851	0.022106
425.5039	0.022698
425.7228	0.022275
425.9416	0.022106
426.1605	0.022001
426.3793	0.022486
426.5982	0.021283
426.8171	0.022486
427.0361	0.021198
427.2550	0.023078
427.4739	0.024091
427.6929	0.023141
427.9118	0.024260
428.1308	0.021980
428.3498	0.023099
428.5688	0.023817
428.7878	0.023437
429.0068	0.022149
429.2259	0.025273
429.4449	0.026076
429.6640	0.027807
429.8831	0.027300
430.1022	0.029538
430.3213	0.027533
430.5404	0.028082
430.7595	0.027680
430.9787	0.027849
431.1978	0.024788
431.4170	0.026667
431.6362	0.022423
431.8553	0.022866
432.0745	0.023225
432.2938	0.023795
432.5130	0.022275
432.7322	0.022486
432.9515	0.022698
433.1707	0.023183
433.3900	0.022191
433.6093	0.023078
433.8286	0.026751
434.0479	0.027680
434.2673	0.025738
434.4866	0.025147
434.7059	0.024619
434.9253	0.025548
435.1447	0.027258
435.3641	0.024640
435.5835	0.024619
435.8029	0.022845
436.0223	0.024239
436.2418	0.025590
436.4612	0.025210
436.6807	0.025463
436.9001	0.024492
437.1196	0.026055
437.3391	0.026076
437.5586	0.023795
437.7782	0.025020
437.9977	0.024028
438.2173	0.024366
438.4368	0.025231
438.6564	0.024598
438.8760	0.026202
439.0956	0.025442
439.3152	0.025379
439.5348	0.025041
439.7545	0.024872
439.9741	0.022613
440.1938	0.023922
440.4135	0.023817
440.6331	0.024936
440.8528	0.025231
441.0725	0.026963
441.2923	0.029011
441.5120	0.029496
441.7318	0.029327
441.9515	0.030552
442.1713	0.030277
442.3911	0.030109
442.6109	0.028060
442.8307	0.028377
443.0505	0.028398
443.2703	0.027406
443.4902	0.026836
443.7101	0.028124
443.9299	0.029370
444.1498	0.029707
444.3697	0.026709
444.5896	0.029475
444.8095	0.024957
445.0295	0.028039
445.2494	0.027195
445.4694	0.025316
445.6894	0.026899
445.9093	0.026414
446.1293	0.026540
446.3493	0.026857
446.5694	0.027617
446.7894	0.026899
447.0094	0.025527
447.2295	0.024492
447.4496	0.026477
447.6696	0.025062
447.8897	0.024260
448.1098	0.025949
448.3300	0.025844
448.5501	0.024978
448.7702	0.024070
448.9904	0.025442
449.2106	0.025780
449.4307	0.023415
449.6509	0.025105
449.8711	0.023035
450.0914	0.022824
450.3116	0.022381
450.5318	0.024556
450.7521	0.025400
450.9724	0.023183
451.1926	0.022698
451.4129	0.024070
451.6332	0.021494
451.8535	0.022507
452.0739	0.023289
452.2942	0.020734
452.5146	0.023479
452.7349	0.020818
452.9553	0.020523
453.1757	0.020417
453.3961	0.020459
453.6165	0.021937
453.8369	0.019868
454.0574	0.020122
454.2778	0.019171
454.4983	0.018791
454.7188	0.019277
454.9393	0.019910
455.1597	0.021051
455.3803	0.019742
455.6008	0.021367
455.8213	0.019889
456.0419	0.019932
456.2624	0.018074
456.4830	0.019974
456.7036	0.020417
456.9242	0.018432
457.1448	0.019235
457.3654	0.018264
457.5860	0.019235
457.8067	0.020671
458.0274	0.019615
458.2480	0.019171
458.4687	0.017715
458.6894	0.020122
458.9101	0.018960
459.1308	0.021304
459.3516	0.018200
459.5723	0.018791
459.7931	0.019298
460.0138	0.019932
460.2346	0.020037
460.4554	0.017039
460.6762	0.017356
460.8970	0.019171
461.1178	0.017989
461.3387	0.017546
461.5595	0.017039
461.7804	0.016912
462.0013	0.016448
462.2222	0.016786
462.4431	0.015561
462.6640	0.016870
462.8849	0.015751
463.1059	0.015624
463.3268	0.015371
463.5478	0.016617
463.7687	0.017525
463.9897	0.015878
464.2107	0.016511
464.4317	0.016764
464.6528	0.015814
464.8738	0.015477
465.0948	0.016026
465.3159	0.015118
465.5370	0.015287
465.7581	0.017609
465.9792	0.017503
466.2003	0.016574
466.4214	0.015413
466.6425	0.013640
466.8637	0.015519
467.0848	0.013154
467.3060	0.013260
467.5272	0.013534
467.7484	0.012225
467.9696	0.012014
468.1908	0.012352
468.4120	0.013302
468.6333	0.012626
468.8545	0.011338
469.0758	0.013027
469.2970	0.011528
469.5183	0.010388
469.7396	0.008403
469.9610	0.011254
470.1823	0.010325
470.4036	0.010620
470.6250	0.009290
470.8463	0.009438
471.0677	0.009332
471.2891	0.009501
471.5105	0.009332
471.7319	0.009945
471.9533	0.008593
472.1748	0.009586
472.3962	0.007876
472.6177	0.008087
472.8391	0.008741
473.0606	0.011359
473.2821	0.009227
473.5036	0.009755
473.7251	0.009058
473.9467	0.009691
474.1682	0.009248
474.3898	0.008298
474.6113	0.009480
474.8329	0.010304
475.0545	0.008741
475.2761	0.007685
475.4977	0.007559
475.7193	0.008234
475.9410	0.007622
476.1626	0.007918
476.3843	0.008931
476.6060	0.009818
476.8277	0.007305
477.0494	0.007580
477.2711	0.005785
477.4928	0.007327
477.7145	0.006609
477.9363	0.008488
478.1580	0.007327
478.3798	0.007707
478.6016	0.007854
478.8234	0.007348
479.0452	0.006778
479.2670	0.008277
479.4888	0.007327
479.7107	0.009037
479.9325	0.006334
480.1544	0.008108
480.3763	0.006313
480.5982	0.007327
480.8201	0.006820
481.0420	0.008382
481.2639	0.008192
481.4859	0.007685
481.7078	0.008129
481.9298	0.008213
482.1517	0.007115
482.3737	0.007685
482.5957	0.006693
482.8177	0.007432
483.0398	0.006165
483.2618	0.006398
483.4838	0.006588
483.7059	0.006017
483.9280	0.005785
484.1501	0.005067
484.3721	0.006081
484.5943	0.007685
484.8164	0.007369
485.0385	0.006820
485.2606	0.007685
485.4828	0.007833
485.7050	0.015857
485.9271	0.019108
486.1493	0.020164
486.3715	0.017250
486.5937	0.014379
486.8160	0.010684
487.0382	0.009649
487.2605	0.010367
487.4827	0.009248
487.7050	0.008551
487.9273	0.004983
488.1496	0.005891
488.3719	0.004687
488.5942	0.005110
488.8165	0.004265
489.0389	0.006482
489.2612	0.004202
489.4836	0.005975
489.7060	0.004835
489.9284	0.003716
490.1508	0.003801
490.3732	0.003991
490.5956	0.004033
490.8180	0.003653
491.0405	0.003864
491.2630	0.005469
491.4854	0.004371
491.7079	0.007052
491.9304	0.004413
492.1529	0.004497
492.3755	0.003442
492.5980	0.004286
492.8205	0.003399
493.0431	0.004223
493.2657	0.003632
493.4882	0.005680
493.7108	0.004096
493.9334	0.005067
494.1561	0.004328
494.3787	0.004793
494.6013	0.003632
494.8240	0.002344
495.0466	0.003653
495.2693	0.004244
495.4920	0.003906
495.7147	0.004159
495.9374	0.003674
496.1601	0.004920
496.3829	0.003991
496.6056	0.005616
496.8284	0.004371
497.0511	0.002449
497.2739	0.003885
497.4967	0.003463
497.7195	0.004012
497.9423	0.004328
498.1652	0.003589
498.3880	0.004645
498.6109	0.002935
498.8337	0.004772
499.0566	0.002576
499.2795	0.004265
499.5024	0.003885
499.7253	0.003230
499.9482	0.004708
500.1712	0.003442
500.3941	0.002977
500.6171	0.003653
500.8400	0.002618
501.0630	0.003864
501.2860	0.003442
501.5090	0.003547
501.7320	0.002555
501.9551	0.004054
502.1781	0.002470
502.4012	0.003294
502.6242	0.002745
502.8473	0.004328
503.0704	0.002238
503.2935	0.003674
503.5166	0.003315
503.7397	0.003758
503.9628	0.002660
504.1860	0.001605
504.4092	0.002766
504.6323	0.003779
504.8555	0.002238
505.0787	0.002513
505.3019	0.003484
505.5251	0.002259
505.7483	0.002217
505.9716	0.002111
506.1948	0.002048
506.4181	0.003167
506.6414	0.003674
506.8647	0.002428
507.0880	0.003737
507.3113	0.003125
507.5346	0.002998
507.7579	0.003864
507.9813	0.002428
508.2046	0.003230
508.4280	0.003991
508.6514	0.003969
508.8748	0.002618
509.0982	0.003948
509.3216	0.001942
509.5450	0.004518
509.7685	0.003505
509.9919	0.002154
510.2154	0.002133
510.4388	0.002724
510.6623	0.001668
510.8858	0.002090
511.1093	0.004603
511.3329	0.004645
511.5564	0.001562
511.7799	0.001942
512.0035	0.003167
512.2270	0.003209
512.4506	0.003674
512.6742	0.002829
512.8978	0.001816
513.1214	0.003399
513.3451	0.002301
513.5687	0.002344
513.7923	0.003188
514.0160	0.002703
514.2397	0.002217
514.4634	0.002829
514.6871	0.002998
514.9108	0.003716
515.1345	0.002745
515.3582	0.005215
515.5819	0.001774
515.8057	0.002703
516.0295	0.003230
516.2532	0.003484
516.4770	0.002724
516.7008	0.003885
516.9246	0.002808
517.1485	0.003378
517.3723	0.002808
517.5961	0.001964
517.8200	0.001246
518.0439	0.003294
518.2677	0.001626
518.4916	0.004371
518.7155	0.002745
518.9395	0.002006
519.1634	0.002576
519.3873	0.003801
519.6113	0.002977
519.8352	0.003019
520.0592	0.003104
520.2832	0.002639
520.5072	0.002576
520.7312	0.002998
520.9552	0.004561
521.1792	0.002681
521.4033	0.004476
521.6273	0.002048
521.8514	0.002893
522.0755	0.004413
522.2996	0.004540
522.5237	0.002534
522.7478	0.003779
522.9719	0.003062
523.1960	0.002872
523.4202	0.002639
523.6443	0.003230
523.8685	0.004075
524.0927	0.003273
524.3169	0.003843
524.5411	0.002513
524.7653	0.002956
524.9895	0.004497
525.2138	0.003357
525.4380	0.004413
525.6623	0.004307
525.8865	0.004983
526.1108	0.003758
526.3351	0.005215
526.5594	0.004582
526.7837	0.003463
527.0081	0.003188
527.2324	0.004159
527.4568	0.003779
527.6811	0.003484
527.9055	0.004012
528.1299	0.005131
528.3543	0.003906
528.5787	0.004898
528.8031	0.004181
529.0276	0.004645
529.2520	0.004772
529.4765	0.005405
529.7009	0.005110
529.9254	0.006778
530.1499	0.003843
530.3744	0.005637
530.5989	0.004835
530.8234	0.006017
531.0480	0.005490
531.2725	0.005363
531.4971	0.004603
531.7217	0.005257
531.9462	0.005131
532.1708	0.005300
532.3954	0.006165
532.6200	0.004877
532.8447	0.005110
533.0693	0.005827
533.2940	0.007179
533.5186	0.006524
533.7433	0.007369
533.9680	0.007707
534.1927	0.007876
534.4174	0.008340
534.6421	0.006271
534.8668	0.008572
535.0916	0.008150
535.3163	0.008066
535.5411	0.008129
535.7659	0.007728
535.9907	0.008973
536.2155	0.009480
536.4403	0.007158
536.6651	0.008192
536.8899	0.006946
537.1148	0.006778
537.3396	0.007939
537.5645	0.008298
537.7894	0.008805
538.0143	0.008572
538.2392	0.010177
538.4641	0.008657
538.6890	0.009353
538.9139	0.009628
539.1389	0.009544
539.3638	0.009987
539.5888	0.009163
539.8138	0.009924
540.0388	0.009755
540.2638	0.010198
540.4888	0.009396
540.7138	0.011402
540.9389	0.011486
541.1639	0.009755
541.3890	0.009691
541.6140	0.011866
541.8391	0.010831
542.0642	0.012077
542.2893	0.011402
542.5144	0.011148
542.7396	0.010283
542.9647	0.012183
543.1899	0.013703
543.4150	0.012626
543.6402	0.013956
543.8654	0.012858
544.0906	0.014336
544.3158	0.014083
544.5410	0.013534
544.7662	0.014548
544.9915	0.013450
545.2167	0.014653
545.4420	0.013027
545.6673	0.015139
545.8926	0.014928
546.1179	0.015012
546.3432	0.013070
546.5685	0.014906
546.7938	0.014125
547.0192	0.013977
547.2445	0.015667
547.4699	0.019805
547.6953	0.017060
547.9206	0.018644
548.1460	0.017926
548.3715	0.021557
548.5969	0.018834
548.8223	0.018538
549.0478	0.019720
549.2732	0.017947
549.4987	0.018264
549.7242	0.018221
549.9496	0.017588
550.1751	0.019446
550.4007	0.018770
550.6262	0.018601
550.8517	0.019742
551.0773	0.017419
551.3028	0.017672
551.5284	0.018517
551.7540	0.019024
551.9796	0.019995
552.2052	0.021473
552.4308	0.021283
552.6564	0.022360
552.8820	0.021536
553.1077	0.020459
553.3333	0.021388
553.5590	0.021431
553.7847	0.023521
554.0104	0.021494
554.2361	0.022001
554.4618	0.022951
554.6875	0.020839
554.9132	0.021621
555.1390	0.024851
555.3648	0.021959
555.5905	0.025189
555.8163	0.025379
556.0421	0.027680
556.2679	0.026582
556.4937	0.026012
556.7195	0.024513
556.9454	0.025738
557.1712	0.025358
557.3971	0.026245
557.6230	0.025295
557.8488	0.027723
558.0747	0.027047
558.3006	0.025295
558.5266	0.025020
558.7525	0.024830
558.9784	0.024534
559.2044	0.026012
559.4303	0.025611
559.6563	0.027131
559.8823	0.027976
560.1083	0.028356
560.3343	0.030087
560.5603	0.030763
560.7863	0.031945
561.0124	0.032368
561.2384	0.033740
561.4645	0.034289
561.6905	0.033064
561.9166	0.034437
562.1427	0.032157
562.3688	0.032642
562.5949	0.031903
562.8211	0.033423
563.0472	0.033698
563.2733	0.036506
563.4995	0.035450
563.7257	0.034648
563.9519	0.035598
564.1781	0.037984
564.4043	0.038681
564.6305	0.038829
564.8567	0.035493
565.0829	0.040475
565.3092	0.038786
565.5355	0.041236
565.7617	0.038090
565.9880	0.041151
566.2143	0.040074
566.4406	0.043769
566.6669	0.040666
566.8932	0.041362
567.1196	0.045986
567.3459	0.049702
567.5723	0.051370
567.7987	0.056227
568.0250	0.054812
568.2514	0.055065
568.4778	0.059964
568.7043	0.061611
568.9307	0.065369
569.1571	0.073857
569.3836	0.076053
569.6100	0.083442
569.8365	0.092817
570.0630	0.100777
570.2895	0.100503
570.5160	0.102171
570.7425	0.104514
570.9690	0.108294
571.1956	0.117267
571.4221	0.123137
571.6487	0.125839
571.8752	0.130358
572.1018	0.133630
572.3284	0.135742
572.5550	0.130548
572.7816	0.120582
573.0082	0.116802
573.2349	0.121279
573.4615	0.137177
573.6882	0.148685
573.9149	0.152886
574.1415	0.157954
574.3682	0.164541
574.5949	0.170453
574.8216	0.171171
575.0484	0.171467
575.2751	0.172206
575.5018	0.175035
575.7286	0.167328
575.9554	0.155800
576.1821	0.155589
576.4089	0.160128
576.6357	0.168152
576.8626	0.176724
577.0894	0.183290
577.3162	0.191799
577.5431	0.191250
577.7699	0.216355
577.9968	0.240467
578.2237	0.240488
578.4505	0.230100
578.6774	0.213103
578.9044	0.199844
579.1313	0.187914
579.3582	0.194544
579.5851	0.200625
579.8121	0.206410
580.0391	0.207191
580.2660	0.209810
580.4930	0.207508
580.7200	0.200203
580.9470	0.206347
581.1741	0.238672
581.4011	0.288607
581.6281	0.317427
581.8552	0.323086
582.0822	0.317132
582.3093	0.301444
582.5364	0.286517
582.7635	0.256851
582.9906	0.240889
583.2177	0.222584
583.4449	0.209725
583.6720	0.195684
583.8991	0.186648
584.1263	0.195558
584.3535	0.198936
584.5807	0.197817
584.8079	0.206178
585.0351	0.223766
585.2623	0.233246
585.4895	0.234724
585.7167	0.234133
585.9440	0.227461
586.1713	0.211456
586.3985	0.201047
586.6258	0.198155
586.8531	0.201723
587.0804	0.213526
587.3077	0.226659
587.5350	0.230881
587.7624	0.227419
587.9897	0.218551
588.2171	0.207487
588.4445	0.203116
588.6718	0.198492
588.8992	0.187682
589.1266	0.174359
589.3540	0.167202
589.5815	0.163739
589.8089	0.164098
590.0363	0.160593
590.2638	0.156940
590.4913	0.150268
590.7187	0.144187
590.9462	0.138888
591.1737	0.133419
591.4012	0.128690
591.6288	0.130252
591.8563	0.133989
592.0838	0.131646
592.3114	0.135319
592.5389	0.153309
592.7665	0.177674
592.9941	0.197479
593.2217	0.200773
593.4493	0.197437
593.6769	0.198302
593.9046	0.192285
594.1322	0.182594
594.3598	0.173156
594.5875	0.167138
594.8152	0.178856
595.0429	0.194650
595.2705	0.197500
595.4983	0.194629
595.7260	0.183058
595.9537	0.176259
596.1814	0.161839
596.4092	0.151999
596.6369	0.143638
596.8647	0.141865
597.0925	0.145539
597.3203	0.150374
597.5481	0.148938
597.7759	0.149339
598.0037	0.147228
598.2315	0.138867
598.4594	0.142604
598.6872	0.155969
598.9151	0.176281
599.1430	0.183860
599.3709	0.187281
599.5988	0.176745
599.8267	0.176492
600.0546	0.180419
600.2825	0.184431
600.5105	0.187218
600.7384	0.179279
600.9664	0.185043
601.1944	0.185212
601.4223	0.187323
601.6503	0.177759
601.8783	0.172501
602.1064	0.170981
602.3344	0.166737
602.5624	0.161986
602.7905	0.170474
603.0185	0.173346
603.2466	0.177252
603.4747	0.181981
603.7028	0.190828
603.9309	0.182066
604.1590	0.173747
604.3871	0.167708
604.6152	0.163380
604.8434	0.159727
605.0715	0.153499
605.2997	0.155673
605.5279	0.162937
605.7561	0.172586
605.9843	0.173177
606.2125	0.174803
606.4407	0.165914
606.6689	0.156623
606.8972	0.156455
607.1254	0.159981
607.3537	0.156856
607.5819	0.157595
607.8102	0.162683
608.0385	0.156096
608.2668	0.147988
608.4951	0.147291
608.7235	0.145623
608.9518	0.143089
609.1801	0.138677
609.4085	0.135404
609.6369	0.135172
609.8653	0.141738
610.0936	0.150226
610.3220	0.152190
610.5505	0.149170
610.7789	0.140408
611.0073	0.136924
611.2357	0.137769
611.4642	0.136713
611.6927	0.140112
611.9211	0.139437
612.1496	0.132997
612.3781	0.129218
612.6066	0.128584
612.8351	0.127191
613.0637	0.132026
613.2922	0.126304
613.5208	0.126620
613.7493	0.126937
613.9779	0.125670
614.2065	0.128141
614.4351	0.124340
614.6637	0.124805
614.8923	0.126072
615.1209	0.128626
615.3495	0.128394
615.5782	0.130337
615.8068	0.128098
616.0355	0.125016
616.2642	0.119970
616.4929	0.112981
616.7216	0.114374
616.9503	0.114860
617.1790	0.110321
617.4077	0.112516
617.6365	0.109919
617.8652	0.112200
618.0940	0.114037
618.3227	0.109582
618.5515	0.099447
618.7803	0.098264
619.0091	0.093239
619.2379	0.092310
619.4667	0.093345
619.6956	0.091972
619.9244	0.096090
620.1533	0.095689
620.3821	0.099827
620.6110	0.094696
620.8399	0.090157
621.0688	0.080128
621.2977	0.077087
621.5266	0.071999
621.7556	0.077636
621.9845	0.083991
622.2135	0.084097
622.4424	0.081796
622.6714	0.086631
622.9004	0.087433
623.1294	0.086778
623.3584	0.089988
623.5874	0.087855
623.8164	0.091592
624.0454	0.084055
624.2745	0.088003
624.5035	0.089481
624.7326	0.091276
624.9617	0.090917
625.1908	0.088531
625.4199	0.083379
625.6490	0.082640
625.8781	0.078333
626.1072	0.079199
626.3364	0.076158
626.5655	0.072590
626.7947	0.070584
627.0238	0.072336
627.2530	0.070352
627.4822	0.071196
627.7114	0.068705
627.9406	0.067142
628.1698	0.063870
628.3991	0.059119
628.6283	0.058401
628.8576	0.057852
629.0868	0.062835
629.3161	0.061125
629.5454	0.062983
629.7747	0.062202
630.0040	0.060217
630.2333	0.060133
630.4626	0.059478
630.6920	0.057599
630.9213	0.055720
631.1507	0.053862
631.3801	0.054031
631.6094	0.053249
631.8388	0.053165
632.0682	0.053017
632.2976	0.052320
632.5271	0.047211
632.7565	0.046831
632.9859	0.044318
633.2154	0.046810
633.4448	0.042460
633.6743	0.046134
633.9038	0.045817
634.1333	0.044508
634.3628	0.044698
634.5923	0.042249
634.8218	0.039969
635.0514	0.041848
635.2809	0.040138
635.5105	0.041531
635.7400	0.043685
635.9696	0.040644
636.1992	0.043030
636.4288	0.046028
636.6584	0.046387
636.8880	0.047380
637.1177	0.045374
637.3473	0.042692
637.5770	0.041193
637.8066	0.040623
638.0363	0.041806
638.2660	0.041510
638.4957	0.042840
638.7254	0.042946
638.9551	0.041848
639.1848	0.039927
639.4145	0.040285
639.6443	0.038032
639.8740	0.036875
640.1038	0.037691
640.3336	0.036532
640.5633	0.038353
640.7931	0.035822
641.0229	0.033406
641.2528	0.035084
641.4826	0.032672
641.7124	0.031730
641.9423	0.033591
642.1721	0.031782
642.4020	0.030212
642.6319	0.029630
642.8617	0.030118
643.0916	0.029312
643.3216	0.028098
643.5515	0.030586
643.7814	0.028920
644.0113	0.030216
644.2413	0.026333
644.4712	0.028244
644.7012	0.026499
644.9312	0.026723
645.1612	0.026024
645.3912	0.027889
645.6212	0.025392
645.8512	0.025510
646.0812	0.025792
646.3113	0.026978
646.5413	0.024750
646.7714	0.025895
647.0015	0.023263
647.2316	0.026419
647.4616	0.024930
647.6918	0.027024
647.9219	0.026489
648.1520	0.027520
648.3821	0.029355
648.6123	0.033133
648.8424	0.033374
649.0726	0.033545
649.3028	0.033779
649.5329	0.034142
649.7631	0.032592
649.9933	0.033343
650.2236	0.031001
650.4538	0.029923
650.6840	0.029141
650.9143	0.029286
651.1445	0.027055
651.3748	0.028777
651.6051	0.030340
651.8354	0.033094
652.0657	0.031020
652.2960	0.031633
652.5263	0.030403
652.7566	0.033775
652.9870	0.033700
653.2173	0.033684
653.4477	0.032371
653.6780	0.032921
653.9084	0.031107
654.1388	0.033065
654.3692	0.032769
654.5996	0.036652
654.8300	0.040783
655.0605	0.066383
655.2909	0.189859
655.5213	0.527359
655.7518	0.960013
655.9823	1.000000
656.2128	1.000000
656.4433	1.000000
656.6738	1.000000
656.9043	1.000000
657.1348	0.870916
657.3653	0.708606
657.5959	0.613874
657.8264	0.532767
658.0570	0.481031
658.2875	0.448776
658.5181	0.414814
658.7487	0.376171
658.9793	0.364099
659.2099	0.330317
659.4406	0.251987
659.6712	0.168491
659.9018	0.099046
660.1325	0.061946
660.3632	0.039588
660.5938	0.030261
660.8245	0.026492
661.0552	0.025332
661.2859	0.024228
661.5166	0.024415
661.7474	0.021734
661.9781	0.022892
662.2088	0.023412
662.4396	0.021226
662.6704	0.023680
662.9011	0.022406
663.1319	0.021835
663.3627	0.022741
663.5935	0.021945
663.8243	0.022407
664.0552	0.020841
664.2860	0.022466
664.5168	0.023355
664.7477	0.023243
664.9786	0.023623
665.2094	0.024209
665.4403	0.024050
665.6712	0.024451
665.9021	0.022464
666.1330	0.023776
666.3640	0.022253
666.5949	0.021892
666.8259	0.023544
667.0568	0.020598
667.2878	0.020736
667.5188	0.020398
667.7497	0.021556
667.9807	0.021846
668.2117	0.021405
668.4428	0.018939
668.6738	0.021093
668.9048	0.022676
669.1359	0.022233
669.3669	0.022803
669.5980	0.020354
669.8291	0.023014
670.0602	0.022191
670.2913	0.023859
670.5224	0.021705
670.7535	0.021811
670.9846	0.023690
671.2157	0.024788
671.4469	0.026371
671.6781	0.028821
671.9092	0.031375
672.1404	0.032325
672.3716	0.035556
672.6028	0.034352
672.8340	0.035176
673.0652	0.031798
673.2964	0.033550
673.5277	0.030657
673.7589	0.029686
673.9902	0.028567
674.2214	0.028821
674.4527	0.027279
674.6840	0.028884
674.9153	0.027448
675.1466	0.027807
675.3779	0.028018
675.6093	0.027448
675.8406	0.025421
676.0719	0.025548
676.3033	0.025442
676.5347	0.023183
676.7661	0.026667
676.9974	0.024154
677.2288	0.024344
677.4602	0.025231
677.6917	0.027258
677.9231	0.026540
678.1545	0.028588
678.3860	0.029665
678.6174	0.030636
678.8489	0.028884
679.0804	0.032009
679.3119	0.032283
679.5434	0.033318
679.7749	0.034289
680.0064	0.034838
680.2379	0.035598
680.4694	0.034986
680.7010	0.032790
680.9325	0.031819
681.1641	0.034521
681.3957	0.036759
681.6273	0.036274
681.8589	0.034352
682.0905	0.031924
682.3221	0.033993
682.5537	0.032368
682.7854	0.029686
683.0170	0.030552
683.2487	0.029940
683.4803	0.030784
683.7120	0.032706
683.9437	0.032072
684.1754	0.032769
684.4071	0.034437
684.6388	0.036464
684.8705	0.038998
685.1023	0.042376
685.3340	0.043157
685.5658	0.042228
685.7975	0.044952
686.0293	0.043980
686.2611	0.043537
686.4929	0.045353
686.7247	0.043178
686.9565	0.043030
687.1883	0.043621
687.4202	0.045712
687.6520	0.042291
687.8838	0.042334
688.1157	0.041679
688.3476	0.040159
688.5795	0.037055
688.8114	0.036612
689.0433	0.036527
689.2752	0.036865
689.5071	0.037245
689.7390	0.038026
689.9710	0.035704
690.2029	0.033635
690.4349	0.036232
690.6669	0.033846
690.8988	0.034036
691.1308	0.037330
691.3628	0.036147
691.5948	0.038892
691.8269	0.038364
692.0589	0.036907
692.2909	0.036865
692.5230	0.037477
692.7550	0.038702
692.9871	0.038216
693.2192	0.038491
693.4513	0.038850
693.6834	0.038681
693.9155	0.037097
694.1476	0.033445
694.3797	0.036865
694.6119	0.032135
694.8440	0.034585
695.0762	0.033276
695.3083	0.033825
695.5405	0.031819
695.7727	0.031016
696.0049	0.030679
696.2371	0.030552
696.4693	0.031375
696.7016	0.035999
696.9338	0.040095
697.1660	0.039758
697.3983	0.038090
697.6306	0.034395
697.8628	0.038322
698.0951	0.038153
698.3274	0.038955
698.5597	0.037414
698.7920	0.037773
699.0243	0.037541
699.2567	0.036232
699.4890	0.033487
699.7214	0.035577
699.9537	0.032853
700.1861	0.032410
700.4185	0.031249
700.6509	0.032494
700.8833	0.031967
701.1157	0.029264
701.3481	0.025569
701.5806	0.028483
701.8130	0.029180
702.0454	0.028799
702.2779	0.027828
702.5104	0.031396
702.7429	0.030932
702.9753	0.032473
703.2078	0.028208
703.4403	0.029454
703.6729	0.027490
703.9054	0.028757
704.1379	0.026920
704.3705	0.029011
704.6030	0.027955
704.8356	0.027047
705.0682	0.023669
705.3008	0.025020
705.5334	0.023458
705.7660	0.023352
705.9986	0.025485
706.2312	0.027680
706.4638	0.029581
706.6965	0.034944
706.9291	0.033001
707.1618	0.039103
707.3945	0.039546
707.6272	0.036422
707.8599	0.038660
708.0926	0.037688
708.3253	0.039040
708.5580	0.033212
708.7907	0.035324
709.0235	0.037562
709.2562	0.033972
709.4890	0.034880
709.7217	0.031861
709.9545	0.035239
710.1873	0.034331
710.4201	0.033402
710.6529	0.034226
710.8857	0.033782
711.1186	0.033993
711.3514	0.032917
711.5842	0.032283
711.8171	0.031587
712.0500	0.028778
712.2828	0.027533
712.5157	0.028314
712.7486	0.029707
712.9815	0.028968
713.2144	0.030784
713.4474	0.029581
713.6803	0.033635
713.9132	0.031967
714.1462	0.033276
714.3791	0.034585
714.6121	0.034732
714.8451	0.034986
715.0781	0.035155
715.3111	0.034965
715.5441	0.031967
715.7771	0.032874
716.0102	0.031460
716.2432	0.029834
716.4762	0.030277
716.7093	0.028905
716.9424	0.029707
717.1754	0.029306
717.4085	0.027469
717.6416	0.026667
717.8747	0.029158
718.1078	0.029011
718.3410	0.029011
718.5741	0.027870
718.8072	0.028609
719.0404	0.030362
719.2736	0.029728
719.5067	0.029644
719.7399	0.029538
719.9731	0.028821
720.2063	0.028947
720.4395	0.027892
720.6727	0.030256
720.9060	0.029855
721.1392	0.029180
721.3725	0.031439
721.6057	0.029011
721.8390	0.029454
722.0723	0.030320
722.3055	0.028588
722.5388	0.028905
722.7721	0.024619
723.0055	0.027554
723.2388	0.026941
723.4721	0.027617
723.7055	0.027786
723.9388	0.029264
724.1722	0.026076
724.4056	0.026266
724.6389	0.028293
724.8723	0.029180
725.1057	0.030024
725.3391	0.032473
725.5726	0.032579
725.8060	0.033803
726.0394	0.033423
726.2729	0.034352
726.5063	0.033635
726.7398	0.033719
726.9733	0.032199
727.2068	0.032853
727.4403	0.031038
727.6738	0.032980
727.9073	0.033487
728.1408	0.035218
728.3743	0.031671
728.6079	0.034965
728.8414	0.033423
729.0750	0.034268
729.3086	0.034880
729.5421	0.037773
729.7757	0.035387
730.0093	0.038237
730.2429	0.036591
730.4766	0.037688
730.7102	0.038596
730.9438	0.041552
731.1775	0.044255
731.4111	0.041405
731.6448	0.041742
731.8785	0.042988
732.1122	0.042629
732.3458	0.041024
732.5795	0.041975
732.8133	0.043495
733.0470	0.043790
733.2807	0.044403
733.5145	0.042122
733.7482	0.044086
733.9820	0.047021
734.2157	0.050547
734.4495	0.051919
734.6833	0.051117
734.9171	0.050230
735.1509	0.049407
735.3847	0.048541
735.6185	0.047105
735.8524	0.047633
736.0862	0.047316
736.3201	0.050800
736.5539	0.050040
736.7878	0.048203
737.0217	0.048942
737.2556	0.048858
737.4895	0.046409
737.7234	0.044888
737.9573	0.040264
738.1912	0.040708
738.4252	0.043051
738.6591	0.040328
738.8931	0.042587
739.1271	0.044023
739.3610	0.046810
739.5950	0.048499
739.8290	0.044656
740.0630	0.042629
740.2970	0.044149
740.5310	0.038765
740.7651	0.040750
740.9991	0.039399
741.2332	0.034965
741.4672	0.036063
741.7013	0.033867
741.9354	0.035725
742.1695	0.035514
742.4036	0.035260
742.6377	0.035957
742.8718	0.035345
743.1059	0.032938
743.3400	0.032473
743.5742	0.031291
743.8083	0.030404
744.0425	0.028588
744.2767	0.028525
744.5108	0.028060
744.7450	0.030742
744.9792	0.029961
745.2134	0.027870
745.4477	0.028926
745.6819	0.026815
745.9161	0.028989
746.1504	0.028377
746.3846	0.030003
746.6189	0.029032
746.8532	0.029370
747.0874	0.029285
747.3217	0.032790
747.5560	0.033550
747.7903	0.031734
748.0247	0.029243
748.2590	0.030679
748.4933	0.028272
748.7277	0.030531
748.9620	0.030256
749.1964	0.029897
749.4308	0.033888
749.6652	0.035239
749.8995	0.035493
750.1339	0.036591
750.3684	0.040011
750.6028	0.040243
750.8372	0.040391
751.0717	0.038237
751.3061	0.038153
751.5406	0.040391
751.7750	0.040644
752.0095	0.041447
752.2440	0.038449
752.4785	0.038533
752.7130	0.038026
752.9475	0.037921
753.1820	0.039230
753.4166	0.037604
753.6511	0.040813
753.8856	0.040454
754.1202	0.041489
754.3548	0.040328
754.5894	0.039589
754.8239	0.040074
755.0585	0.038765
755.2931	0.040813
755.5278	0.041383
755.7624	0.043073
755.9970	0.044382
756.2317	0.045289
756.4663	0.047148
756.7010	0.048668
756.9356	0.049913
757.1703	0.052067
757.4050	0.055086
757.6397	0.059900
757.8744	0.059943
758.1091	0.058338
758.3438	0.057156
758.5786	0.054390
758.8133	0.055572
759.0481	0.055593
759.2828	0.056691
759.5176	0.057303
759.7524	0.061273
759.9872	0.059457
760.2220	0.064081
760.4568	0.064588
760.6916	0.063490
760.9264	0.062244
761.1613	0.062202
761.3961	0.058908
761.6310	0.056839
761.8658	0.053862
762.1007	0.052320
762.3356	0.051201
762.5705	0.051539
762.8054	0.048942
763.0403	0.050526
763.2752	0.051370
763.5101	0.050378
763.7450	0.050674
763.9800	0.049892
764.2149	0.051581
764.4499	0.056881
764.6849	0.059267
764.9198	0.059879
765.1548	0.059816
765.3898	0.055234
765.6248	0.055952
765.8599	0.052384
766.0949	0.050103
766.3299	0.046556
766.5650	0.044276
766.8000	0.041447
767.0351	0.041299
767.2701	0.039483
767.5052	0.038786
767.7403	0.040708
767.9754	0.039631
768.2105	0.042545
768.4456	0.046345
768.6808	0.049597
768.9159	0.048077
769.1510	0.049322
769.3862	0.046725
769.6214	0.046430
769.8565	0.044403
770.0917	0.043094
770.3269	0.045543
770.5621	0.044952
770.7973	0.046050
771.0325	0.050610
771.2677	0.046979
771.5030	0.048203
771.7382	0.046007
771.9735	0.044360
772.2087	0.038681
772.4440	0.042207
772.6793	0.042840
772.9146	0.039905
773.1499	0.039293
773.3852	0.037815
773.6205	0.036020
773.8558	0.037034
774.0911	0.037815
774.3265	0.033803
774.5618	0.032135
774.7972	0.032832
775.0326	0.031291
775.2679	0.031460
775.5033	0.029813
775.7387	0.027321
775.9741	0.026224
776.2095	0.026245
776.4450	0.027195
776.6804	0.023268
776.9158	0.026224
777.1513	0.025485
777.3868	0.024724
777.6222	0.024978
777.8577	0.025907
778.0932	0.024112
778.3287	0.026160
778.5642	0.027596
778.7997	0.027047
779.0352	0.032114
779.2707	0.030446
779.5063	0.033613
779.7418	0.031122
779.9774	0.029243
780.2130	0.027976
780.4485	0.028483
780.6841	0.030531
780.9197	0.030848
781.1553	0.033212
781.3909	0.034162
781.6265	0.037118
781.8622	0.035197
782.0978	0.033086
782.3335	0.034289
782.5691	0.034078
782.8048	0.034838
783.0405	0.032241
783.2761	0.034268
783.5118	0.034648
783.7475	0.034162
783.9832	0.033677
784.2190	0.031692
784.4547	0.029581
784.6904	0.029792
784.9262	0.027786
785.1619	0.028652
785.3977	0.028652
785.6335	0.030066
785.8692	0.030341
786.1050	0.027723
786.3408	0.026456
786.5766	0.028018
786.8124	0.027174
787.0483	0.026625
787.2841	0.027976
787.5199	0.029961
787.7558	0.028947
787.9917	0.028799
788.2275	0.028525
788.4634	0.030890
788.6993	0.033360
788.9352	0.030784
789.1711	0.031059
789.4070	0.030995
789.6429	0.028419
789.8789	0.026984
790.1148	0.025442
790.3507	0.026392
790.5867	0.024724
790.8227	0.024851
791.0586	0.023880
791.2946	0.024914
791.5306	0.024450
791.7666	0.025041
792.0026	0.021769
792.2387	0.022022
792.4747	0.024175
792.7107	0.022043
792.9468	0.023458
793.1828	0.021937
793.4189	0.021346
793.6550	0.022740
793.8910	0.027849
794.1271	0.030383
794.3632	0.032621
794.5993	0.029370
794.8355	0.030784
795.0716	0.032452
795.3077	0.033888
795.5439	0.031945
795.7800	0.028124
796.0162	0.027575
796.2523	0.024387
796.4885	0.024218
796.7247	0.021431
796.9609	0.020248
797.1971	0.021832
797.4333	0.021410
797.6695	0.024893
797.9058	0.024724
798.1420	0.021156
798.3783	0.022254
798.6145	0.024133
798.8508	0.023627
799.0871	0.023648
799.3233	0.022402
799.5596	0.021642
799.7959	0.020586
800.0322	0.019446
800.2686	0.021241
800.5049	0.020016
800.7412	0.018728
800.9776	0.018264
801.2139	0.018855
801.4503	0.020481
801.6867	0.018454
801.9230	0.018116
802.1594	0.017862
802.3958	0.016237
802.6322	0.015308
802.8686	0.017356
803.1051	0.017271
803.3415	0.019129
803.5779	0.019235
803.8144	0.017166
804.0508	0.017419
804.2873	0.016237
804.5238	0.017039
804.7603	0.015857
804.9968	0.017926
805.2333	0.016764
805.4698	0.017018
805.7063	0.016490
805.9428	0.019615
806.1794	0.020227
806.4159	0.023880
806.6525	0.023246
806.8890	0.023183
807.1256	0.024239
807.3622	0.023056
807.5988	0.023901
807.8354	0.022529
808.0720	0.021790
808.3086	0.021156
808.5452	0.022149
808.7818	0.021030
809.0185	0.022592
809.2551	0.023795
809.4918	0.021135
809.7284	0.020797
809.9651	0.019594
810.2018	0.019742
810.4385	0.017651
810.6752	0.019530
810.9119	0.017525
811.1486	0.017546
811.3853	0.017440
811.6221	0.017609
811.8588	0.017356
812.0956	0.014780
812.3323	0.017271
812.5691	0.015118
812.8059	0.014273
813.0427	0.013893
813.2795	0.014822
813.5163	0.016469
813.7531	0.018559
813.9899	0.017778
814.2267	0.017250
814.4636	0.016912
814.7004	0.016976
814.9373	0.016216
815.1742	0.015920
815.4110	0.018707
815.6479	0.015793
815.8848	0.013576
816.1217	0.012436
816.3586	0.013513
816.5955	0.015223
816.8324	0.014505
817.0694	0.014400
817.3063	0.014379
817.5433	0.014885
817.7802	0.013133
818.0172	0.012858
818.2542	0.014062
818.4912	0.012521
818.7282	0.014569
818.9652	0.013809
819.2022	0.013640
819.4392	0.010958
819.6762	0.012478
819.9133	0.011317
820.1503	0.011676
820.3874	0.015118
820.6244	0.015667
820.8615	0.016110
821.0986	0.016237
821.3357	0.015582
821.5727	0.015244
821.8099	0.013661
822.0470	0.013661
822.2841	0.014167
822.5212	0.012858
822.7584	0.013724
822.9955	0.012837
823.2327	0.013048
823.4698	0.011486
823.7070	0.011190
823.9442	0.009544
824.1814	0.012816
824.4186	0.011760
824.6558	0.011212
824.8930	0.011613
825.1302	0.010515
825.3675	0.012056
825.6047	0.012880
825.8419	0.011760
826.0792	0.012014
826.3165	0.011296
826.5537	0.011676
826.7910	0.012267
827.0283	0.013893
827.2656	0.012753
827.5029	0.014991
827.7402	0.010853
827.9776	0.012711
828.2149	0.011803
828.4522	0.012288
828.6896	0.013534
828.9270	0.013323
829.1643	0.012626
829.4017	0.012605
829.6391	0.011064
829.8765	0.011359
830.1139	0.011549
830.3513	0.012352
830.5887	0.010092
830.8261	0.008973
831.0636	0.007749
831.3010	0.009691
831.5385	0.009163
831.7759	0.008213
832.0134	0.006778
832.2509	0.007664
832.4884	0.007073
832.7259	0.010008
832.9634	0.010536
833.2009	0.008931
833.4384	0.009544
833.6759	0.009691
833.9135	0.009438
834.1510	0.010219
834.3886	0.010261
834.6261	0.010768
834.8637	0.010705
835.1013	0.010705
835.3389	0.010283
835.5765	0.010156
835.8141	0.010874
836.0517	0.009839
836.2893	0.008741
836.5269	0.008973
836.7646	0.007179
837.0022	0.006799
837.2399	0.008023
837.4775	0.008213
837.7152	0.005511
837.9529	0.006904
838.1906	0.007284
838.4283	0.007284
838.6660	0.005870
838.9037	0.006503
839.1414	0.006588
839.3791	0.007432
839.6169	0.006229
839.8546	0.007284
840.0924	0.008424
840.3302	0.006545
840.5679	0.006524
840.8057	0.008509
841.0435	0.007411
841.2813	0.007073
841.5191	0.006376
841.7569	0.006419
841.9947	0.006208
842.2326	0.005954
842.4704	0.005236
842.7082	0.006735
842.9461	0.004540
843.1840	0.003442
843.4218	0.003695
843.6597	0.005616
843.8976	0.005637
844.1355	0.005870
844.3734	0.004793
844.6113	0.004941
844.8492	0.003442
845.0872	0.005110
845.3251	0.003822
845.5631	0.005933
845.8010	0.005088
846.0390	0.005827
846.2770	0.005152
846.5149	0.005046
846.7529	0.005384
846.9909	0.006250
847.2289	0.004941
847.4669	0.005764
847.7050	0.005110
847.9430	0.004772
848.1810	0.004075
848.4191	0.005152
848.6571	0.004624
848.8952	0.004286
849.1333	0.005025
849.3713	0.004772
849.6094	0.004708
849.8475	0.005152
850.0856	0.003463
850.3237	0.005870
850.5619	0.004561
850.8000	0.005637
851.0381	0.004392
851.2763	0.004181
851.5144	0.004687
851.7526	0.005722
851.9908	0.004898
852.2289	0.005553
852.4671	0.007685
852.7053	0.009163
852.9435	0.009417
853.1817	0.012542
853.4200	0.013872
853.6582	0.012478
853.8964	0.013281
854.1347	0.011951
854.3729	0.012056
854.6112	0.014822
854.8495	0.014020
855.0877	0.013977
855.3260	0.013302
855.5643	0.012352
855.8026	0.012098
856.0409	0.011549
856.2792	0.011929
856.5176	0.013365
856.7559	0.012542
856.9942	0.011972
857.2326	0.011106
857.4710	0.011592
857.7093	0.010367
857.9477	0.010261
858.1861	0.010663
858.4245	0.010663
858.6629	0.008657
858.9013	0.009755
859.1397	0.008678
859.3781	0.009100
859.6166	0.008467
859.8550	0.010114
860.0935	0.009290
860.3319	0.008361
860.5704	0.008023
860.8089	0.008678
861.0473	0.005849
861.2858	0.006419
861.5243	0.004561
861.7628	0.007580
862.0013	0.006292
862.2399	0.007284
862.4784	0.005722
862.7169	0.004941
862.9555	0.004497
863.1940	0.005996
863.4326	0.007094
863.6712	0.007284
863.9098	0.006968
864.1483	0.006799
864.3869	0.005004
864.6255	0.006651
864.8642	0.006144
865.1028	0.005933
865.3414	0.005532
865.5800	0.006482
865.8187	0.005110
866.0573	0.004793
866.2960	0.005088
866.5347	0.006968
866.7733	0.005743
867.0120	0.006693
867.2507	0.005131
867.4894	0.005131
867.7281	0.005616
867.9669	0.004687
868.2056	0.005110
868.4443	0.006461
868.6831	0.005849
868.9218	0.005595
869.1606	0.004540
869.3993	0.004075
869.6381	0.004371
869.8769	0.004413
870.1157	0.004793
870.3545	0.005110
870.5933	0.005110
870.8321	0.005785
871.0709	0.004371
871.3097	0.006588
871.5486	0.005215
871.7874	0.004033
872.0263	0.004835
872.2651	0.004941
872.5040	0.004434
872.7429	0.004181
872.9818	0.006313
873.2207	0.005722
873.4596	0.004793
873.6985	0.004223
873.9374	0.005131
874.1763	0.004814
874.4153	0.005806
874.6542	0.005152
874.8932	0.005785
875.1321	0.006060
875.3711	0.005574
875.6101	0.005616
875.8491	0.005426
876.0880	0.005933
876.3270	0.004117
876.5661	0.005574
876.8051	0.006060
877.0441	0.005680
877.2831	0.005342
877.5222	0.004328
877.7612	0.005553
878.0003	0.006503
878.2393	0.006461
878.4784	0.006461
878.7175	0.007685
878.9566	0.007580
879.1957	0.006946
879.4348	0.007137
879.6739	0.008002
879.9130	0.007242
880.1521	0.007073
880.3913	0.007876
880.6304	0.008783
880.8696	0.007707
881.1087	0.008023
881.3479	0.008657
881.5871	0.006841
881.8262	0.006503
882.0654	0.007369
882.3046	0.004244
882.5438	0.006060
882.7831	0.006081
883.0223	0.005764
883.2615	0.007031
883.5007	0.005891
883.7400	0.004033
883.9792	0.007010
884.2185	0.006398
884.4578	0.005447
884.6971	0.005975
884.9363	0.005553
885.1756	0.007707
885.4149	0.004349
885.6542	0.006039
885.8936	0.007707
886.1329	0.007221
886.3722	0.006186
886.6116	0.005553
886.8509	0.005637
887.0903	0.005067
887.3296	0.004941
887.5690	0.004877
887.8084	0.005996
888.0478	0.005405
888.2872	0.005722
888.5266	0.006186
888.7660	0.005363
889.0054	0.005300
889.2448	0.005553
889.4843	0.002893
889.7237	0.006102
889.9632	0.005532
890.2026	0.004624
890.4421	0.005743
890.6816	0.003843
890.9211	0.003399
891.1606	0.003801
891.4001	0.005215
891.6396	0.004730
891.8791	0.005321
892.1186	0.005110
892.3581	0.005722
892.5977	0.005110
892.8372	0.005680
893.0768	0.004730
893.3163	0.005110
893.5559	0.004265
893.7955	0.004159
894.0351	0.004434
894.2747	0.004540
894.5143	0.005321
894.7539	0.003927
894.9935	0.005849
895.2331	0.004371
895.4727	0.005806
895.7124	0.004371
895.9520	0.004751
896.1917	0.006123
896.4314	0.006398
896.6710	0.005088
896.9107	0.005933
897.1504	0.005827
897.3901	0.005342
897.6298	0.004202
897.8695	0.005447
898.1092	0.004561
898.3489	0.004075
898.5887	0.005384
898.8284	0.004497
899.0682	0.004772
899.3079	0.004751
899.5477	0.003062
899.7875	0.003969
900.0272	0.003758
900.2670	0.004476
900.5068	0.004413
900.7466	0.005131
900.9864	0.003568
901.2263	0.004012
901.4661	0.003927
901.7059	0.003948
901.9458	0.004624
902.1856	0.003568
902.4255	0.002872
902.6654	0.004772
902.9052	0.004349
903.1451	0.003737
903.3850	0.004603
903.6249	0.004202
903.8648	0.004582
904.1047	0.004307
904.3446	0.005342
904.5846	0.004603
904.8245	0.005595
905.0644	0.004835
905.3044	0.005152
905.5444	0.004898
905.7843	0.003758
906.0243	0.004920
906.2643	0.004518
906.5043	0.004307
906.7443	0.004582
906.9843	0.004751
907.2243	0.003674
907.4643	0.004814
907.7043	0.003526
907.9444	0.005532
908.1844	0.003463
908.4245	0.004518
908.6645	0.003864
908.9046	0.003357
909.1447	0.002660
909.3847	0.002470
909.6248	0.003420
909.8649	0.003822
910.1050	0.004096
910.3452	0.005257
910.5853	0.002724
910.8254	0.005553
911.0655	0.004181
911.3057	0.004518
911.5458	0.003442
911.7860	0.003716
912.0262	0.002829
912.2663	0.005300
912.5065	0.002893
912.7467	0.003991
912.9869	0.005363
913.2271	0.003019
913.4673	0.002597
913.7075	0.002618
913.9478	0.004603
914.1880	0.003062
914.4283	0.004054
914.6685	0.004814
914.9088	0.002217
915.1490	0.003801
915.3893	0.002956
915.6296	0.003505
915.8699	0.002808
916.1102	0.003801
916.3505	0.003040
916.5908	0.004096
916.8311	0.003948
917.0714	0.003505
917.3118	0.004941
917.5521	0.005131
917.7925	0.003378
918.0328	0.005194
918.2732	0.003062
918.5136	0.005996
918.7539	0.002407
918.9943	0.004159
919.2347	0.005342
919.4751	0.003737
919.7155	0.003294
919.9560	0.003864
920.1964	0.001752
920.4368	0.003273
920.6773	0.003294
920.9177	0.004687
921.1582	0.003378
921.3986	0.002660
921.6391	0.004202
921.8796	0.002344
922.1201	0.001098
922.3606	0.004328
922.6011	0.002703
922.8416	0.002449
923.0821	0.003864
923.3226	0.002956
923.5631	0.002365
923.8037	0.003442
924.0442	0.003336
924.2848	0.003547
924.5254	0.002935
924.7659	0.003167
925.0065	0.003146
925.2471	0.002365
925.4877	0.002154
925.7283	0.002850
925.9689	0.002872
926.2095	0.003040
926.4501	0.002133
926.6908	0.003019
926.9314	0.000697
927.1720	0.001752
927.4127	0.002154
927.6533	0.003357
927.8940	0.003230
928.1347	0.002745
928.3754	0.002597
928.6161	0.003146
928.8568	0.000992
929.0975	0.002808
929.3382	0.003062
929.5789	0.003547
929.8196	0.001457
930.0604	0.003252
930.3011	0.001140
930.5419	0.004075
930.7826	0.001731
931.0234	0.002597
931.2642	0.001647
931.5049	0.002407
931.7457	0.003294
931.9865	0.002027
932.2273	0.001731
932.4681	0.001837
932.7089	0.001647
932.9498	0.002745
933.1906	0.002386
933.4314	0.001499
933.6723	0.001879
933.9131	0.003526
934.1540	0.001942
934.3949	0.003442
934.6358	0.002133
934.8766	0.001478
935.1175	0.001499
935.3584	0.000760
935.5993	0.000718
935.8403	0.002660
936.0812	0.000443
936.3221	0.002787
936.5630	0.001478
936.8040	0.002365
937.0449	0.000971
937.2859	0.001077
937.5269	0.000232
937.7678	0.002301
938.0088	0.000274
938.2498	0.001267
938.4908	0.001267
938.7318	0.000507
938.9728	0.001795
939.2138	0.000338
939.4549	0.002154
939.6959	0.001246
939.9369	0.001647
940.1780	0.000739
940.4190	0.002365
940.6601	0.000676
940.9012	0.002006
941.1422	0.001098
941.3833	0.000971
941.6244	0.002069
941.8655	0.001752
942.1066	0.001351
942.3477	0.001119
942.5889	0.000422
942.8300	0.000908
943.0711	0.000802
943.3123	0.001161
943.5534	0.001140
943.7946	0.001056
944.0357	0.000950
944.2769	0.002513
944.5181	0.000380
944.7593	0.001499
945.0005	0.000676
945.2417	0.002006
945.4829	0.001182
945.7241	0.001035
945.9653	0.000823
946.2066	0.001246
946.4478	0.000866
946.6891	0.001605
946.9303	0.001415
947.1716	0.001985
947.4128	0.000612
947.6541	0.002196
947.8954	0.001351
948.1367	0.001605
948.3780	0.001752
948.6193	0.001288
948.8606	0.000718
949.1019	0.000148
949.3433	0.002133
949.5846	0.002323
949.8259	0.000317
950.0673	0.001879
950.3086	-0.001246
950.5500	0.001013
950.7914	0.000802
951.0327	0.002027
951.2741	0.000127
951.5155	0.000338
951.7569	0.002069
951.9983	0.002745
952.2398	0.000591
952.4812	-0.000042
952.7226	0.001647
952.9640	0.001013
953.2055	0.001267
953.4469	0.002344
953.6884	0.002956
953.9299	0.001964
954.1713	0.000211
954.4128	0.001351
954.6543	0.002323
954.8958	0.000380
955.1373	0.000127
955.3788	0.001964
955.6203	0.001351
955.8618	0.001689
956.1034	0.001351
956.3449	0.001710
956.5865	0.000317
956.8280	0.002639
957.0696	-0.000106
957.3111	0.000359
957.5527	0.001267
957.7943	-0.000063
958.0359	0.000655
958.2775	0.000359
958.5191	-0.000084
958.7607	0.001689
959.0023	-0.001119
959.2439	0.002534
959.4856	0.001077
959.7272	0.001394
959.9688	0.002534
960.2105	0.001605
960.4522	0.001119
960.6938	0.001098
960.9355	-0.000063
961.1772	0.000887
961.4189	0.001731
961.6606	0.001098
961.9023	0.001225
962.1440	0.001562
962.3857	0.000612
962.6274	0.002217
962.8692	0.001457
963.1109	0.000612
963.3527	0.000676
963.5944	0.001879
963.8362	-0.001668
964.0779	0.001415
964.3197	0.000021
964.5615	-0.000465
964.8033	0.000106
965.0451	0.000929
965.2869	-0.000718
965.5287	0.001584
965.7705	0.000718
966.0123	0.000866
966.2542	0.001394
966.4960	0.001372
966.7379	0.001182
966.9797	0.001225
967.2216	-0.000528
967.4634	0.000591
967.7053	0.001035
967.9472	0.000084
968.1891	0.000148
968.4310	0.001225
968.6729	0.000549
968.9148	0.000063
969.1567	-0.000570
969.3987	0.000401
969.6406	0.000823
969.8825	0.001077
970.1245	0.000106
970.3664	0.000655
970.6084	0.000253
970.8504	0.001415
971.0923	0.000211
971.3343	0.001457
971.5763	0.000823
971.8183	0.001140
972.0603	0.001330
972.3023	0.000190
972.5443	0.000380
972.7864	-0.000633
973.0284	0.000211
973.2704	0.001668
973.5125	0.000317
973.7545	0.000000
973.9966	0.001394
974.2387	-0.000486
974.4807	-0.000169
974.7228	0.002175
974.9649	-0.000401
975.2070	0.002069
975.4491	0.000697
975.6912	0.000507
975.9333	0.000655
976.1755	0.001415
976.4176	0.001056
976.6597	0.000802
976.9019	-0.000823
977.1440	0.001499
977.3862	-0.001415
977.6283	0.000760
977.8705	-0.001710
978.1127	0.000845
978.3549	0.001267
978.5971	0.001225
978.8393	-0.001098
979.0815	0.001520
979.3237	0.000422
979.5659	0.001140
979.8082	-0.000760
980.0504	0.000887
980.2926	0.001351
980.5349	0.000528
980.7771	0.000845
981.0194	0.002111
981.2617	0.000781
981.5040	-0.000570
981.7462	-0.000422
981.9885	0.001457
982.2308	-0.000971
982.4731	0.000633
982.7155	-0.000528
982.9578	0.001119
983.2001	-0.000908
983.4424	-0.000190
983.6848	-0.000465
983.9271	0.001098
984.1695	0.001710
984.4118	0.000718
984.6542	0.000591
984.8966	0.001478
985.1390	-0.000528
985.3814	0.000084
985.6238	0.001182
985.8662	0.001921
986.1086	-0.000465
986.3510	0.000443
986.5934	0.000021
986.8358	0.000971
987.0783	-0.000042
987.3207	0.002618
987.5632	-0.000211
987.8056	-0.001499
988.0481	0.000465
988.2906	0.000528
988.5331	0.001267
988.7756	0.000380
989.0180	0.001584
989.2605	0.000253
989.5031	-0.000739
989.7456	0.001605
989.9881	-0.000169
990.2306	0.000802
990.4732	0.000718
990.7157	-0.001478
990.9582	0.000612
991.2008	0.001457
991.4434	-0.000401
991.6859	-0.000169
991.9285	-0.000380
992.1711	-0.000274
992.4137	0.000084
992.6563	0.001605
992.8989	-0.000253
993.1415	0.002428
993.3841	-0.000063
993.6267	0.000507
993.8694	-0.000401
994.1120	0.001330
994.3547	-0.000401
994.5973	-0.000655
994.8400	0.001182
995.0826	0.002280
995.3253	-0.000296
995.5680	-0.000443
995.8107	0.000655
996.0534	0.001182
996.2961	-0.000655
996.5388	-0.000063
996.7815	0.000338
997.0242	0.000106
997.2670	-0.001035
997.5097	0.000866
997.7524	0.000338
997.9952	0.000338
998.2379	-0.000084
998.4807	-0.000380
998.7235	0.000823
998.9662	0.000823
999.2090	-0.000486
999.4518	0.000042
999.6946	0.000232
999.9374	0.000823
1000.1802	0.000633
1000.4230	-0.001225
1000.6659	-0.000528
1000.9087	-0.000633
1001.1515	0.000211
1001.3944	-0.001394
1001.6372	-0.000570
1001.8801	0.000232
1002.1230	0.000338
1002.3658	-0.000359
1002.6087	0.000169
1002.8516	-0.000380
1003.0945	0.000000
1003.3374	-0.000591
1003.5803	-0.000486
1003.8232	-0.000781
1004.0661	0.000950
1004.3091	0.000422
1004.5520	-0.000633
1004.7949	-0.000401
1005.0379	0.000042
1005.2808	0.000211
1005.5238	0.002196
1005.7667	-0.001499
1006.0097	-0.000887
1006.2527	0.000655
1006.4957	0.000465
1006.7387	-0.000507
1006.9817	-0.000190
1007.2247	-0.000950
1007.4677	-0.000528
1007.7107	-0.000908
1007.9538	0.000401
1008.1968	0.000169
1008.4398	0.000633
1008.6829	0.000042
1008.9259	0.000781
1009.1690	-0.000359
1009.4121	0.000422
1009.6551	0.001752
1009.8982	0.001119
1010.1413	-0.000084
1010.3844	0.000591
1010.6275	-0.000042
1010.8706	0.000443
1011.1137	0.000697
1011.3568	0.000443
1011.6000	0.001900
1011.8431	0.002301
1012.0863	-0.000401
1012.3294	0.000528
1012.5726	-0.001520
1012.8157	0.001203
1013.0589	-0.001309
1013.3021	-0.001372
1013.5452	0.000148
1013.7884	0.001225
1014.0316	0.000633
1014.2748	0.001879
1014.5180	0.000296
1014.7613	-0.000781
1015.0045	0.000169
1015.2477	0.001309
1015.4909	0.000253
1015.7342	0.001668
1015.9774	-0.000422
1016.2207	0.001626
1016.4640	-0.000760
1016.7072	-0.000253
1016.9505	0.000802
1017.1938	0.001119
1017.4371	-0.001647
1017.6804	0.000718
1017.9237	-0.000549
1018.1670	-0.001056
1018.4103	0.001330
1018.6536	0.000950
1018.8969	0.000317
1019.1403	0.000359
1019.3836	-0.000570
1019.6270	0.000528
1019.8703	-0.000528
1020.1137	0.000211
1020.3571	0.000106
1020.6004	0.000021
1020.8438	0.000676
1021.0872	0.000992
1021.3306	0.000401
1021.5740	0.000190
1021.8174	-0.000211
1022.0608	0.000359
1022.3042	0.000359
1022.5477	0.000465
1022.7911	0.000127
1023.0345	-0.000528
