# Wavelength (nm)	Intensity (a.u.)
197.7802	0.000588
197.9842	-0.000046
198.1882	-0.000299
198.3922	-0.000067
198.5963	0.000672
198.8003	0.000482
199.0044	0.001601
199.2085	0.000820
199.4126	0.000018
199.6168	0.000946
199.8209	0.000018
200.0251	-0.000299
200.2292	0.000208
200.4334	0.000946
200.6376	-0.001439
200.8418	-0.000151
201.0461	0.000503
201.2503	0.000693
201.4546	0.000630
201.6589	0.000398
201.8631	0.001347
202.0674	-0.001882
202.2718	-0.000278
202.4761	0.000799
202.6805	0.000841
202.8848	0.001010
203.0892	-0.000362
203.2936	-0.000341
203.4980	0.000545
203.7024	0.000820
203.9069	0.000419
204.1113	0.000630
204.3158	0.000862
204.5203	0.000545
204.7248	0.000461
204.9293	-0.000742
205.1338	-0.000510
205.3384	-0.001059
205.5430	0.001432
205.7475	0.000482
205.9521	0.001622
206.1567	-0.000806
206.3614	0.000165
206.5660	-0.000193
206.7706	0.001854
206.9753	0.000820
207.1800	0.000693
207.3847	0.000588
207.5894	0.001474
207.7941	0.000482
207.9989	0.001432
208.2036	-0.000426
208.4084	0.001179
208.6132	0.000208
208.8180	0.001685
209.0228	-0.000658
209.2276	0.000820
209.4325	-0.000046
209.6373	0.000503
209.8422	-0.000362
210.0471	0.001875
210.2520	-0.000046
210.4569	0.001580
210.6618	0.000630
210.8668	-0.000236
211.0718	0.000355
211.2767	-0.000088
211.4817	-0.000109
211.6867	0.001136
211.8918	0.000566
212.0968	-0.000510
212.3018	0.001200
212.5069	0.000398
212.7120	-0.001080
212.9171	-0.000679
213.1222	0.002128
213.3273	0.001770
213.5325	0.000651
213.7376	0.001052
213.9428	0.000630
214.1480	0.001453
214.3532	0.001601
214.5584	-0.000827
214.7636	0.000946
214.9689	0.000271
215.1741	-0.000257
215.3794	0.000967
215.5847	0.000524
215.7900	-0.000996
215.9953	0.001052
216.2007	0.000989
216.4060	0.000461
216.6114	0.000883
216.8168	0.001580
217.0222	0.000229
217.2276	-0.000004
217.4330	0.000989
217.6384	-0.000130
217.8439	0.000672
218.0494	0.000144
218.2548	-0.000721
218.4603	-0.000151
218.6659	0.001052
218.8714	0.000419
219.0769	0.000756
219.2825	0.000355
219.4881	0.000904
219.6936	0.000440
219.8992	0.001073
220.1049	0.000271
220.3105	0.000820
220.5161	0.000989
220.7218	0.001453
220.9275	0.000039
221.1332	-0.000046
221.3389	-0.000595
221.5446	0.001284
221.7503	0.000039
221.9561	-0.000236
222.1618	0.000355
222.3676	-0.000215
222.5734	-0.000004
222.7792	0.001326
222.9850	0.001453
223.1909	-0.000257
223.3967	0.000989
223.6026	0.000482
223.8085	0.000355
224.0144	0.000883
224.2203	0.000883
224.4262	0.001326
224.6322	0.000313
224.8381	0.001558
225.0441	-0.000088
225.2501	0.000313
225.4561	0.000566
225.6621	0.001622
225.8681	-0.000320
226.0742	0.000123
226.2802	0.000081
226.4863	0.000398
226.6924	0.000060
226.8985	-0.001312
227.1046	0.000060
227.3107	-0.000004
227.5169	-0.000383
227.7230	-0.000489
227.9292	0.000292
228.1354	0.000440
228.3416	0.000693
228.5478	-0.000552
228.7541	0.001390
228.9603	0.000609
229.1666	0.000018
229.3729	0.001094
229.5791	-0.000552
229.7855	0.000461
229.9918	0.000398
230.1981	0.000946
230.4045	-0.000046
230.6108	-0.000215
230.8172	-0.000468
231.0236	-0.000109
231.2300	-0.000236
231.4364	0.000651
231.6429	0.000440
231.8493	0.000862
232.0558	-0.000257
232.2623	0.000524
232.4688	0.000144
232.6753	0.001453
232.8818	-0.001186
233.0884	0.001136
233.2949	0.000841
233.5015	-0.000426
233.7081	0.000735
233.9147	0.000989
234.1213	0.000735
234.3279	0.001643
234.5346	0.000989
234.7413	0.001516
234.9479	0.000144
235.1546	0.001495
235.3613	-0.000025
235.5680	0.000524
235.7748	0.000989
235.9815	0.001073
236.1883	0.000820
236.3951	0.001052
236.6018	0.000672
236.8087	0.001115
237.0155	-0.000130
237.2223	0.000334
237.4292	-0.000658
237.6360	0.001770
237.8429	0.001136
238.0498	0.001263
238.2567	-0.000552
238.4636	0.001073
238.6706	-0.000426
238.8775	-0.000447
239.0845	0.000292
239.2915	0.000862
239.4985	-0.000742
239.7055	0.001010
239.9125	0.001115
240.1195	-0.000679
240.3266	0.000376
240.5337	-0.000405
240.7407	0.000271
240.9478	0.001453
241.1549	-0.000004
241.3621	-0.001544
241.5692	-0.000700
241.7764	0.001896
241.9835	0.000355
242.1907	-0.000236
242.3979	-0.000531
242.6051	0.000693
242.8124	0.000081
243.0196	0.000545
243.2269	-0.000447
243.4341	0.000292
243.6414	-0.000531
243.8487	0.000081
244.0560	-0.000531
244.2634	0.002023
244.4707	0.000862
244.6781	0.000735
244.8854	0.000165
245.0928	0.000672
245.3002	0.001622
245.5076	-0.000172
245.7151	-0.000785
245.9225	0.001221
246.1300	0.000609
246.3375	0.001580
246.5449	0.000482
246.7524	0.001495
246.9600	-0.000552
247.1675	0.000440
247.3750	0.000313
247.5826	0.000862
247.7902	0.000018
247.9978	-0.000067
248.2054	0.000186
248.4130	0.000419
248.6206	0.000524
248.8283	-0.000489
249.0359	-0.000721
249.2436	0.000925
249.4513	0.001094
249.6590	0.001706
249.8667	0.000545
250.0745	-0.001418
250.2822	-0.000236
250.4900	0.000609
250.6978	-0.000193
250.9056	-0.000616
251.1134	-0.000383
251.3212	0.000777
251.5290	-0.000552
251.7369	0.000630
251.9447	0.001664
252.1526	0.000967
252.3605	-0.000405
252.5684	0.001157
252.7763	-0.000911
252.9843	0.000904
253.1922	0.000313
253.4002	0.001390
253.6082	-0.000172
253.8162	-0.000763
254.0242	-0.000278
254.2322	0.000123
254.4402	0.000039
254.6483	0.000756
254.8564	0.000841
255.0644	0.001263
255.2725	-0.000193
255.4806	0.000398
255.6888	-0.000320
255.8969	0.001938
256.1051	0.000144
256.3132	0.000566
256.5214	0.000144
256.7296	0.001938
256.9378	0.000566
257.1460	0.000334
257.3543	0.000313
257.5625	0.000482
257.7708	-0.000109
257.9791	0.001727
258.1874	-0.000236
258.3957	0.001347
258.6040	-0.000278
258.8124	0.001453
259.0207	0.000503
259.2291	0.000545
259.4375	0.000208
259.6459	0.001347
259.8543	0.000144
260.0627	0.000545
260.2711	0.000440
260.4796	0.000144
260.6881	0.001073
260.8965	0.001432
261.1050	0.001368
261.3135	0.000925
261.5221	0.000081
261.7306	0.000672
261.9392	-0.000067
262.1477	-0.000278
262.3563	0.000609
262.5649	-0.000489
262.7735	-0.000341
262.9822	0.001791
263.1908	0.001664
263.3995	0.000208
263.6081	0.001390
263.8168	0.002086
264.0255	0.000060
264.2342	0.001031
264.4429	0.001453
264.6517	-0.001587
264.8604	0.000250
265.0692	0.000398
265.2780	0.000102
265.4868	0.001242
265.6956	-0.001207
265.9044	-0.000236
266.1133	-0.000172
266.3221	0.000841
266.5310	-0.000489
266.7399	0.000989
266.9488	0.000355
267.1577	0.000250
267.3666	0.000334
267.5755	-0.000025
267.7845	0.000735
267.9935	0.001115
268.2024	0.000799
268.4114	0.001073
268.6205	0.001453
268.8295	0.000419
269.0385	-0.000827
269.2476	0.001073
269.4566	0.000672
269.6657	0.000102
269.8748	0.001157
270.0839	0.002002
270.2931	0.000060
270.5022	0.001453
270.7114	0.000102
270.9205	0.001432
271.1297	0.000039
271.3389	0.000144
271.5481	-0.000700
271.7573	0.001495
271.9666	-0.001755
272.1758	-0.000700
272.3851	0.001474
272.5944	0.001706
272.8037	-0.000468
273.0130	0.000967
273.2223	0.000081
273.4316	0.001073
273.6410	0.000271
273.8504	0.001305
274.0597	0.000545
274.2691	-0.000320
274.4785	0.001263
274.6880	0.001622
274.8974	0.000229
275.1069	0.001390
275.3163	-0.000405
275.5258	0.001748
275.7353	0.000482
275.9448	0.000081
276.1543	-0.000215
276.3639	0.001115
276.5734	0.000144
276.7830	0.001115
276.9926	-0.000869
277.2022	0.002065
277.4118	0.000355
277.6214	0.001495
277.8310	0.001157
278.0407	0.001347
278.2503	0.000334
278.4600	0.000820
278.6697	-0.001017
278.8794	0.001495
279.0891	0.000545
279.2989	0.000334
279.5086	0.000841
279.7184	0.000398
279.9281	-0.000088
280.1379	0.001073
280.3477	-0.000742
280.5576	0.001706
280.7674	0.000355
280.9772	0.000144
281.1871	0.000672
281.3970	-0.000911
281.6069	-0.000236
281.8168	0.000862
282.0267	0.000735
282.2366	0.001432
282.4466	-0.000130
282.6565	-0.000468
282.8665	-0.000172
283.0765	0.001622
283.2865	0.001242
283.4965	-0.000193
283.7065	-0.000172
283.9166	-0.000088
284.1266	0.000735
284.3367	-0.000362
284.5468	0.000334
284.7569	0.000186
284.9670	-0.000383
285.1771	0.001305
285.3873	0.000609
285.5974	0.000398
285.8076	0.000039
286.0178	0.001263
286.2280	0.000355
286.4382	0.000545
286.6484	0.001580
286.8587	0.000419
287.0689	0.000925
287.2792	0.001179
287.4895	0.001537
287.6998	-0.000341
287.9101	-0.000679
288.1204	0.001833
288.3308	-0.001544
288.5411	0.001157
288.7515	-0.000193
288.9619	0.000672
289.1723	0.000186
289.3827	0.001558
289.5931	-0.000658
289.8035	0.000292
290.0140	0.001179
290.2245	0.000925
290.4349	0.001052
290.6454	0.000777
290.8559	-0.000806
291.0665	0.001157
291.2770	-0.000426
291.4875	0.002107
291.6981	-0.000278
291.9087	0.000102
292.1193	0.000102
292.3299	0.000165
292.5405	0.000165
292.7511	0.000777
292.9618	-0.000088
293.1724	0.001200
293.3831	0.000714
293.5938	0.000376
293.8045	0.001031
294.0152	0.000841
294.2260	-0.000215
294.4367	0.001643
294.6475	0.000672
294.8582	0.001938
295.0690	0.000440
295.2798	0.000334
295.4906	-0.000025
295.7015	0.002318
295.9123	0.000482
296.1232	-0.000172
296.3340	-0.000278
296.5449	0.001242
296.7558	0.000271
296.9667	-0.000447
297.1777	0.000820
297.3886	0.001390
297.5995	0.001516
297.8105	0.000018
298.0215	-0.000742
298.2325	-0.000278
298.4435	0.000799
298.6545	0.000355
298.8656	0.000292
299.0766	0.000229
299.2877	-0.000109
299.4988	0.000313
299.7099	0.000144
299.9210	-0.000827
300.1321	0.000186
300.3432	-0.000616
300.5544	0.000018
300.7655	-0.000109
300.9767	0.001432
301.1879	0.000588
301.3991	-0.000616
301.6103	0.000588
301.8215	0.000777
302.0328	0.001347
302.2441	-0.000362
302.4553	0.001537
302.6666	0.000672
302.8779	0.001179
303.0892	0.000186
303.3006	0.000609
303.5119	0.000503
303.7233	0.001284
303.9346	0.000672
304.1460	0.001601
304.3574	0.000482
304.5688	0.000482
304.7803	0.001031
304.9917	0.001200
305.2031	-0.000383
305.4146	-0.000595
305.6261	0.000229
305.8376	0.000799
306.0491	-0.000299
306.2606	0.000545
306.4722	-0.000932
306.6837	0.001685
306.8953	0.000376
307.1069	-0.000489
307.3184	0.001622
307.5301	0.001242
307.7417	0.001558
307.9533	-0.000299
308.1650	0.000883
308.3766	0.001179
308.5883	-0.000932
308.8000	0.000186
309.0117	0.000292
309.2234	0.001516
309.4351	0.000018
309.6469	0.000250
309.8586	0.001854
310.0704	0.000904
310.2822	-0.000785
310.4940	0.000018
310.7058	0.001347
310.9176	-0.000215
311.1295	0.000503
311.3413	0.000355
311.5532	-0.001038
311.7651	0.000630
311.9770	-0.000278
312.1889	0.000376
312.4008	-0.000236
312.6127	0.001094
312.8247	-0.000763
313.0366	0.000144
313.2486	-0.001376
313.4606	0.000250
313.6726	0.000060
313.8846	0.001347
314.0967	-0.000320
314.3087	0.000355
314.5208	-0.000299
314.7328	-0.000109
314.9449	0.000334
315.1570	0.000630
315.3692	0.000841
315.5813	0.001052
315.7934	0.000714
316.0056	0.001073
316.2177	-0.000700
316.4299	0.000461
316.6421	-0.000278
316.8543	-0.000004
317.0666	0.000039
317.2788	0.000376
317.4911	0.000925
317.7033	0.000271
317.9156	0.000524
318.1279	0.002403
318.3402	-0.000278
318.5525	0.001221
318.7649	0.001242
318.9772	0.001368
319.1896	-0.000067
319.4019	0.001284
319.6143	0.001073
319.8267	0.000566
320.0392	-0.000193
320.2516	0.000102
320.4640	0.000904
320.6765	-0.000172
320.8890	0.001685
321.1014	0.000186
321.3139	-0.000299
321.5265	0.000904
321.7390	-0.000848
321.9515	0.001474
322.1641	-0.000109
322.3766	0.000208
322.5892	0.000756
322.8018	-0.000025
323.0144	-0.001122
323.2270	0.000735
323.4397	0.000039
323.6523	0.000799
323.8650	-0.000130
324.0777	-0.001017
324.2904	0.000609
324.5031	0.001516
324.7158	-0.000700
324.9285	0.001960
325.1412	0.000820
325.3540	0.001558
325.5668	0.000355
325.7796	-0.000299
325.9924	0.000777
326.2052	0.002508
326.4180	0.000693
326.6308	0.001326
326.8437	0.000756
327.0566	-0.000193
327.2694	0.000461
327.4823	-0.000109
327.6952	-0.000468
327.9082	0.001896
328.1211	0.000925
328.3340	0.000419
328.5470	0.000524
328.7600	0.000693
328.9730	0.000419
329.1860	-0.000616
329.3990	0.001664
329.6120	-0.000172
329.8251	0.000588
330.0381	0.002234
330.2512	0.001960
330.4643	0.001347
330.6774	0.001896
330.8905	0.000841
331.1036	0.000566
331.3167	0.000777
331.5299	0.000060
331.7431	0.000946
331.9562	-0.001164
332.1694	0.000904
332.3826	0.001263
332.5959	0.000039
332.8091	0.000081
333.0223	0.000672
333.2356	0.001115
333.4489	-0.000067
333.6622	0.001411
333.8755	-0.000172
334.0888	-0.000721
334.3021	0.000208
334.5154	0.000334
334.7288	0.001411
334.9422	0.000229
335.1555	0.000967
335.3689	-0.000383
335.5823	0.000165
335.7958	0.000165
336.0092	0.001347
336.2227	0.000102
336.4361	-0.000004
336.6496	0.000693
336.8631	0.000609
337.0766	0.000777
337.2901	0.000946
337.5036	-0.000447
337.7172	0.001622
337.9307	0.000799
338.1443	0.000524
338.3579	-0.000172
338.5715	0.002445
338.7851	-0.000236
338.9987	0.001917
339.2124	-0.000489
339.4260	-0.000383
339.6397	0.000186
339.8533	0.001558
340.0670	0.000102
340.2807	0.001537
340.4945	0.000461
340.7082	0.000946
340.9219	0.001052
341.1357	0.001073
341.3495	0.000123
341.5633	0.000081
341.7771	-0.000658
341.9909	0.002171
342.2047	-0.000236
342.4185	0.000967
342.6324	0.001136
342.8463	0.001031
343.0601	-0.000806
343.2740	0.001685
343.4879	-0.000763
343.7019	-0.000130
343.9158	0.000693
344.1297	0.000229
344.3437	-0.000468
344.5577	0.000060
344.7717	0.000060
344.9857	0.000355
345.1997	0.000250
345.4137	0.000355
345.6277	0.000081
345.8418	0.000461
346.0559	-0.000742
346.2699	0.001495
346.4840	0.000566
346.6981	-0.000109
346.9123	0.000609
347.1264	0.000588
347.3406	-0.000996
347.5547	0.001073
347.7689	-0.000109
347.9831	0.001052
348.1973	0.000693
348.4115	0.001516
348.6257	-0.000067
348.8400	0.001685
349.0542	0.000820
349.2685	-0.000172
349.4828	0.000967
349.6971	-0.000911
349.9114	0.000292
350.1257	0.001010
350.3400	0.001094
350.5544	0.000989
350.7687	0.000756
350.9831	0.001263
351.1975	0.000376
351.4119	0.000440
351.6263	0.000862
351.8407	0.000334
352.0552	0.000313
352.2696	0.001157
352.4841	0.001052
352.6986	0.000820
352.9131	0.001094
353.1276	0.000820
353.3421	0.001305
353.5566	-0.000341
353.7712	-0.001354
353.9858	0.000313
354.2003	0.000018
354.4149	0.001179
354.6295	0.001242
354.8441	0.000419
355.0588	-0.000362
355.2734	0.000862
355.4881	-0.000996
355.7027	-0.000383
355.9174	0.000208
356.1321	0.002677
356.3468	-0.000362
356.5615	-0.000573
356.7763	0.001094
356.9910	-0.000974
357.2058	-0.000932
357.4206	0.001010
357.6353	0.001770
357.8501	0.000376
358.0650	-0.001080
358.2798	0.000123
358.4946	0.000165
358.7095	-0.000552
358.9243	-0.000890
359.1392	-0.000700
359.3541	0.001411
359.5690	-0.000616
359.7839	0.000461
359.9989	-0.000700
360.2138	0.000693
360.4288	0.000904
360.6438	0.001284
360.8587	0.000376
361.0737	0.001157
361.2888	0.000503
361.5038	0.000883
361.7188	0.000967
361.9339	0.000735
362.1489	0.002044
362.3640	-0.000109
362.5791	-0.000278
362.7942	0.000440
363.0093	-0.000299
363.2245	0.000588
363.4396	0.001390
363.6548	-0.000004
363.8699	0.000039
364.0851	0.001052
364.3003	0.001537
364.5155	-0.000953
364.7308	0.001727
364.9460	-0.000215
365.1612	0.000271
365.3765	-0.000046
365.5918	0.001073
365.8071	-0.001587
366.0224	0.001136
366.2377	0.001347
366.4530	0.000946
366.6684	-0.000193
366.8837	0.001157
367.0991	-0.000721
367.3145	0.002234
367.5299	0.001136
367.7453	0.001390
367.9607	0.001094
368.1761	0.000292
368.3916	-0.001671
368.6070	0.000271
368.8225	0.000862
369.0380	0.000376
369.2535	0.000503
369.4690	0.000566
369.6845	-0.001228
369.9001	0.000989
370.1156	-0.000320
370.3312	0.000925
370.5468	0.001052
370.7624	0.000820
370.9780	0.000820
371.1936	0.001558
371.4092	0.000735
371.6249	0.001221
371.8405	0.001622
372.0562	-0.000172
372.2719	-0.000172
372.4876	0.000609
372.7033	0.000482
372.9190	0.001179
373.1348	-0.000616
373.3505	0.000925
373.5663	-0.000405
373.7820	0.000482
373.9978	-0.000257
374.2136	0.000060
374.4294	-0.000552
374.6453	0.002128
374.8611	0.000398
375.0770	0.000989
375.2928	0.000060
375.5087	0.001284
375.7246	-0.000215
375.9405	0.000651
376.1564	0.001305
376.3724	0.000883
376.5883	0.000672
376.8043	-0.000362
377.0203	0.000186
377.2362	0.000102
377.4522	-0.000595
377.6682	0.000524
377.8843	0.000672
378.1003	0.000313
378.3164	0.000545
378.5324	0.000566
378.7485	0.000777
378.9646	0.001411
379.1807	0.000524
379.3968	0.001938
379.6129	-0.000046
379.8291	0.000313
380.0452	-0.000721
380.2614	0.001010
380.4776	0.001157
380.6938	0.000165
380.9100	0.001052
381.1262	-0.000025
381.3424	-0.000172
381.5587	0.001917
381.7749	0.001495
381.9912	0.000376
382.2075	-0.000193
382.4238	-0.000848
382.6401	0.001242
382.8564	0.001432
383.0728	0.000841
383.2891	0.001010
383.5055	-0.001629
383.7219	0.001770
383.9382	0.000060
384.1546	0.000271
384.3711	0.000756
384.5875	0.000018
384.8039	-0.000067
385.0204	0.000545
385.2368	-0.000869
385.4533	0.001010
385.6698	-0.000510
385.8863	0.001221
386.1028	0.000946
386.3194	0.002677
386.5359	0.000925
386.7525	0.000398
386.9690	0.001516
387.1856	0.000672
387.4022	0.000841
387.6188	0.000862
387.8355	0.000630
388.0521	0.002023
388.2687	0.001791
388.4854	0.001812
388.7021	0.001073
388.9188	0.002762
389.1355	0.002804
389.3522	0.002508
389.5689	0.002002
389.7856	0.001305
390.0024	0.001010
390.2192	0.003226
390.4359	0.002339
390.6527	0.003036
390.8695	0.002065
391.0863	0.003268
391.3032	0.001938
391.5200	0.002973
391.7369	0.002382
391.9537	0.003353
392.1706	0.002107
392.3875	0.002952
392.6044	0.003859
392.8213	0.003353
393.0383	0.003627
393.2552	0.005442
393.4722	0.003289
393.6891	0.006878
393.9061	0.002952
394.1231	0.004302
394.3401	0.005358
394.5572	0.005653
394.7742	0.004788
394.9912	0.003923
395.2083	0.005041
395.4254	0.007849
395.6425	0.005400
395.8596	0.007025
396.0767	0.005041
396.2938	0.006835
396.5109	0.006899
396.7281	0.006941
396.9453	0.005379
397.1624	0.006624
397.3796	0.007004
397.5968	0.009178
397.8140	0.008482
398.0313	0.008925
398.2485	0.009052
398.4658	0.010192
398.6830	0.007827
398.9003	0.009579
399.1176	0.010550
399.3349	0.010487
399.5522	0.010382
399.7696	0.010635
399.9869	0.008545
400.2043	0.010994
400.4216	0.010107
400.6390	0.010487
400.8564	0.010951
401.0738	0.011163
401.2912	0.010466
401.5087	0.011817
401.7261	0.011352
401.9436	0.012239
402.1610	0.011036
402.3785	0.011838
402.5960	0.012957
402.8135	0.014033
403.0310	0.011395
403.2486	0.013126
403.4661	0.009495
403.6837	0.013822
403.9013	0.012176
404.1189	0.012155
404.3365	0.011226
404.5541	0.013316
404.7717	0.014160
404.9893	0.014498
405.2070	0.015131
405.4246	0.014139
405.6423	0.015279
405.8600	0.015996
406.0777	0.015194
406.2954	0.016102
406.5131	0.015152
406.7309	0.014413
406.9486	0.015785
407.1664	0.014181
407.3842	0.014160
407.6020	0.016735
407.8198	0.015722
408.0376	0.015870
408.2554	0.015806
408.4733	0.015996
408.6911	0.017305
408.9090	0.017516
409.1269	0.016524
409.3448	0.017157
409.5627	0.017706
409.7806	0.016376
409.9985	0.016651
410.2165	0.016735
410.4344	0.018571
410.6524	0.016841
410.8704	0.017643
411.0884	0.017284
411.3064	0.017326
411.5244	0.018128
411.7424	0.018001
411.9605	0.018191
412.1785	0.018761
412.3966	0.018213
412.6147	0.018930
412.8328	0.020007
413.0509	0.019437
413.2690	0.019627
413.4871	0.021252
413.7053	0.019986
413.9234	0.016904
414.1416	0.020154
414.3598	0.019627
414.5780	0.020176
414.7962	0.018994
415.0144	0.019479
415.2326	0.020281
415.4509	0.020429
415.6692	0.019247
415.8874	0.020957
416.1057	0.020957
416.3240	0.022265
416.5423	0.020682
416.7606	0.020471
416.9790	0.020598
417.1973	0.020218
417.4157	0.019943
417.6341	0.019859
417.8524	0.022265
418.0708	0.019627
418.2893	0.021526
418.5077	0.021991
418.7261	0.020387
418.9446	0.021780
419.1630	0.020851
419.3815	0.023300
419.6000	0.021653
419.8185	0.021273
420.0370	0.022497
420.2555	0.023975
420.4741	0.025241
420.6926	0.024861
420.9112	0.025917
421.1298	0.025748
421.3483	0.026212
421.5669	0.027943
421.7856	0.028640
422.0042	0.028344
422.2228	0.027416
422.4415	0.026782
422.6601	0.027183
422.8788	0.026001
423.0975	0.026318
423.3162	0.026571
423.5349	0.026233
423.7536	0.025410
423.9724	0.025685
424.1911	0.025664
424.4099	0.027268
424.6287	0.025790
424.8475	0.023701
425.0663	0.024988
425.2851	0.025009
425.5039	0.025896
425.7228	0.024249
425.9416	0.023954
426.1605	0.023447
426.3793	0.022624
426.5982	0.023468
426.8171	0.022856
427.0361	0.023701
427.2550	0.023891
427.4739	0.027690
427.6929	0.024038
427.9118	0.025073
428.1308	0.024883
428.3498	0.024123
428.5688	0.023658
428.7878	0.026149
429.0068	0.026149
429.2259	0.027627
429.4449	0.025347
429.6640	0.029210
429.8831	0.026508
430.1022	0.027880
430.3213	0.030729
430.5404	0.029780
430.7595	0.030328
430.9787	0.030138
431.1978	0.027352
431.4170	0.026972
431.6362	0.027352
431.8553	0.025642
432.0745	0.024524
432.2938	0.024038
432.5130	0.023342
432.7322	0.026761
432.9515	0.024038
433.1707	0.025305
433.3900	0.024482
433.6093	0.026993
433.8286	0.029463
434.0479	0.030877
434.2673	0.028598
434.4866	0.027753
434.7059	0.023975
434.9253	0.025220
435.1447	0.026360
435.3641	0.026381
435.5835	0.024840
435.8029	0.024693
436.0223	0.027310
436.2418	0.027563
436.4612	0.027310
436.6807	0.027753
436.9001	0.025854
437.1196	0.024355
437.3391	0.026339
437.5586	0.026001
437.7782	0.026128
437.9977	0.026867
438.2173	0.025431
438.4368	0.028724
438.6564	0.027352
438.8760	0.025875
439.0956	0.026825
439.3152	0.027352
439.5348	0.026698
439.7545	0.024629
439.9741	0.024777
440.1938	0.025431
440.4135	0.025832
440.6331	0.027500
440.8528	0.024693
441.0725	0.027817
441.2923	0.029526
441.5120	0.031046
441.7318	0.031848
441.9515	0.032059
442.1713	0.030181
442.3911	0.030898
442.6109	0.028703
442.8307	0.028471
443.0505	0.028724
443.2703	0.030877
443.4902	0.029315
443.7101	0.032439
443.9299	0.029421
444.1498	0.030835
444.3697	0.028386
444.5896	0.030392
444.8095	0.028028
445.0295	0.027500
445.2494	0.030666
445.4694	0.029484
445.6894	0.025664
445.9093	0.026445
446.1293	0.029189
446.3493	0.028471
446.5694	0.027521
446.7894	0.028344
447.0094	0.027078
447.2295	0.027753
447.4496	0.027078
447.6696	0.024988
447.8897	0.026508
448.1098	0.025980
448.3300	0.026761
448.5501	0.025917
448.7702	0.026044
448.9904	0.027648
449.2106	0.025579
449.4307	0.026677
449.6509	0.024798
449.8711	0.025811
450.0914	0.026466
450.3116	0.025305
450.5318	0.024629
450.7521	0.026065
450.9724	0.023996
451.1926	0.025157
451.4129	0.023236
451.6332	0.023848
451.8535	0.022117
452.0739	0.023004
452.2942	0.021801
452.5146	0.023616
452.7349	0.022139
452.9553	0.021083
453.1757	0.023067
453.3961	0.021400
453.6165	0.021421
453.8369	0.022033
454.0574	0.020788
454.2778	0.021168
454.4983	0.019416
454.7188	0.019226
454.9393	0.020893
455.1597	0.019753
455.3803	0.020218
455.6008	0.021083
455.8213	0.020302
456.0419	0.019880
456.2624	0.018592
456.4830	0.018888
456.7036	0.021421
456.9242	0.018466
457.1448	0.019669
457.3654	0.020935
457.5860	0.020133
457.8067	0.021273
458.0274	0.021505
458.2480	0.022392
458.4687	0.020830
458.6894	0.021358
458.9101	0.018656
459.1308	0.021294
459.3516	0.020745
459.5723	0.020830
459.7931	0.019901
460.0138	0.020471
460.2346	0.019606
460.4554	0.020703
460.6762	0.017326
460.8970	0.018107
461.1178	0.018994
461.3387	0.018550
461.5595	0.018740
461.7804	0.016988
462.0013	0.015511
462.2222	0.015954
462.4431	0.017220
462.6640	0.014139
462.8849	0.014666
463.1059	0.015025
463.3268	0.016081
463.5478	0.015954
463.7687	0.016967
463.9897	0.017242
464.2107	0.017790
464.4317	0.014877
464.6528	0.018339
464.8738	0.016482
465.0948	0.016439
465.3159	0.017136
465.5370	0.016651
465.7581	0.018255
465.9792	0.017157
466.2003	0.015996
466.4214	0.016841
466.6425	0.016503
466.8637	0.014540
467.0848	0.014709
467.3060	0.013505
467.5272	0.013083
467.7484	0.012429
467.9696	0.012830
468.1908	0.013527
468.4120	0.013231
468.6333	0.012957
468.8545	0.011711
469.0758	0.012914
469.2970	0.011944
469.5183	0.011352
469.7396	0.011732
469.9610	0.010213
470.1823	0.010360
470.4036	0.010002
470.6250	0.011099
470.8463	0.008904
471.0677	0.009685
471.2891	0.010023
471.5105	0.008841
471.7319	0.008841
471.9533	0.009706
472.1748	0.010909
472.3962	0.009453
472.6177	0.010466
472.8391	0.010571
473.0606	0.010445
473.2821	0.009769
473.5036	0.012302
473.7251	0.011838
473.9467	0.010339
474.1682	0.010571
474.3898	0.012218
474.6113	0.008651
474.8329	0.010213
475.0545	0.009411
475.2761	0.008777
475.4977	0.009854
475.7193	0.011163
475.9410	0.009622
476.1626	0.010255
476.3843	0.008397
476.6060	0.010149
476.8277	0.009115
477.0494	0.007849
477.2711	0.009368
477.4928	0.007743
477.7145	0.008418
477.9363	0.008524
478.1580	0.008376
478.3798	0.008039
478.6016	0.006751
478.8234	0.009347
479.0452	0.007870
479.2670	0.008334
479.4888	0.009368
479.7107	0.008630
479.9325	0.006329
480.1544	0.008039
480.3763	0.008334
480.5982	0.007553
480.8201	0.009010
481.0420	0.008039
481.2639	0.008144
481.4859	0.007743
481.7078	0.008672
481.9298	0.007870
482.1517	0.008651
482.3737	0.005949
482.5957	0.006371
482.8177	0.006709
483.0398	0.006287
483.2618	0.006751
483.4838	0.005295
483.7059	0.006878
483.9280	0.007279
484.1501	0.006012
484.3721	0.006160
484.5943	0.007659
484.8164	0.006139
485.0385	0.007194
485.2606	0.007785
485.4828	0.008967
485.7050	0.015827
485.9271	0.019648
486.1493	0.021716
486.3715	0.019331
486.5937	0.015447
486.8160	0.012661
487.0382	0.012619
487.2605	0.011754
487.4827	0.009347
487.7050	0.008672
487.9273	0.006645
488.1496	0.007574
488.3719	0.005105
488.5942	0.004345
488.8165	0.004872
489.0389	0.006962
489.2612	0.005231
489.4836	0.005886
489.7060	0.005168
489.9284	0.006688
490.1508	0.004218
490.3732	0.004915
490.5956	0.005126
490.8180	0.004345
491.0405	0.005442
491.2630	0.004746
491.4854	0.004682
491.7079	0.005738
491.9304	0.005337
492.1529	0.005970
492.3755	0.004746
492.5980	0.005062
492.8205	0.006645
493.0431	0.005780
493.2657	0.003289
493.4882	0.005126
493.7108	0.004830
493.9334	0.005928
494.1561	0.003268
494.3787	0.006202
494.6013	0.003247
494.8240	0.004915
495.0466	0.004661
495.2693	0.003733
495.4920	0.004113
495.7147	0.005189
495.9374	0.003711
496.1601	0.005442
496.3829	0.003142
496.6056	0.004957
496.8284	0.004049
497.0511	0.003184
497.2739	0.004281
497.4967	0.003416
497.7195	0.003733
497.9423	0.004408
498.1652	0.004809
498.3880	0.004830
498.6109	0.005062
498.8337	0.004851
499.0566	0.004281
499.2795	0.003310
499.5024	0.003606
499.7253	0.003901
499.9482	0.003564
500.1712	0.004345
500.3941	0.003711
500.6171	0.004725
500.8400	0.002846
501.0630	0.003733
501.2860	0.003036
501.5090	0.004788
501.7320	0.003205
501.9551	0.002487
502.1781	0.003036
502.4012	0.004535
502.6242	0.003057
502.8473	0.004324
503.0704	0.005674
503.2935	0.004767
503.5166	0.004978
503.7397	0.004809
503.9628	0.002930
504.1860	0.003458
504.4092	0.003564
504.6323	0.002719
504.8555	0.004176
505.0787	0.003711
505.3019	0.003142
505.5251	0.003015
505.7483	0.001727
505.9716	0.004197
506.1948	0.004535
506.4181	0.005822
506.6414	0.001770
506.8647	0.005062
507.0880	0.004556
507.3113	0.004471
507.5346	0.003690
507.7579	0.002572
507.9813	0.003184
508.2046	0.004155
508.4280	0.002002
508.6514	0.003163
508.8748	0.004028
509.0982	0.003015
509.3216	0.003163
509.5450	0.003754
509.7685	0.003120
509.9919	0.003184
510.2154	0.001474
510.4388	0.002508
510.6623	0.003268
510.8858	0.003036
511.1093	0.003479
511.3329	0.002740
511.5564	0.003606
511.7799	0.003880
512.0035	0.002804
512.2270	0.003332
512.4506	0.003374
512.6742	0.003268
512.8978	0.002952
513.1214	0.004049
513.3451	0.002023
513.5687	0.003036
513.7923	0.003205
514.0160	0.002698
514.2397	0.002635
514.4634	0.003015
514.6871	0.002825
514.9108	0.003543
515.1345	0.004218
515.3582	0.004260
515.5819	0.003690
515.8057	0.004260
516.0295	0.002318
516.2532	0.003606
516.4770	0.002044
516.7008	0.004408
516.9246	0.003353
517.1485	0.002804
517.3723	0.002846
517.5961	0.005041
517.8200	0.003690
518.0439	0.003543
518.2677	0.003690
518.4916	0.003986
518.7155	0.004281
518.9395	0.003711
519.1634	0.003733
519.3873	0.004429
519.6113	0.003901
519.8352	0.003521
520.0592	0.004028
520.2832	0.004661
520.5072	0.002192
520.7312	0.001917
520.9552	0.004408
521.1792	0.003015
521.4033	0.003880
521.6273	0.002656
521.8514	0.003142
522.0755	0.004872
522.2996	0.002593
522.5237	0.003690
522.7478	0.003458
522.9719	0.002994
523.1960	0.004113
523.4202	0.003353
523.6443	0.003226
523.8685	0.005168
524.0927	0.003711
524.3169	0.002635
524.5411	0.004725
524.7653	0.004260
524.9895	0.004387
525.2138	0.003817
525.4380	0.003564
525.6623	0.003901
525.8865	0.005569
526.1108	0.004260
526.3351	0.004577
526.5594	0.003543
526.7837	0.004619
527.0081	0.003796
527.2324	0.004450
527.4568	0.003564
527.6811	0.005041
527.9055	0.003268
528.1299	0.003585
528.3543	0.004809
528.5787	0.004704
528.8031	0.006244
529.0276	0.005632
529.2520	0.003817
529.4765	0.005632
529.7009	0.004809
529.9254	0.005041
530.1499	0.005295
530.3744	0.005822
530.5989	0.006160
530.8234	0.005590
531.0480	0.004514
531.2725	0.005843
531.4971	0.005210
531.7217	0.006054
531.9462	0.006730
532.1708	0.006054
532.3954	0.006054
532.6200	0.005780
532.8447	0.006223
533.0693	0.006012
533.2940	0.008545
533.5186	0.007279
533.7433	0.006983
533.9680	0.007258
534.1927	0.009579
534.4174	0.007595
534.6421	0.008672
534.8668	0.007638
535.0916	0.008587
535.3163	0.008418
535.5411	0.008165
535.7659	0.009537
535.9907	0.006835
536.2155	0.008165
536.4403	0.008904
536.6651	0.008397
536.8899	0.006899
537.1148	0.008714
537.3396	0.007258
537.5645	0.008693
537.7894	0.008651
538.0143	0.008630
538.2392	0.009727
538.4641	0.008883
538.6890	0.009769
538.9139	0.009854
539.1389	0.009748
539.3638	0.010951
539.5888	0.010234
539.8138	0.009875
540.0388	0.010360
540.2638	0.009685
540.4888	0.010994
540.7138	0.010698
540.9389	0.012155
541.1639	0.011226
541.3890	0.012218
541.6140	0.011542
541.8391	0.010951
542.0642	0.011965
542.2893	0.011986
542.5144	0.012936
542.7396	0.013907
542.9647	0.015342
543.1899	0.011669
543.4150	0.014139
543.6402	0.013379
543.8654	0.016165
544.0906	0.014223
544.3158	0.015279
544.5410	0.013337
544.7662	0.014413
544.9915	0.016017
545.2167	0.015511
545.4420	0.016207
545.6673	0.014603
545.8926	0.015996
546.1179	0.016228
546.3432	0.015827
546.5685	0.015363
546.7938	0.014202
547.0192	0.014751
547.2445	0.015300
547.4699	0.018107
547.6953	0.018466
547.9206	0.018276
548.1460	0.019627
548.3715	0.019606
548.5969	0.020070
548.8223	0.021590
549.0478	0.020450
549.2732	0.016608
549.4987	0.019331
549.7242	0.018635
549.9496	0.019500
550.1751	0.019395
550.4007	0.020408
550.6262	0.019753
550.8517	0.018001
551.0773	0.018719
551.3028	0.018466
551.5284	0.019648
551.7540	0.018846
551.9796	0.021273
552.2052	0.021548
552.4308	0.023954
552.6564	0.022687
552.8820	0.022624
553.1077	0.021738
553.3333	0.022708
553.5590	0.022920
553.7847	0.023574
554.0104	0.025959
554.2361	0.022603
554.4618	0.022096
554.6875	0.021759
554.9132	0.020935
555.1390	0.023173
555.3648	0.024207
555.5905	0.025790
555.8163	0.025431
556.0421	0.026571
556.2679	0.029864
556.4937	0.027774
556.7195	0.026761
556.9454	0.025664
557.1712	0.023637
557.3971	0.026001
557.6230	0.026318
557.8488	0.027584
558.0747	0.025980
558.3006	0.026508
558.5266	0.026761
558.7525	0.024650
558.9784	0.024650
559.2044	0.024946
559.4303	0.025642
559.6563	0.026951
559.8823	0.027584
560.1083	0.030202
560.3343	0.029146
560.5603	0.031152
560.7863	0.033685
561.0124	0.034550
561.2384	0.036112
561.4645	0.034086
561.6905	0.033326
561.9166	0.035795
562.1427	0.035648
562.3688	0.036429
562.5949	0.031553
562.8211	0.034276
563.0472	0.036091
563.2733	0.034233
563.4995	0.035732
563.7257	0.035880
563.9519	0.036998
564.1781	0.035753
564.4043	0.040101
564.6305	0.040629
564.8567	0.038835
565.0829	0.039278
565.3092	0.042993
565.5355	0.042508
565.7617	0.038349
565.9880	0.039215
566.2143	0.041938
566.4406	0.044597
566.6669	0.041663
566.8932	0.043014
567.1196	0.046307
567.3459	0.049030
567.5723	0.053484
567.7987	0.054919
568.0250	0.056439
568.2514	0.055109
568.4778	0.061251
568.7043	0.065283
568.9307	0.067225
569.1571	0.071890
569.3836	0.077251
569.6100	0.087636
569.8365	0.096734
570.0630	0.098865
570.2895	0.103066
570.5160	0.102179
570.7425	0.108786
570.9690	0.110749
571.1956	0.119171
571.4221	0.126284
571.6487	0.128459
571.8752	0.130021
572.1018	0.138020
572.3284	0.136860
572.5550	0.126833
572.7816	0.118179
573.0082	0.117018
573.2349	0.125609
573.4615	0.137261
573.6882	0.149566
573.9149	0.152711
574.1415	0.160901
574.3682	0.166833
574.5949	0.167213
574.8216	0.171772
575.0484	0.176226
575.2751	0.175487
575.5018	0.172848
575.7286	0.168120
575.9554	0.160838
576.1821	0.156321
576.4089	0.160838
576.6357	0.170294
576.8626	0.180320
577.0894	0.186653
577.3162	0.189650
577.5431	0.195518
577.7699	0.214663
577.9968	0.246599
578.2237	0.238304
578.4505	0.227834
578.6774	0.215296
578.9044	0.201492
579.1313	0.190262
579.3582	0.193323
579.5851	0.198916
579.8121	0.208077
580.0391	0.208922
580.2660	0.207001
580.4930	0.204637
580.7200	0.203117
580.9470	0.201407
581.1741	0.240858
581.4011	0.284255
581.6281	0.315136
581.8552	0.322165
582.0822	0.315157
582.3093	0.303252
582.5364	0.287210
582.7635	0.262240
582.9906	0.240393
583.2177	0.220278
583.4449	0.211982
583.6720	0.196531
583.8991	0.193365
584.1263	0.192690
584.3535	0.197671
584.5807	0.200732
584.8079	0.210885
585.0351	0.228235
585.2623	0.233428
585.4895	0.235918
585.7167	0.229924
585.9440	0.224921
586.1713	0.216394
586.3985	0.204067
586.6258	0.196573
586.8531	0.203919
587.0804	0.213586
587.3077	0.227792
587.5350	0.229037
587.7624	0.230262
587.9897	0.218990
588.2171	0.208605
588.4445	0.202273
588.6718	0.200394
588.8992	0.187476
589.1266	0.178125
589.3540	0.172764
589.5815	0.163561
589.8089	0.161999
590.0363	0.162864
590.2638	0.157355
590.4913	0.151888
590.7187	0.146907
590.9462	0.138464
591.1737	0.131519
591.4012	0.129788
591.6288	0.130928
591.8563	0.130823
592.0838	0.129240
592.3114	0.136226
592.5389	0.152184
592.7665	0.180194
592.9941	0.198748
593.2217	0.202526
593.4493	0.197608
593.6769	0.201703
593.9046	0.189650
594.1322	0.181840
594.3598	0.176584
594.5875	0.171540
594.8152	0.182706
595.0429	0.194758
595.2705	0.197629
595.4983	0.193365
595.7260	0.185133
595.9537	0.172067
596.1814	0.166115
596.4092	0.153725
596.6369	0.143466
596.8647	0.142453
597.0925	0.151044
597.3203	0.153408
597.5481	0.152796
597.7759	0.149144
598.0037	0.146252
598.2315	0.141461
598.4594	0.140743
598.6872	0.151487
598.9151	0.173587
599.1430	0.186315
599.3709	0.183339
599.5988	0.179603
599.8267	0.179434
600.0546	0.179054
600.2825	0.182896
600.5105	0.185175
600.7384	0.180278
600.9664	0.186273
601.1944	0.188679
601.4223	0.188130
601.6503	0.177049
601.8783	0.175656
602.1064	0.166242
602.3344	0.166600
602.5624	0.166094
602.7905	0.172764
603.0185	0.175803
603.2466	0.181524
603.4747	0.188468
603.7028	0.192669
603.9309	0.183888
604.1590	0.177809
604.3871	0.169957
604.6152	0.164658
604.8434	0.154083
605.0715	0.155054
605.2997	0.158685
605.5279	0.164405
605.7561	0.169260
605.9843	0.176690
606.2125	0.173819
606.4407	0.164806
606.6689	0.159002
606.8972	0.155139
607.1254	0.157651
607.3537	0.156891
607.5819	0.160437
607.8102	0.157862
608.0385	0.157440
608.2668	0.150748
608.4951	0.152163
608.7235	0.148026
608.9518	0.144184
609.1801	0.139160
609.4085	0.136437
609.6369	0.133524
609.8653	0.139899
610.0936	0.148680
610.3220	0.150601
610.5505	0.148173
610.7789	0.141398
611.0073	0.141989
611.2357	0.137429
611.4642	0.137218
611.6927	0.139836
611.9211	0.136796
612.1496	0.134327
612.3781	0.130548
612.6066	0.128058
612.8351	0.128121
613.0637	0.132047
613.2922	0.129029
613.5208	0.127593
613.7493	0.128079
613.9779	0.130548
614.2065	0.129007
614.4351	0.128564
614.6637	0.126918
614.8923	0.125292
615.1209	0.126643
615.3495	0.129240
615.5782	0.134559
615.8068	0.132765
616.0355	0.127530
616.2642	0.121577
616.4929	0.114380
616.7216	0.113219
616.9503	0.113261
617.1790	0.109103
617.4077	0.114380
617.6365	0.112248
617.8652	0.109398
618.0940	0.116005
618.3227	0.110855
618.5515	0.103193
618.7803	0.096164
619.0091	0.093103
619.2379	0.091710
619.4667	0.093019
619.6956	0.090760
619.9244	0.094391
620.1533	0.097346
620.3821	0.098570
620.6110	0.094749
620.8399	0.089304
621.0688	0.084765
621.2977	0.074296
621.5266	0.076555
621.7556	0.076660
621.9845	0.081409
622.2135	0.083900
622.4424	0.082570
622.6714	0.084702
622.9004	0.087742
623.1294	0.090950
623.3584	0.090676
623.5874	0.091056
623.8164	0.088079
624.0454	0.087446
624.2745	0.088079
624.5035	0.090676
624.7326	0.089599
624.9617	0.090507
625.1908	0.088164
625.4199	0.085399
625.6490	0.083330
625.8781	0.079024
626.1072	0.078602
626.3364	0.078032
626.5655	0.073958
626.7947	0.070771
627.0238	0.071974
627.2530	0.071256
627.4822	0.072628
627.7114	0.071721
627.9406	0.068998
628.1698	0.067520
628.3991	0.064228
628.6283	0.060618
628.8576	0.060090
629.0868	0.060513
629.3161	0.063911
629.5454	0.064249
629.7747	0.061906
630.0040	0.064650
630.2333	0.061505
630.4626	0.059753
630.6920	0.058740
630.9213	0.056988
631.1507	0.053125
631.3801	0.053927
631.6094	0.052766
631.8388	0.054201
632.0682	0.051542
632.2976	0.052977
632.5271	0.051077
632.7565	0.047362
632.9859	0.046159
633.2154	0.046560
633.4448	0.043901
633.6743	0.045231
633.9038	0.045484
634.1333	0.043246
634.3628	0.043753
634.5923	0.043816
634.8218	0.043183
635.0514	0.042761
635.2809	0.040397
635.5105	0.042698
635.7400	0.043310
635.9696	0.043647
636.1992	0.043922
636.4288	0.047827
636.6584	0.046054
636.8880	0.045589
637.1177	0.043669
637.3473	0.042212
637.5770	0.041326
637.8066	0.042402
638.0363	0.042613
638.2660	0.040713
638.4957	0.043225
638.7254	0.043310
638.9551	0.041917
639.1848	0.043457
639.4145	0.043120
639.6443	0.038207
639.8740	0.039285
640.1038	0.036851
640.3336	0.037612
640.5633	0.034444
640.7931	0.035638
641.0229	0.034044
641.2528	0.036613
641.4826	0.035862
641.7124	0.033927
641.9423	0.032898
642.1721	0.031258
642.4020	0.030115
642.6319	0.029386
642.8617	0.030190
643.0916	0.029047
643.3216	0.030094
643.5515	0.028996
643.7814	0.029113
644.0113	0.030623
644.2413	0.028712
644.4712	0.030015
644.7012	0.027983
644.9312	0.027558
645.1612	0.026260
645.3912	0.030900
645.6212	0.028540
645.8512	0.026959
646.0812	0.026672
646.3113	0.023601
646.5413	0.025404
646.7714	0.025328
647.0015	0.025431
647.2316	0.024437
647.4616	0.024875
647.6918	0.025611
647.9219	0.027605
648.1520	0.029748
648.3821	0.031884
648.6123	0.034879
648.8424	0.030985
649.0726	0.035258
649.3028	0.033657
649.5329	0.033743
649.7631	0.034540
649.9933	0.031482
650.2236	0.030315
650.4538	0.029427
650.6840	0.029383
650.9143	0.030358
651.1445	0.028321
651.3748	0.028957
651.6051	0.030878
651.8354	0.031319
652.0657	0.032048
652.2960	0.031556
652.5263	0.033255
652.7566	0.031372
652.9870	0.032301
653.2173	0.032891
653.4477	0.032932
653.6780	0.033529
653.9084	0.030245
654.1388	0.032135
654.3692	0.034386
654.5996	0.034459
654.8300	0.040960
655.0605	0.067597
655.2909	0.188901
655.5213	0.532815
655.7518	0.958008
655.9823	1.000000
656.2128	1.000000
656.4433	1.000000
656.6738	1.000000
656.9043	1.000000
657.1348	0.861075
657.3653	0.710606
657.5959	0.611991
657.8264	0.532059
658.0570	0.483750
658.2875	0.448726
658.5181	0.412879
658.7487	0.380707
658.9793	0.368637
659.2099	0.333913
659.4406	0.257802
659.6712	0.172937
659.9018	0.102292
660.1325	0.063241
660.3632	0.040805
660.5938	0.031366
660.8245	0.029341
661.0552	0.025089
661.2859	0.024429
661.5166	0.025162
661.7474	0.023480
661.9781	0.022945
662.2088	0.022915
662.4396	0.022240
662.6704	0.024624
662.9011	0.023392
663.1319	0.023509
663.3627	0.022330
663.5935	0.022815
663.8243	0.021727
664.0552	0.024300
664.2860	0.020818
664.5168	0.021594
664.7477	0.025437
664.9786	0.023634
665.2094	0.023967
665.4403	0.023435
665.6712	0.023205
665.9021	0.022662
666.1330	0.023976
666.3640	0.021843
666.5949	0.024921
666.8259	0.020650
667.0568	0.022241
667.2878	0.020223
667.5188	0.021021
667.7497	0.020239
667.9807	0.021943
668.2117	0.021207
668.4428	0.021906
668.6738	0.021189
668.9048	0.022561
669.1359	0.021885
669.3669	0.022117
669.5980	0.021463
669.8291	0.021716
670.0602	0.022877
670.2913	0.024080
670.5224	0.021780
670.7535	0.022898
670.9846	0.023869
671.2157	0.024883
671.4469	0.027795
671.6781	0.028745
671.9092	0.028450
672.1404	0.032397
672.3716	0.035795
672.6028	0.037104
672.8340	0.035352
673.0652	0.033558
673.2964	0.031489
673.5277	0.032313
673.7589	0.031722
673.9902	0.032186
674.2214	0.028830
674.4527	0.030075
674.6840	0.027732
674.9153	0.025748
675.1466	0.027943
675.3779	0.028788
675.6093	0.027732
675.8406	0.026761
676.0719	0.027120
676.3033	0.025431
676.5347	0.027183
676.7661	0.026719
676.9974	0.023236
677.2288	0.023975
677.4602	0.026571
677.6917	0.025664
677.9231	0.029822
678.1545	0.027563
678.3860	0.029041
678.6174	0.031574
678.8489	0.029167
679.0804	0.032882
679.3119	0.033241
679.5434	0.032101
679.7749	0.035373
680.0064	0.037273
680.2379	0.033663
680.4694	0.039869
680.7010	0.035247
680.9325	0.035373
681.1641	0.032038
681.3957	0.034888
681.6273	0.036133
681.8589	0.035247
682.0905	0.033642
682.3221	0.033262
682.5537	0.030962
682.7854	0.029843
683.0170	0.031088
683.2487	0.032313
683.4803	0.031658
683.7120	0.032165
683.9437	0.031004
684.1754	0.033706
684.4071	0.035880
684.6388	0.038877
684.8705	0.040059
685.1023	0.042128
685.3340	0.044238
685.5658	0.045463
685.7975	0.043711
686.0293	0.045336
686.2611	0.041874
686.4929	0.045822
686.7247	0.042909
686.9565	0.044048
687.1883	0.044154
687.4202	0.043542
687.6520	0.043246
687.8838	0.042761
688.1157	0.041157
688.3476	0.038286
688.5795	0.038898
688.8114	0.036830
689.0433	0.037801
689.2752	0.039489
689.5071	0.039553
689.7390	0.038560
689.9710	0.034297
690.2029	0.033748
690.4349	0.035394
690.6669	0.033326
690.8988	0.035732
691.1308	0.038265
691.3628	0.038096
691.5948	0.040312
691.8269	0.037653
692.0589	0.039679
692.2909	0.037969
692.5230	0.036534
692.7550	0.038328
692.9871	0.039067
693.2192	0.042022
693.4513	0.041136
693.6834	0.037737
693.9155	0.038223
694.1476	0.035310
694.3797	0.033917
694.6119	0.033685
694.8440	0.037188
695.0762	0.035648
695.3083	0.035289
695.5405	0.032397
695.7727	0.031658
696.0049	0.031595
696.2371	0.029357
696.4693	0.033431
696.7016	0.037547
696.9338	0.037273
697.1660	0.039658
697.3983	0.038940
697.6306	0.038835
697.8628	0.036682
698.0951	0.039046
698.3274	0.039595
698.5597	0.037421
698.7920	0.037231
699.0243	0.037927
699.2567	0.037463
699.4890	0.034909
699.7214	0.035057
699.9537	0.033811
700.1861	0.031911
700.4185	0.030539
700.6509	0.033832
700.8833	0.032735
701.1157	0.030096
701.3481	0.029252
701.5806	0.031764
701.8130	0.029400
702.0454	0.030328
702.2779	0.030919
702.5104	0.030539
702.7429	0.030624
702.9753	0.030223
703.2078	0.030751
703.4403	0.029547
703.6729	0.028851
703.9054	0.026487
704.1379	0.027120
704.3705	0.028492
704.6030	0.028598
704.8356	0.024355
705.0682	0.025938
705.3008	0.025305
705.5334	0.025410
705.7660	0.025326
705.9986	0.025896
706.2312	0.027880
706.4638	0.031827
706.6965	0.034001
706.9291	0.036619
707.1618	0.038497
707.3945	0.042212
707.6272	0.039236
707.8599	0.035479
708.0926	0.039194
708.3253	0.036619
708.5580	0.039067
708.7907	0.038392
709.0235	0.035120
709.2562	0.033790
709.4890	0.034803
709.7217	0.033241
709.9545	0.035500
710.1873	0.033875
710.4201	0.035753
710.6529	0.036302
710.8857	0.035268
711.1186	0.033516
711.3514	0.035035
711.5842	0.033600
711.8171	0.030919
712.0500	0.030666
712.2828	0.026740
712.5157	0.030413
712.7486	0.029991
712.9815	0.030898
713.2144	0.029379
713.4474	0.033642
713.6803	0.035099
713.9132	0.033917
714.1462	0.035458
714.3791	0.035922
714.6121	0.035057
714.8451	0.035247
715.0781	0.036302
715.3111	0.035605
715.5441	0.034930
715.7771	0.033495
716.0102	0.032313
716.2432	0.032334
716.4762	0.028598
716.7093	0.029442
716.9424	0.028956
717.1754	0.028197
717.4085	0.027817
717.6416	0.027289
717.8747	0.029231
718.1078	0.029569
718.3410	0.030434
718.5741	0.027437
718.8072	0.029463
719.0404	0.030096
719.2736	0.030371
719.5067	0.031194
719.7399	0.029864
719.9731	0.027901
720.2063	0.028893
720.4395	0.028999
720.6727	0.029125
720.9060	0.029400
721.1392	0.028978
721.3725	0.031046
721.6057	0.030772
721.8390	0.030497
722.0723	0.029695
722.3055	0.031405
722.5388	0.027817
722.7721	0.027352
723.0055	0.029653
723.2388	0.026867
723.4721	0.028640
723.7055	0.027922
723.9388	0.029611
724.1722	0.027416
724.4056	0.027605
724.6389	0.027964
724.8723	0.029189
725.1057	0.031489
725.3391	0.032481
725.5726	0.032270
725.8060	0.034423
726.0394	0.034423
726.2729	0.033769
726.5063	0.032798
726.7398	0.033579
726.9733	0.032355
727.2068	0.034529
727.4403	0.032460
727.6738	0.034297
727.9073	0.033980
728.1408	0.035500
728.3743	0.034170
728.6079	0.036049
728.8414	0.033727
729.0750	0.034170
729.3086	0.036365
729.5421	0.038307
729.7757	0.038328
730.0093	0.037927
730.2429	0.036555
730.4766	0.038645
730.7102	0.039215
730.9438	0.040861
731.1775	0.042550
731.4111	0.042508
731.6448	0.045231
731.8785	0.044661
732.1122	0.044703
732.3458	0.041494
732.5795	0.041368
732.8133	0.044534
733.0470	0.041727
733.2807	0.043795
733.5145	0.043880
733.7482	0.046286
733.9820	0.048840
734.2157	0.051668
734.4495	0.052914
734.6833	0.050529
734.9171	0.048122
735.1509	0.046370
735.3847	0.050550
735.6185	0.046413
735.8524	0.050887
736.0862	0.050254
736.3201	0.048692
736.5539	0.048354
736.7878	0.049220
737.0217	0.048924
737.2556	0.048692
737.4895	0.046096
737.7234	0.045336
737.9573	0.044006
738.1912	0.042550
738.4252	0.041030
738.6591	0.041600
738.8931	0.042233
739.1271	0.044935
739.3610	0.047447
739.5950	0.046476
739.8290	0.046518
740.0630	0.045505
740.2970	0.040608
740.5310	0.041030
740.7651	0.040545
740.9991	0.039173
741.2332	0.036386
741.4672	0.034022
741.7013	0.035985
741.9354	0.036175
742.1695	0.037231
742.4036	0.034022
742.6377	0.036703
742.8718	0.036745
743.1059	0.034212
743.3400	0.033537
743.5742	0.031384
743.8083	0.029885
744.0425	0.031320
744.2767	0.029336
744.5108	0.029273
744.7450	0.030856
744.9792	0.030476
745.2134	0.028872
745.4477	0.029167
745.6819	0.027669
745.9161	0.029822
746.1504	0.028112
746.3846	0.029189
746.6189	0.027605
746.8532	0.029442
747.0874	0.030729
747.3217	0.032144
747.5560	0.033283
747.7903	0.031553
748.0247	0.029948
748.2590	0.028070
748.4933	0.027310
748.7277	0.030413
748.9620	0.027479
749.1964	0.030434
749.4308	0.032123
749.6652	0.033115
749.8995	0.035626
750.1339	0.040355
750.3684	0.040101
750.6028	0.040355
750.8372	0.041262
751.0717	0.038012
751.3061	0.038919
751.5406	0.039721
751.7750	0.041347
752.0095	0.040587
752.2440	0.040692
752.4785	0.039848
752.7130	0.038835
752.9475	0.036365
753.1820	0.038687
753.4166	0.038645
753.6511	0.041473
753.8856	0.043521
754.1202	0.042508
754.3548	0.041410
754.5894	0.041114
754.8239	0.041093
755.0585	0.040439
755.2931	0.042297
755.5278	0.041473
755.7624	0.043795
755.9970	0.044703
756.2317	0.045864
756.4663	0.047067
756.7010	0.051605
756.9356	0.050887
757.1703	0.054159
757.4050	0.057600
757.6397	0.059352
757.8744	0.058866
758.1091	0.059837
758.3438	0.056122
758.5786	0.055552
758.8133	0.056207
759.0481	0.053695
759.2828	0.058317
759.5176	0.060259
759.7524	0.059753
759.9872	0.059162
760.2220	0.060850
760.4568	0.062898
760.6916	0.064059
760.9264	0.064713
761.1613	0.063489
761.3961	0.061061
761.6310	0.056523
761.8658	0.053188
762.1007	0.050592
762.3356	0.051647
762.5705	0.047405
762.8054	0.049558
763.0403	0.052238
763.2752	0.048988
763.5101	0.054117
763.7450	0.048798
763.9800	0.049684
764.2149	0.053104
764.4499	0.057410
764.6849	0.057051
764.9198	0.059077
765.1548	0.062412
765.3898	0.057579
765.6248	0.054898
765.8599	0.051753
766.0949	0.049959
766.3299	0.047341
766.5650	0.045990
766.8000	0.042254
767.0351	0.040756
767.2701	0.038560
767.5052	0.037589
767.7403	0.040671
767.9754	0.041874
768.2105	0.043289
768.4456	0.044872
768.6808	0.048587
768.9159	0.050740
769.1510	0.047384
769.3862	0.049368
769.6214	0.046729
769.8565	0.045357
770.0917	0.042993
770.3269	0.045041
770.5621	0.047911
770.7973	0.047215
771.0325	0.047257
771.2677	0.048038
771.5030	0.048397
771.7382	0.045885
771.9735	0.042571
772.2087	0.042149
772.4440	0.041959
772.6793	0.041579
772.9146	0.042085
773.1499	0.039341
773.3852	0.039890
773.6205	0.039616
773.8558	0.035943
774.0911	0.037801
774.3265	0.034972
774.5618	0.031658
774.7972	0.033178
775.0326	0.030223
775.2679	0.031320
775.5033	0.027563
775.7387	0.029125
775.9741	0.029273
776.2095	0.027711
776.4450	0.027605
776.6804	0.026402
776.9158	0.025410
777.1513	0.026698
777.3868	0.026402
777.6222	0.024270
777.8577	0.022856
778.0932	0.024925
778.3287	0.024819
778.5642	0.028935
778.7997	0.028154
779.0352	0.030603
779.2707	0.031574
779.5063	0.032313
779.7418	0.030708
779.9774	0.031975
780.2130	0.029062
780.4485	0.029020
780.6841	0.031890
780.9197	0.029421
781.1553	0.032861
781.3909	0.034086
781.6265	0.033241
781.8622	0.032650
782.0978	0.034845
782.3335	0.034782
782.5691	0.034508
782.8048	0.037526
783.0405	0.032692
783.2761	0.035120
783.5118	0.035648
783.7475	0.034233
783.9832	0.033642
784.2190	0.034297
784.4547	0.031109
784.6904	0.028640
784.9262	0.026972
785.1619	0.029611
785.3977	0.030751
785.6335	0.028365
785.8692	0.029505
786.1050	0.030624
786.3408	0.029400
786.5766	0.030307
786.8124	0.028323
787.0483	0.029357
787.2841	0.028365
787.5199	0.029801
787.7558	0.030835
787.9917	0.029885
788.2275	0.030033
788.4634	0.031173
788.6993	0.031236
788.9352	0.032439
789.1711	0.033727
789.4070	0.030729
789.6429	0.028471
789.8789	0.028999
790.1148	0.026128
790.3507	0.025263
790.5867	0.024840
790.8227	0.026402
791.0586	0.027605
791.2946	0.025452
791.5306	0.025727
791.7666	0.023806
792.0026	0.024693
792.2387	0.025094
792.4747	0.022139
792.7107	0.024650
792.9468	0.020598
793.1828	0.021801
793.4189	0.022730
793.6550	0.023891
793.8910	0.026339
794.1271	0.030455
794.3632	0.031743
794.5993	0.031933
794.8355	0.031637
795.0716	0.033368
795.3077	0.034191
795.5439	0.034402
795.7800	0.029189
796.0162	0.026001
796.2523	0.027078
796.4885	0.024439
796.7247	0.022793
796.9609	0.022392
797.1971	0.020661
797.4333	0.024165
797.6695	0.022877
797.9058	0.022244
798.1420	0.025389
798.3783	0.022265
798.6145	0.024270
798.8508	0.023616
799.0871	0.022307
799.3233	0.022350
799.5596	0.021294
799.7959	0.022244
800.0322	0.018972
800.2686	0.021843
800.5049	0.021020
800.7412	0.019458
800.9776	0.019922
801.2139	0.019817
801.4503	0.019669
801.6867	0.019500
801.9230	0.019078
802.1594	0.015637
802.3958	0.018107
802.6322	0.016819
802.8686	0.016967
803.1051	0.019585
803.3415	0.018867
803.5779	0.017432
803.8144	0.018086
804.0508	0.017199
804.2873	0.018466
804.5238	0.018529
804.7603	0.016524
804.9968	0.017157
805.2333	0.016967
805.4698	0.016629
805.7063	0.019817
805.9428	0.019627
806.1794	0.022413
806.4159	0.021843
806.6525	0.026128
806.8890	0.024418
807.1256	0.021801
807.3622	0.023405
807.5988	0.022814
807.8354	0.024714
808.0720	0.022561
808.3086	0.022772
808.5452	0.022392
808.7818	0.023616
809.0185	0.023447
809.2551	0.022751
809.4918	0.020872
809.7284	0.021864
809.9651	0.019838
810.2018	0.020366
810.4385	0.019141
810.6752	0.018846
810.9119	0.019753
811.1486	0.020978
811.3853	0.019331
811.6221	0.020450
811.8588	0.019078
812.0956	0.016672
812.3323	0.017220
812.5691	0.015701
812.8059	0.014772
813.0427	0.013970
813.2795	0.014118
813.5163	0.016651
813.7531	0.018466
813.9899	0.018951
814.2267	0.018972
814.4636	0.019943
814.7004	0.016946
814.9373	0.019268
815.1742	0.017115
815.4110	0.017009
815.6479	0.015046
815.8848	0.014624
816.1217	0.015637
816.3586	0.015532
816.5955	0.012070
816.8324	0.017220
817.0694	0.013484
817.3063	0.014877
817.5433	0.015764
817.7802	0.014941
818.0172	0.015067
818.2542	0.015743
818.4912	0.014223
818.7282	0.014434
818.9652	0.012957
819.2022	0.013147
819.4392	0.013104
819.6762	0.013358
819.9133	0.012049
820.1503	0.014877
820.3874	0.015933
820.6244	0.014688
820.8615	0.015912
821.0986	0.014793
821.3357	0.014286
821.5727	0.014012
821.8099	0.014645
822.0470	0.014033
822.2841	0.014033
822.5212	0.013991
822.7584	0.014096
822.9955	0.011310
823.2327	0.011057
823.4698	0.012218
823.7070	0.011901
823.9442	0.011057
824.1814	0.011859
824.4186	0.012218
824.6558	0.010382
824.8930	0.011690
825.1302	0.012513
825.3675	0.013062
825.6047	0.012978
825.8419	0.012366
826.0792	0.013653
826.3165	0.012914
826.5537	0.011880
826.7910	0.013674
827.0283	0.014202
827.2656	0.012345
827.5029	0.014666
827.7402	0.013316
827.9776	0.013316
828.2149	0.011838
828.4522	0.013189
828.6896	0.013041
828.9270	0.012640
829.1643	0.013632
829.4017	0.013949
829.6391	0.010360
829.8765	0.011732
830.1139	0.010424
830.3513	0.011289
830.5887	0.009052
830.8261	0.011775
831.0636	0.010170
831.3010	0.009432
831.5385	0.010023
831.7759	0.007870
832.0134	0.010192
832.2509	0.008461
832.4884	0.008883
832.7259	0.009474
832.9634	0.010487
833.2009	0.009305
833.4384	0.009389
833.6759	0.008883
833.9135	0.010023
834.1510	0.011036
834.3886	0.010213
834.6261	0.010149
834.8637	0.009938
835.1013	0.010360
835.3389	0.010867
835.5765	0.009833
835.8141	0.012260
836.0517	0.010255
836.2893	0.009601
836.5269	0.009136
836.7646	0.008798
837.0022	0.008397
837.2399	0.007996
837.4775	0.006983
837.7152	0.009495
837.9529	0.008186
838.1906	0.007975
838.4283	0.008651
838.6660	0.005527
838.9037	0.006413
839.1414	0.005949
839.3791	0.005780
839.6169	0.008250
839.8546	0.008165
840.0924	0.008461
840.3302	0.006962
840.5679	0.007068
840.8057	0.006772
841.0435	0.007110
841.2813	0.008482
841.5191	0.007025
841.7569	0.006266
841.9947	0.007764
842.2326	0.005358
842.4704	0.005928
842.7082	0.005991
842.9461	0.006455
843.1840	0.005843
843.4218	0.004619
843.6597	0.006076
843.8976	0.004239
844.1355	0.005717
844.3734	0.005463
844.6113	0.006202
844.8492	0.006033
845.0872	0.005674
845.3251	0.004514
845.5631	0.006835
845.8010	0.005485
846.0390	0.006983
846.2770	0.004661
846.5149	0.005252
846.7529	0.005801
846.9909	0.005062
847.2289	0.003901
847.4669	0.005738
847.7050	0.007342
847.9430	0.007849
848.1810	0.006287
848.4191	0.006076
848.6571	0.006350
848.8952	0.005632
849.1333	0.004176
849.3713	0.005780
849.6094	0.004661
849.8475	0.005295
850.0856	0.005970
850.3237	0.005062
850.5619	0.005970
850.8000	0.004872
851.0381	0.004197
851.2763	0.005189
851.5144	0.005485
851.7526	0.005527
851.9908	0.004767
852.2289	0.005717
852.4671	0.007912
852.7053	0.008841
852.9435	0.009453
853.1817	0.012239
853.4200	0.011817
853.6582	0.013463
853.8964	0.014920
854.1347	0.014666
854.3729	0.014096
854.6112	0.014941
854.8495	0.014350
855.0877	0.013358
855.3260	0.013590
855.5643	0.013463
855.8026	0.012936
856.0409	0.012682
856.2792	0.013168
856.5176	0.014202
856.7559	0.012408
856.9942	0.012366
857.2326	0.010677
857.4710	0.010403
857.7093	0.008250
857.9477	0.011944
858.1861	0.010635
858.4245	0.011732
858.6629	0.011775
858.9013	0.009959
859.1397	0.009833
859.3781	0.009579
859.6166	0.008735
859.8550	0.008841
860.0935	0.008820
860.3319	0.008355
860.5704	0.007975
860.8089	0.008418
861.0473	0.006181
861.2858	0.008566
861.5243	0.004936
861.7628	0.008566
862.0013	0.007595
862.2399	0.005907
862.4784	0.006244
862.7169	0.006012
862.9555	0.006645
863.1940	0.006835
863.4326	0.007659
863.6712	0.006814
863.9098	0.007068
864.1483	0.006329
864.3869	0.005590
864.6255	0.006857
864.8642	0.007300
865.1028	0.006244
865.3414	0.004788
865.5800	0.005886
865.8187	0.006287
866.0573	0.004028
866.2960	0.005062
866.5347	0.006054
866.7733	0.005463
867.0120	0.006455
867.2507	0.005463
867.4894	0.007068
867.7281	0.004492
867.9669	0.006097
868.2056	0.005674
868.4443	0.004999
868.6831	0.005210
868.9218	0.006097
869.1606	0.004514
869.3993	0.004957
869.6381	0.003332
869.8769	0.006202
870.1157	0.005295
870.3545	0.004746
870.5933	0.004915
870.8321	0.006413
871.0709	0.006519
871.3097	0.006455
871.5486	0.006920
871.7874	0.005210
872.0263	0.006054
872.2651	0.004957
872.5040	0.006118
872.7429	0.004830
872.9818	0.005590
873.2207	0.005822
873.4596	0.006561
873.6985	0.005738
873.9374	0.005463
874.1763	0.005569
874.4153	0.005463
874.6542	0.006962
874.8932	0.005273
875.1321	0.006645
875.3711	0.006266
875.6101	0.007089
875.8491	0.007595
876.0880	0.006645
876.3270	0.005442
876.5661	0.005759
876.8051	0.005463
877.0441	0.005738
877.2831	0.005548
877.5222	0.005864
877.7612	0.007891
878.0003	0.005843
878.2393	0.006582
878.4784	0.007490
878.7175	0.006603
878.9566	0.007236
879.1957	0.008418
879.4348	0.007131
879.6739	0.006941
879.9130	0.008630
880.1521	0.008207
880.3913	0.006983
880.6304	0.008039
880.8696	0.009115
881.1087	0.008186
881.3479	0.006878
881.5871	0.007194
881.8262	0.006097
882.0654	0.005886
882.3046	0.005991
882.5438	0.006223
882.7831	0.006076
883.0223	0.006899
883.2615	0.007236
883.5007	0.007912
883.7400	0.005759
883.9792	0.006814
884.2185	0.006730
884.4578	0.007152
884.6971	0.006455
884.9363	0.007046
885.1756	0.005864
885.4149	0.006413
885.6542	0.007025
885.8936	0.006118
886.1329	0.005400
886.3722	0.007616
886.6116	0.007701
886.8509	0.006033
887.0903	0.005548
887.3296	0.005463
887.5690	0.006054
887.8084	0.005316
888.0478	0.005210
888.2872	0.005316
888.5266	0.006139
888.7660	0.005611
889.0054	0.005590
889.2448	0.005506
889.4843	0.004239
889.7237	0.005485
889.9632	0.004915
890.2026	0.005147
890.4421	0.003901
890.6816	0.005189
890.9211	0.003901
891.1606	0.004704
891.4001	0.005632
891.6396	0.004788
891.8791	0.005358
892.1186	0.005843
892.3581	0.005168
892.5977	0.005843
892.8372	0.004725
893.0768	0.007258
893.3163	0.005126
893.5559	0.004577
893.7955	0.005463
894.0351	0.004619
894.2747	0.003500
894.5143	0.003648
894.7539	0.003986
894.9935	0.005717
895.2331	0.003923
895.4727	0.005738
895.7124	0.004366
895.9520	0.005189
896.1917	0.005569
896.4314	0.006266
896.6710	0.004851
896.9107	0.005569
897.1504	0.004408
897.3901	0.005632
897.6298	0.004387
897.8695	0.003901
898.1092	0.004957
898.3489	0.005105
898.5887	0.005041
898.8284	0.005590
899.0682	0.004155
899.3079	0.006054
899.5477	0.004239
899.7875	0.004556
900.0272	0.005485
900.2670	0.004915
900.5068	0.004471
900.7466	0.004788
900.9864	0.004450
901.2263	0.004239
901.4661	0.004302
901.7059	0.006477
901.9458	0.004070
902.1856	0.005210
902.4255	0.004281
902.6654	0.004007
902.9052	0.004661
903.1451	0.004113
903.3850	0.003564
903.6249	0.004450
903.8648	0.003543
904.1047	0.005105
904.3446	0.005041
904.5846	0.005231
904.8245	0.004619
905.0644	0.002361
905.3044	0.004450
905.5444	0.004767
905.7843	0.004725
906.0243	0.006266
906.2643	0.003711
906.5043	0.005485
906.7443	0.005337
906.9843	0.005548
907.2243	0.004893
907.4643	0.004366
907.7043	0.004302
907.9444	0.003395
908.1844	0.004007
908.4245	0.003838
908.6645	0.003711
908.9046	0.003838
909.1447	0.003521
909.3847	0.004070
909.6248	0.004197
909.8649	0.004640
910.1050	0.002909
910.3452	0.005400
910.5853	0.002888
910.8254	0.004957
911.0655	0.004893
911.3057	0.004366
911.5458	0.002867
911.7860	0.003986
912.0262	0.003648
912.2663	0.004514
912.5065	0.004893
912.7467	0.003120
912.9869	0.005506
913.2271	0.004028
913.4673	0.004640
913.7075	0.004746
913.9478	0.001981
914.1880	0.003332
914.4283	0.003479
914.6685	0.003374
914.9088	0.001453
915.1490	0.003120
915.3893	0.002867
915.6296	0.003500
915.8699	0.003754
916.1102	0.003880
916.3505	0.003099
916.5908	0.004640
916.8311	0.003437
917.0714	0.003205
917.3118	0.004408
917.5521	0.003796
917.7925	0.005210
918.0328	0.004661
918.2732	0.003986
918.5136	0.005210
918.7539	0.004387
918.9943	0.003142
919.2347	0.003901
919.4751	0.005780
919.7155	0.004366
919.9560	0.003859
920.1964	0.004387
920.4368	0.004746
920.6773	0.002698
920.9177	0.003163
921.1582	0.001305
921.3986	0.004366
921.6391	0.003226
921.8796	0.004387
922.1201	0.004302
922.3606	0.002192
922.6011	0.002508
922.8416	0.003944
923.0821	0.002740
923.3226	0.003543
923.5631	0.003606
923.8037	0.004450
924.0442	0.002192
924.2848	0.002909
924.5254	0.001411
924.7659	0.003310
925.0065	0.002086
925.2471	0.003120
925.4877	0.003796
925.7283	0.003205
925.9689	0.003711
926.2095	0.002867
926.4501	0.002318
926.6908	0.002593
926.9314	0.002445
927.1720	0.001347
927.4127	0.002529
927.6533	0.001622
927.8940	0.003289
928.1347	0.004704
928.3754	0.002234
928.6161	0.001854
928.8568	0.003690
929.0975	0.002677
929.3382	0.002762
929.5789	0.001516
929.8196	0.000946
930.0604	0.003479
930.3011	0.003078
930.5419	0.002192
930.7826	0.002234
931.0234	0.003627
931.2642	0.001432
931.5049	0.002677
931.7457	0.000588
931.9865	0.003184
932.2273	0.003416
932.4681	0.002044
932.7089	0.000904
932.9498	0.003268
933.1906	0.001200
933.4314	0.002107
933.6723	0.002952
933.9131	0.003648
934.1540	0.002888
934.3949	0.002403
934.6358	0.002635
934.8766	0.003226
935.1175	0.002783
935.3584	0.003226
935.5993	0.002002
935.8403	0.003521
936.0812	0.001791
936.3221	0.002551
936.5630	0.002002
936.8040	0.000841
937.0449	0.002382
937.2859	0.003036
937.5269	0.001432
937.7678	0.002445
938.0088	0.002973
938.2498	0.001960
938.4908	0.003268
938.7318	0.001094
938.9728	0.002593
939.2138	0.001284
939.4549	0.002466
939.6959	-0.000004
939.9369	0.002930
940.1780	0.002128
940.4190	0.002740
940.6601	0.001411
940.9012	0.002023
941.1422	0.003057
941.3833	0.001748
941.6244	0.001516
941.8655	0.001685
942.1066	0.000735
942.3477	0.002677
942.5889	0.001580
942.8300	0.000018
943.0711	0.001368
943.3123	0.000946
943.5534	0.001411
943.7946	0.001537
944.0357	0.000946
944.2769	0.001896
944.5181	0.002023
944.7593	0.002171
945.0005	0.001411
945.2417	0.000989
945.4829	0.002952
945.7241	0.001010
945.9653	0.001601
946.2066	0.002424
946.4478	0.001558
946.6891	0.002171
946.9303	0.001368
947.1716	0.002909
947.4128	0.001031
947.6541	0.001748
947.8954	0.001558
948.1367	0.001981
948.3780	0.000609
948.6193	0.000440
948.8606	0.001580
949.1019	0.002804
949.3433	0.000651
949.5846	0.000186
949.8259	0.001347
950.0673	0.001411
950.3086	0.001706
950.5500	0.002698
950.7914	0.001263
951.0327	0.002171
951.2741	0.002086
951.5155	0.001390
951.7569	0.000398
951.9983	0.002424
952.2398	0.001052
952.4812	0.002213
952.7226	0.002677
952.9640	0.002677
953.2055	0.000440
953.4469	0.002825
953.6884	0.001601
953.9299	0.001474
954.1713	0.000651
954.4128	0.001812
954.6543	0.001601
954.8958	0.001242
955.1373	0.000102
955.3788	0.002466
955.6203	0.000630
955.8618	0.000967
956.1034	0.000799
956.3449	0.002192
956.5865	0.002192
956.8280	0.000756
957.0696	0.002740
957.3111	0.002551
957.5527	0.001474
957.7943	0.000524
958.0359	0.001706
958.2775	0.000820
958.5191	0.001263
958.7607	0.001432
959.0023	0.001136
959.2439	-0.000595
959.4856	0.000334
959.7272	0.000777
959.9688	0.001580
960.2105	0.000989
960.4522	0.001516
960.6938	0.001664
960.9355	0.002086
961.1772	0.001558
961.4189	0.001495
961.6606	0.000820
961.9023	-0.000531
962.1440	0.001854
962.3857	0.001073
962.6274	0.000777
962.8692	-0.000552
963.1109	0.000672
963.3527	0.000081
963.5944	0.000588
963.8362	-0.000278
964.0779	0.001685
964.3197	0.002128
964.5615	0.000989
964.8033	0.000081
965.0451	0.002276
965.2869	-0.000383
965.5287	0.001326
965.7705	0.002023
966.0123	0.002107
966.2542	-0.000236
966.4960	0.001368
966.7379	0.000777
966.9797	0.001305
967.2216	-0.000362
967.4634	0.000862
967.7053	0.001263
967.9472	0.001664
968.1891	0.001010
968.4310	0.001664
968.6729	-0.000004
968.9148	0.001601
969.1567	0.000229
969.3987	0.001664
969.6406	0.000545
969.8825	0.001495
970.1245	0.001136
970.3664	0.001558
970.6084	0.000820
970.8504	-0.000151
971.0923	0.000039
971.3343	0.001812
971.5763	0.001854
971.8183	0.001284
972.0603	0.001875
972.3023	-0.000405
972.5443	0.001748
972.7864	0.001136
973.0284	0.001136
973.2704	0.001242
973.5125	-0.000405
973.7545	0.000651
973.9966	-0.000552
974.2387	0.001854
974.4807	0.000376
974.7228	0.000503
974.9649	0.000756
975.2070	-0.000067
975.4491	0.001495
975.6912	0.001812
975.9333	0.001094
976.1755	0.001960
976.4176	0.000355
976.6597	0.000144
976.9019	0.001411
977.1440	0.001748
977.3862	0.000799
977.6283	-0.000341
977.8705	0.000461
978.1127	0.001960
978.3549	0.000989
978.5971	0.000841
978.8393	0.000714
979.0815	0.001706
979.3237	0.001284
979.5659	0.001558
979.8082	0.001727
980.0504	0.002065
980.2926	0.000039
980.5349	0.000292
980.7771	0.000313
981.0194	0.000165
981.2617	0.000588
981.5040	0.000820
981.7462	0.000208
981.9885	-0.000489
982.2308	0.000967
982.4731	0.001368
982.7155	0.000735
982.9578	0.002213
983.2001	0.000672
983.4424	0.000398
983.6848	0.000165
983.9271	0.000524
984.1695	0.001685
984.4118	0.001981
984.6542	0.000777
984.8966	0.001073
985.1390	0.000018
985.3814	0.000609
985.6238	0.001326
985.8662	0.001221
986.1086	-0.000236
986.3510	0.002297
986.5934	0.000229
986.8358	0.000461
987.0783	0.001685
987.3207	0.002065
987.5632	0.000524
987.8056	0.002572
988.0481	0.000186
988.2906	0.001052
988.5331	0.000144
988.7756	0.000292
989.0180	0.000208
989.2605	0.001052
989.5031	0.000904
989.7456	0.000461
989.9881	0.000503
990.2306	0.000524
990.4732	-0.001080
990.7157	0.001221
990.9582	-0.000130
991.2008	0.000292
991.4434	0.000566
991.6859	0.001326
991.9285	0.000165
992.1711	0.001622
992.4137	-0.000236
992.6563	0.001010
992.8989	0.000334
993.1415	0.001200
993.3841	-0.000172
993.6267	0.000313
993.8694	0.000545
994.1120	0.000018
994.3547	0.000777
994.5973	0.001643
994.8400	0.000482
995.0826	0.001242
995.3253	0.000989
995.5680	0.002361
995.8107	0.000039
996.0534	0.000735
996.2961	-0.000573
996.5388	-0.000130
996.7815	0.001136
997.0242	0.001411
997.2670	0.000313
997.5097	0.001115
997.7524	0.000313
997.9952	0.002023
998.2379	0.001157
998.4807	0.001179
998.7235	0.000165
998.9662	0.001580
999.2090	0.000018
999.4518	0.001305
999.6946	-0.000236
999.9374	0.000081
1000.1802	0.001664
1000.4230	0.000081
1000.6659	-0.000679
1000.9087	0.000967
1001.1515	0.001453
1001.3944	0.001094
1001.6372	0.000503
1001.8801	-0.000278
1002.1230	0.000862
1002.3658	0.001580
1002.6087	0.000651
1002.8516	0.002234
1003.0945	0.002044
1003.3374	0.000334
1003.5803	0.002339
1003.8232	0.001516
1004.0661	0.000461
1004.3091	0.000672
1004.5520	-0.000257
1004.7949	-0.000785
1005.0379	0.000799
1005.2808	0.000060
1005.5238	0.000081
1005.7667	0.000524
1006.0097	0.001727
1006.2527	0.000651
1006.4957	0.001284
1006.7387	-0.000151
1006.9817	0.000102
1007.2247	0.000777
1007.4677	0.001010
1007.7107	0.000482
1007.9538	0.000841
1008.1968	0.000566
1008.4398	0.001094
1008.6829	0.000735
1008.9259	0.001031
1009.1690	0.000398
1009.4121	0.000609
1009.6551	0.000904
1009.8982	0.000989
1010.1413	-0.000447
1010.3844	0.000102
1010.6275	0.000925
1010.8706	0.000841
1011.1137	0.001368
1011.3568	-0.000046
1011.6000	-0.000595
1011.8431	0.001010
1012.0863	0.001179
1012.3294	0.000925
1012.5726	0.000925
1012.8157	0.000081
1013.0589	0.000883
1013.3021	0.000862
1013.5452	0.000630
1013.7884	-0.000046
1014.0316	0.001221
1014.2748	0.001664
1014.5180	0.001411
1014.7613	0.000799
1015.0045	-0.000974
1015.2477	0.000799
1015.4909	0.000693
1015.7342	0.000186
1015.9774	-0.000447
1016.2207	0.000714
1016.4640	0.001601
1016.7072	0.000735
1016.9505	0.000989
1017.1938	0.000524
1017.4371	0.000777
1017.6804	0.000841
1017.9237	0.000630
1018.1670	0.000545
1018.4103	0.000419
1018.6536	0.000651
1018.8969	0.000271
1019.1403	0.000904
1019.3836	0.000250
1019.6270	-0.000046
1019.8703	-0.000130
1020.1137	0.000398
1020.3571	0.000440
1020.6004	-0.000193
1020.8438	0.001833
1021.0872	0.000651
1021.3306	0.000799
1021.5740	0.002086
1021.8174	-0.000172
1022.0608	-0.000531
1022.3042	0.000208
1022.5477	0.000355
1022.7911	0.000271
1023.0345	-0.000785
