# Wavelength (nm)	Intensity (a.u.)
197.7802	0.000778
197.9842	0.000461
198.1882	0.001896
198.3922	0.000693
198.5963	0.000334
198.8003	-0.000193
199.0044	0.002171
199.2085	0.000440
199.4126	-0.000193
199.6168	0.001263
199.8209	0.000630
200.0251	0.000482
200.2292	0.001073
200.4334	-0.000827
200.6376	0.000018
200.8418	0.001242
201.0461	-0.000763
201.2503	0.000566
201.4546	-0.000468
201.6589	-0.000004
201.8631	0.000334
202.0674	0.000060
202.2718	0.002023
202.4761	0.001200
202.6805	0.000440
202.8848	0.000018
203.0892	0.000967
203.2936	0.000925
203.4980	0.001559
203.7024	-0.000721
203.9069	-0.000299
204.1113	-0.000046
204.3158	0.000925
204.5203	-0.000531
204.7248	0.001537
204.9293	0.000693
205.1338	0.000904
205.3384	0.000018
205.5430	0.000334
205.7475	0.000482
205.9521	-0.000088
206.1567	0.000355
206.3614	-0.000405
206.5660	0.000376
206.7706	0.001115
206.9753	0.000989
207.1800	0.000672
207.3847	0.000186
207.5894	0.000102
207.7941	0.001537
207.9989	0.001411
208.2036	0.001284
208.4084	0.000398
208.6132	0.000566
208.8180	0.000588
209.0228	0.000102
209.2276	0.000545
209.4325	-0.000658
209.6373	0.001643
209.8422	-0.000215
210.0471	0.000946
210.2520	0.000651
210.4569	0.001305
210.6618	0.000292
210.8668	0.000144
211.0718	0.000482
211.2767	0.000672
211.4817	0.000039
211.6867	0.001854
211.8918	-0.000278
212.0968	0.000841
212.3018	-0.000468
212.5069	0.001179
212.7120	-0.000215
212.9171	0.000271
213.1222	0.001136
213.3273	0.001179
213.5325	0.000862
213.7376	0.001031
213.9428	-0.001333
214.1480	0.000862
214.3532	0.000208
214.5584	0.001073
214.7636	0.000144
214.9689	-0.002178
215.1741	0.001010
215.3794	0.000609
215.5847	-0.000426
215.7900	0.001094
215.9953	0.000862
216.2007	0.000123
216.4060	0.000292
216.6114	0.001031
216.8168	0.000524
217.0222	0.000545
217.2276	0.000841
217.4330	0.000060
217.6384	0.002171
217.8439	0.001770
218.0494	-0.000552
218.2548	-0.001143
218.4603	-0.000067
218.6659	0.000841
218.8714	-0.000025
219.0769	0.001643
219.2825	-0.001333
219.4881	0.000440
219.6936	-0.001228
219.8992	0.001010
220.1049	-0.000151
220.3105	-0.000573
220.5161	-0.000679
220.7218	-0.000489
220.9275	0.000883
221.1332	0.000630
221.3389	0.000820
221.5446	0.000440
221.7503	0.000060
221.9561	0.000630
222.1618	-0.000004
222.3676	0.001516
222.5734	0.001094
222.7792	0.000545
222.9850	0.001664
223.1909	0.000609
223.3967	-0.000447
223.6026	0.000440
223.8085	-0.000806
224.0144	0.000735
224.2203	0.001284
224.4262	0.000693
224.6322	-0.000827
224.8381	0.001010
225.0441	-0.000468
225.2501	-0.000679
225.4561	0.001136
225.6621	-0.000447
225.8681	0.001010
226.0742	-0.001059
226.2802	-0.000320
226.4863	0.000419
226.6924	0.000229
226.8985	0.000630
227.1046	0.001157
227.3107	0.000862
227.5169	0.001010
227.7230	0.001875
227.9292	0.000039
228.1354	0.001875
228.3416	0.000355
228.5478	0.001622
228.7541	0.000440
228.9603	0.000376
229.1666	-0.000004
229.3729	0.000440
229.5791	-0.000405
229.7855	0.000229
229.9918	-0.000573
230.1981	0.000081
230.4045	0.000018
230.6108	0.001073
230.8172	0.000039
231.0236	0.000271
231.2300	-0.000383
231.4364	0.000461
231.6429	-0.000004
231.8493	0.000862
232.0558	-0.000405
232.2623	0.000630
232.4688	0.000355
232.6753	0.000588
232.8818	-0.000447
233.0884	0.001115
233.2949	0.000989
233.5015	-0.000721
233.7081	0.000714
233.9147	-0.000405
234.1213	0.000946
234.3279	0.002192
234.5346	0.001326
234.7413	0.000229
234.9479	-0.001629
235.1546	0.001115
235.3613	-0.000215
235.5680	0.001263
235.7748	0.000376
235.9815	0.000651
236.1883	0.000967
236.3951	0.000545
236.6018	0.001664
236.8087	0.000081
237.0155	0.000545
237.2223	0.001073
237.4292	0.000229
237.6360	0.002192
237.8429	0.001432
238.0498	0.001685
238.2567	0.001284
238.4636	0.001242
238.6706	0.000355
238.8775	0.000672
239.0845	0.001326
239.2915	-0.000721
239.4985	-0.000215
239.7055	0.000271
239.9125	0.001263
240.1195	0.000925
240.3266	-0.000785
240.5337	0.000841
240.7407	0.000229
240.9478	0.002002
241.1549	-0.000975
241.3621	0.000967
241.5692	0.000967
241.7764	0.000102
241.9835	0.000672
242.1907	0.001136
242.3979	0.000018
242.6051	-0.000236
242.8124	0.000271
243.0196	0.001453
243.2269	0.000208
243.4341	-0.000320
243.6414	0.000229
243.8487	-0.000046
244.0560	0.000398
244.2634	0.000376
244.4707	0.000144
244.6781	0.001052
244.8854	-0.000721
245.0928	0.000503
245.3002	0.000123
245.5076	-0.000257
245.7151	0.000482
245.9225	0.000756
246.1300	-0.001861
246.3375	0.000756
246.5449	-0.000172
246.7524	0.000123
246.9600	-0.000405
247.1675	0.000461
247.3750	0.000651
247.5826	0.000693
247.7902	0.001094
247.9978	0.001833
248.2054	0.000925
248.4130	0.001854
248.6206	0.000482
248.8283	0.000630
249.0359	0.001601
249.2436	0.000820
249.4513	0.000165
249.6590	-0.001354
249.8667	-0.000025
250.0745	0.000714
250.2822	0.000630
250.4900	-0.000193
250.6978	0.001115
250.9056	-0.000616
251.1134	-0.000489
251.3212	0.001601
251.5290	0.000313
251.7369	0.000566
251.9447	0.000102
252.1526	0.000630
252.3605	-0.000531
252.5684	0.001115
252.7763	0.000060
252.9843	-0.000172
253.1922	-0.000426
253.4002	0.001369
253.6082	0.000355
253.8162	0.001200
254.0242	0.001369
254.2322	0.001305
254.4402	-0.000257
254.6483	0.001390
254.8564	-0.000616
255.0644	0.000271
255.2725	0.001938
255.4806	-0.000004
255.6888	0.002255
255.8969	-0.001228
256.1051	-0.000046
256.3132	-0.000890
256.5214	0.001601
256.7296	0.002065
256.9378	0.000250
257.1460	0.001326
257.3543	-0.000109
257.5625	0.001073
257.7708	0.000630
257.9791	0.000102
258.1874	-0.000405
258.3957	0.000841
258.6040	0.000672
258.8124	0.002065
259.0207	0.000271
259.2291	-0.000573
259.4375	-0.000721
259.6459	0.001770
259.8543	-0.000763
260.0627	0.000186
260.2711	0.000229
260.4796	0.000967
260.6881	0.001643
260.8965	-0.000046
261.1050	0.000334
261.3135	-0.000362
261.5221	0.001390
261.7306	0.000862
261.9392	0.000883
262.1477	0.000503
262.3563	0.001770
262.5649	0.000208
262.7735	0.000039
262.9822	0.000989
263.1908	0.000123
263.3995	0.001664
263.6081	0.002276
263.8168	0.000292
264.0255	0.000904
264.2342	-0.000426
264.4429	-0.000109
264.6517	0.000271
264.8604	-0.000151
265.0692	-0.000320
265.2780	-0.000046
265.4868	-0.000721
265.6956	0.002065
265.9044	0.000820
266.1133	-0.000616
266.3221	0.000883
266.5310	0.000398
266.7399	0.000862
266.9488	-0.000975
267.1577	0.001284
267.3666	-0.000890
267.5755	0.000123
267.7845	-0.000341
267.9935	0.002720
268.2024	0.000799
268.4114	0.000609
268.6205	-0.000236
268.8295	0.001559
269.0385	0.000081
269.2476	0.001770
269.4566	0.000756
269.6657	0.000946
269.8748	-0.000067
270.0839	0.001242
270.2931	-0.000088
270.5022	0.000102
270.7114	-0.000088
270.9205	0.001453
271.1297	0.000271
271.3389	0.000778
271.5481	0.001073
271.7573	0.000039
271.9666	-0.001017
272.1758	-0.000151
272.3851	0.000799
272.5944	0.000355
272.8037	0.001453
273.0130	0.000799
273.2223	-0.000468
273.4316	0.000229
273.6410	0.000018
273.8504	0.000651
274.0597	0.001326
274.2691	0.000355
274.4785	0.000039
274.6880	0.002086
274.8974	0.000946
275.1069	-0.000130
275.3163	0.001580
275.5258	-0.000616
275.7353	0.000102
275.9448	0.000545
276.1543	0.000398
276.3639	0.001326
276.5734	0.000503
276.7830	0.000123
276.9926	0.000250
277.2022	-0.000785
277.4118	-0.000151
277.6214	0.000292
277.8310	-0.000911
278.0407	0.000334
278.2503	0.000081
278.4600	0.000799
278.6697	-0.000616
278.8794	0.000186
279.0891	0.000820
279.2989	-0.000426
279.5086	0.000376
279.7184	-0.000383
279.9281	0.000566
280.1379	0.000376
280.3477	0.001115
280.5576	-0.000637
280.7674	0.001010
280.9772	0.001179
281.1871	-0.000953
281.3970	-0.000468
281.6069	0.000799
281.8168	0.000524
282.0267	0.000102
282.2366	0.001073
282.4466	-0.000215
282.6565	0.002086
282.8665	0.000862
283.0765	0.000102
283.2865	0.000756
283.4965	0.000989
283.7065	0.000862
283.9166	-0.000341
284.1266	0.001052
284.3367	0.000967
284.5468	-0.000721
284.7569	0.001516
284.9670	-0.000067
285.1771	0.000419
285.3873	-0.000278
285.5974	0.001580
285.8076	0.001917
286.0178	0.000566
286.2280	0.000186
286.4382	0.000967
286.6484	0.000440
286.8587	0.001242
287.0689	-0.000067
287.2792	0.001010
287.4895	0.000841
287.6998	0.002065
287.9101	0.000419
288.1204	0.000925
288.3308	0.000693
288.5411	0.000672
288.7515	-0.000468
288.9619	0.002107
289.1723	-0.000299
289.3827	-0.000299
289.5931	0.000144
289.8035	0.000778
290.0140	0.000186
290.2245	0.000799
290.4349	0.000925
290.6454	0.000883
290.8559	0.000778
291.0665	0.001791
291.2770	0.001242
291.4875	0.001326
291.6981	0.001073
291.9087	0.000967
292.1193	-0.000405
292.3299	0.000313
292.5405	0.000461
292.7511	-0.000637
292.9618	0.001305
293.1724	0.000566
293.3831	0.000039
293.5938	0.000229
293.8045	0.000778
294.0152	0.000524
294.2260	0.000756
294.4367	-0.000299
294.6475	0.000081
294.8582	0.000609
295.0690	0.002023
295.2798	0.001559
295.4906	0.000102
295.7015	-0.001291
295.9123	0.000820
296.1232	0.000376
296.3340	0.001411
296.5449	0.000250
296.7558	-0.000215
296.9667	0.001749
297.1777	0.000186
297.3886	0.000989
297.5995	-0.001101
297.8105	-0.000236
298.0215	0.000039
298.2325	0.001622
298.4435	0.000186
298.6545	-0.000510
298.8656	-0.000215
299.0766	0.001580
299.2877	0.000778
299.4988	0.000588
299.7099	0.000778
299.9210	0.001326
300.1321	0.001052
300.3432	0.001347
300.5544	0.000419
300.7655	0.001010
300.9767	0.000946
301.1879	0.000883
301.3991	0.001453
301.6103	0.001537
301.8215	0.000904
302.0328	0.000376
302.2441	-0.001059
302.4553	0.000967
302.6666	0.000440
302.8779	0.000334
303.0892	0.001432
303.3006	0.000250
303.5119	0.000355
303.7233	-0.000489
303.9346	0.000186
304.1460	0.001242
304.3574	-0.000215
304.5688	0.000609
304.7803	0.001369
304.9917	0.001263
305.2031	0.001221
305.4146	0.001200
305.6261	-0.000447
305.8376	0.000946
306.0491	0.000334
306.2606	0.000989
306.4722	0.000144
306.6837	0.000609
306.8953	0.001242
307.1069	0.000714
307.3184	0.001115
307.5301	0.000609
307.7417	0.000735
307.9533	0.000060
308.1650	-0.000046
308.3766	0.000651
308.5883	-0.000130
308.8000	0.000376
309.0117	0.001200
309.2234	-0.000552
309.4351	0.001326
309.6469	-0.000299
309.8586	0.000651
310.0704	0.002171
310.2822	0.000229
310.4940	0.000081
310.7058	-0.000025
310.9176	0.001157
311.1295	-0.000595
311.3413	0.001179
311.5532	0.000461
311.7651	0.001115
311.9770	-0.000573
312.1889	-0.000236
312.4008	0.000735
312.6127	0.001326
312.8247	0.001052
313.0366	0.001284
313.2486	-0.001418
313.4606	0.000461
313.6726	0.000566
313.8846	0.000102
314.0967	0.000229
314.3087	-0.000172
314.5208	-0.000383
314.7328	0.000778
314.9449	0.001073
315.1570	0.000440
315.3692	0.000566
315.5813	0.000271
315.7934	0.001537
316.0056	0.001157
316.2177	0.000123
316.4299	0.001369
316.6421	0.000440
316.8543	0.000714
317.0666	-0.000447
317.2788	0.000102
317.4911	-0.000468
317.7033	0.000398
317.9156	0.000862
318.1279	0.001411
318.3402	0.001537
318.5525	-0.000172
318.7649	0.000925
318.9772	0.000398
319.1896	0.000841
319.4019	0.000735
319.6143	-0.000172
319.8267	0.000461
320.0392	-0.000257
320.2516	0.000102
320.4640	0.000545
320.6765	0.001052
320.8890	-0.000215
321.1014	0.000841
321.3139	0.001115
321.5265	0.000250
321.7390	0.000186
321.9515	0.002044
322.1641	-0.000172
322.3766	0.001727
322.5892	-0.000531
322.8018	0.001369
323.0144	0.000102
323.2270	0.001474
323.4397	-0.001164
323.6523	0.001073
323.8650	0.000165
324.0777	0.001622
324.2904	-0.000025
324.5031	0.000102
324.7158	0.000440
324.9285	0.001664
325.1412	0.000208
325.3540	0.001031
325.5668	0.000778
325.7796	-0.000468
325.9924	-0.000004
326.2052	0.000355
326.4180	-0.000742
326.6308	-0.000489
326.8437	-0.000067
327.0566	0.000313
327.2694	0.000967
327.4823	-0.000046
327.6952	-0.000362
327.9082	0.001622
328.1211	0.001115
328.3340	0.000862
328.5470	0.000609
328.7600	0.000313
328.9730	-0.000573
329.1860	0.000672
329.3990	0.001537
329.6120	0.000018
329.8251	-0.000109
330.0381	0.000693
330.2512	0.000355
330.4643	-0.000109
330.6774	0.000440
330.8905	0.000904
331.1036	0.000545
331.3167	-0.000341
331.5299	0.000925
331.7431	0.000693
331.9562	0.000693
332.1694	0.000946
332.3826	0.001749
332.5959	-0.000130
332.8091	0.001073
333.0223	0.000440
333.2356	0.001516
333.4489	-0.000447
333.6622	-0.000004
333.8755	0.000482
334.0888	-0.000573
334.3021	-0.000046
334.5154	0.001643
334.7288	0.000630
334.9422	0.000398
335.1555	-0.000193
335.3689	0.000461
335.5823	-0.001460
335.7958	0.000545
336.0092	0.000123
336.2227	0.001495
336.4361	0.000904
336.6496	-0.000088
336.8631	0.001094
337.0766	-0.000067
337.2901	0.001601
337.5036	0.001179
337.7172	-0.000616
337.9307	-0.000257
338.1443	0.001453
338.3579	0.000566
338.5715	0.001094
338.7851	-0.000827
338.9987	-0.000362
339.2124	0.000820
339.4260	0.001411
339.6397	0.000398
339.8533	0.002044
340.0670	0.000186
340.2807	0.000651
340.4945	-0.000215
340.7082	0.001369
340.9219	0.000883
341.1357	0.001073
341.3495	0.000883
341.5633	0.001179
341.7771	-0.000151
341.9909	0.000693
342.2047	0.000904
342.4185	0.000165
342.6324	0.000376
342.8463	0.000186
343.0601	0.001537
343.2740	0.000313
343.4879	0.000925
343.7019	0.000778
343.9158	-0.001819
344.1297	0.001242
344.3437	0.001749
344.5577	0.001242
344.7717	0.000503
344.9857	0.000440
345.1997	0.001242
345.4137	0.000250
345.6277	0.001031
345.8418	0.001200
346.0559	0.000018
346.2699	0.000334
346.4840	0.000440
346.6981	0.000946
346.9123	0.002192
347.1264	0.000250
347.3406	-0.000004
347.5547	0.000566
347.7689	-0.000109
347.9831	0.000799
348.1973	0.001812
348.4115	0.001516
348.6257	0.002044
348.8400	0.000355
349.0542	0.000651
349.2685	0.000693
349.4828	-0.000025
349.6971	0.000588
349.9114	0.000651
350.1257	0.001875
350.3400	-0.000236
350.5544	0.001347
350.7687	0.000292
350.9831	0.000841
351.1975	0.000609
351.4119	0.001854
351.6263	-0.000341
351.8407	-0.000616
352.0552	-0.001734
352.2696	0.001854
352.4841	-0.000806
352.6986	0.000989
352.9131	0.000967
353.1276	-0.000700
353.3421	0.000102
353.5566	0.000904
353.7712	-0.000806
353.9858	0.001263
354.2003	-0.000426
354.4149	0.001580
354.6295	-0.000151
354.8441	-0.000806
355.0588	-0.000573
355.2734	-0.000299
355.4881	0.000820
355.7027	0.000735
355.9174	-0.000299
356.1321	0.002783
356.3468	-0.000721
356.5615	0.000651
356.7763	0.001854
356.9910	0.000862
357.2058	0.000144
357.4206	-0.000658
357.6353	0.000883
357.8501	0.000799
358.0650	0.000102
358.2798	0.001474
358.4946	0.001221
358.7095	0.001031
358.9243	-0.000679
359.1392	0.000735
359.3541	-0.000088
359.5690	0.001031
359.7839	-0.000172
359.9989	0.001073
360.2138	-0.000700
360.4288	0.000651
360.6438	0.001896
360.8587	0.000250
361.0737	0.000545
361.2888	0.000714
361.5038	0.000862
361.7188	-0.000341
361.9339	0.000334
362.1489	0.000250
362.3640	0.000820
362.5791	0.001474
362.7942	0.002128
363.0093	-0.000426
363.2245	0.000524
363.4396	0.001833
363.6548	0.000334
363.8699	0.002403
364.0851	-0.000975
364.3003	0.002171
364.5155	0.001136
364.7308	0.001242
364.9460	0.000503
365.1612	0.002086
365.3765	-0.000595
365.5918	-0.000025
365.8071	0.000039
366.0224	0.001094
366.2377	0.000925
366.4530	0.000376
366.6684	0.000250
366.8837	0.000799
367.0991	-0.000405
367.3145	0.001263
367.5299	0.000039
367.7453	0.001326
367.9607	-0.000383
368.1761	0.000778
368.3916	0.001157
368.6070	0.000672
368.8225	0.000355
369.0380	-0.000257
369.2535	-0.000236
369.4690	0.000271
369.6845	0.000018
369.9001	0.000967
370.1156	-0.000109
370.3312	0.000334
370.5468	0.000925
370.7624	0.001284
370.9780	0.000609
371.1936	0.001136
371.4092	0.001390
371.6249	0.001622
371.8405	0.000925
372.0562	0.001052
372.2719	0.000756
372.4876	0.000904
372.7033	-0.000046
372.9190	0.000334
373.1348	0.001115
373.3505	-0.000383
373.5663	0.000398
373.7820	0.000967
373.9978	0.001326
374.2136	0.000081
374.4294	0.001537
374.6453	0.001495
374.8611	0.000651
375.0770	0.002065
375.2928	-0.000130
375.5087	0.001263
375.7246	0.001896
375.9405	0.000630
376.1564	0.000060
376.3724	0.001179
376.5883	0.001200
376.8043	0.000292
377.0203	-0.000088
377.2362	0.000081
377.4522	0.001031
377.6682	0.001960
377.8843	0.000735
378.1003	0.000778
378.3164	0.001580
378.5324	0.000123
378.7485	0.000989
378.9646	0.000630
379.1807	0.000271
379.3968	0.000123
379.6129	0.000334
379.8291	-0.000573
380.0452	0.000060
380.2614	0.000566
380.4776	0.001179
380.6938	0.001390
380.9100	-0.000700
381.1262	0.000588
381.3424	0.000609
381.5587	-0.000046
381.7749	0.000609
381.9912	0.000756
382.2075	0.000123
382.4238	0.000967
382.6401	0.000946
382.8564	0.001031
383.0728	0.001727
383.2891	0.001031
383.5055	0.001791
383.7219	0.000714
383.9382	0.000018
384.1546	0.000714
384.3711	-0.000405
384.5875	0.000334
384.8039	0.001516
385.0204	0.001242
385.2368	0.000799
385.4533	-0.000341
385.6698	0.000039
385.8863	0.000461
386.1028	0.000651
386.3194	0.001685
386.5359	0.001643
386.7525	0.002656
386.9690	0.000883
387.1856	0.000398
387.4022	0.000229
387.6188	0.002150
387.8355	-0.000911
388.0521	0.000630
388.2687	-0.000320
388.4854	0.002128
388.7021	0.000144
388.9188	0.000419
389.1355	0.001157
389.3522	0.000334
389.5689	0.000398
389.7856	0.000778
390.0024	0.001263
390.2192	0.001727
390.4359	-0.000341
390.6527	-0.000088
390.8695	0.000735
391.0863	0.001200
391.3032	0.001537
391.5200	0.001727
391.7369	-0.000278
391.9537	0.001938
392.1706	0.001622
392.3875	0.001960
392.6044	0.002213
392.8213	0.001685
393.0383	0.002403
393.2552	0.002065
393.4722	0.001453
393.6891	0.002318
393.9061	0.002382
394.1231	0.002635
394.3401	0.001960
394.5572	0.002677
394.7742	0.001411
394.9912	0.002466
395.2083	0.003036
395.4254	0.003479
395.6425	0.002572
395.8596	0.002720
396.0767	0.003522
396.2938	0.003543
396.5109	0.003564
396.7281	0.003817
396.9453	0.003205
397.1624	0.003395
397.3796	0.003564
397.5968	0.004556
397.8140	0.002846
398.0313	0.005020
398.2485	0.004788
398.4658	0.004493
398.6830	0.004282
398.9003	0.004366
399.1176	0.004007
399.3349	0.005253
399.5522	0.003775
399.7696	0.005928
399.9869	0.005126
400.2043	0.006139
400.4216	0.004450
400.6390	0.005210
400.8564	0.005569
401.0738	0.005611
401.2912	0.004514
401.5087	0.006667
401.7261	0.004851
401.9436	0.006646
402.1610	0.005590
402.3785	0.006878
402.5960	0.004978
402.8135	0.006477
403.0310	0.005569
403.2486	0.005822
403.4661	0.006392
403.6837	0.006456
403.9013	0.005400
404.1189	0.007532
404.3365	0.006667
404.5541	0.007068
404.7717	0.007173
404.9893	0.007933
405.2070	0.008841
405.4246	0.007490
405.6423	0.008757
405.8600	0.008799
406.0777	0.007490
406.2954	0.006878
406.5131	0.006899
406.7309	0.008377
406.9486	0.008904
407.1664	0.009559
407.3842	0.008356
407.6020	0.008377
407.8198	0.008904
408.0376	0.007026
408.2554	0.009263
408.4733	0.008735
408.6911	0.009981
408.9090	0.008672
409.1269	0.010825
409.3448	0.009960
409.5627	0.007279
409.7806	0.009812
409.9985	0.010741
410.2165	0.009643
410.4344	0.010065
410.6524	0.008989
410.8704	0.010023
411.0884	0.009728
411.3064	0.010551
411.5244	0.010234
411.7424	0.010804
411.9605	0.010530
412.1785	0.010150
412.3966	0.012894
412.6147	0.012746
412.8328	0.011353
413.0509	0.010551
413.2690	0.011733
413.4871	0.010931
413.7053	0.011965
413.9234	0.011437
414.1416	0.012324
414.3598	0.012092
414.5780	0.012155
414.7962	0.011712
415.0144	0.012134
415.2326	0.011247
415.4509	0.011670
415.6692	0.011691
415.8874	0.013337
416.1057	0.013949
416.3240	0.013274
416.5423	0.012514
416.7606	0.012408
416.9790	0.013675
417.1973	0.014034
417.4157	0.013126
417.6341	0.013569
417.8524	0.014730
418.0708	0.013802
418.2893	0.012387
418.5077	0.013675
418.7261	0.013527
418.9446	0.015237
419.1630	0.015575
419.3815	0.017770
419.6000	0.015849
419.8185	0.015511
420.0370	0.014414
420.2555	0.015005
420.4741	0.015131
420.6926	0.015554
420.9112	0.018488
421.1298	0.016883
421.3483	0.020050
421.5669	0.017749
421.7856	0.017285
422.0042	0.016039
422.2228	0.018256
422.4415	0.017664
422.6601	0.019184
422.8788	0.018678
423.0975	0.019163
423.3162	0.019248
423.5349	0.018952
423.7536	0.018530
423.9724	0.019986
424.1911	0.017390
424.4099	0.018192
424.6287	0.017686
424.8475	0.019965
425.0663	0.019438
425.2851	0.019501
425.5039	0.019628
425.7228	0.018023
425.9416	0.017263
426.1605	0.018994
426.3793	0.018129
426.5982	0.018129
426.8171	0.018614
427.0361	0.017390
427.2550	0.018551
427.4739	0.020050
427.6929	0.021105
427.9118	0.018424
428.1308	0.019269
428.3498	0.020704
428.5688	0.018509
428.7878	0.018762
429.0068	0.018530
429.2259	0.021274
429.4449	0.020261
429.6640	0.021506
429.8831	0.021401
430.1022	0.024314
430.3213	0.021675
430.5404	0.022456
430.7595	0.024546
430.9787	0.022752
431.1978	0.022815
431.4170	0.022794
431.6362	0.021169
431.8553	0.020303
432.0745	0.021211
432.2938	0.018889
432.5130	0.019374
432.7322	0.019522
432.9515	0.018403
433.1707	0.019438
433.3900	0.021126
433.6093	0.021401
433.8286	0.023955
434.0479	0.022667
434.2673	0.020873
434.4866	0.020746
434.7059	0.020092
434.9253	0.020725
435.1447	0.021802
435.3641	0.020873
435.5835	0.021295
435.8029	0.020979
436.0223	0.021358
436.2418	0.022266
436.4612	0.021190
436.6807	0.020683
436.9001	0.021633
437.1196	0.022414
437.3391	0.022836
437.5586	0.021633
437.7782	0.020577
437.9977	0.021971
438.2173	0.021042
438.4368	0.021696
438.6564	0.021274
438.8760	0.022857
439.0956	0.021633
439.3152	0.023723
439.5348	0.022224
439.7545	0.022351
439.9741	0.023533
440.1938	0.022541
440.4135	0.020493
440.6331	0.021823
440.8528	0.022372
441.0725	0.023216
441.2923	0.025264
441.5120	0.028493
441.7318	0.025960
441.9515	0.025981
442.1713	0.026002
442.3911	0.024715
442.6109	0.026108
442.8307	0.023892
443.0505	0.024229
443.2703	0.024863
443.4902	0.025770
443.7101	0.027353
443.9299	0.026382
444.1498	0.024166
444.3697	0.024968
444.5896	0.025242
444.8095	0.026235
445.0295	0.024082
445.2494	0.024060
445.4694	0.025348
445.6894	0.022393
445.9093	0.023596
446.1293	0.022182
446.3493	0.023596
446.5694	0.022224
446.7894	0.024018
447.0094	0.023892
447.2295	0.024820
447.4496	0.022498
447.6696	0.022963
447.8897	0.022519
448.1098	0.024778
448.3300	0.022140
448.5501	0.022773
448.7702	0.020113
448.9904	0.022688
449.2106	0.022773
449.4307	0.023934
449.6509	0.021232
449.8711	0.022773
450.0914	0.021886
450.3116	0.021105
450.5318	0.020050
450.7521	0.021548
450.9724	0.022667
451.1926	0.020366
451.4129	0.019142
451.6332	0.019628
451.8535	0.020767
452.0739	0.020789
452.2942	0.021211
452.5146	0.021738
452.7349	0.019501
452.9553	0.020831
453.1757	0.020134
453.3961	0.019606
453.6165	0.019269
453.8369	0.017981
454.0574	0.018783
454.2778	0.017791
454.4983	0.017770
454.7188	0.018551
454.9393	0.017538
455.1597	0.018382
455.3803	0.018424
455.6008	0.017517
455.8213	0.019522
456.0419	0.017306
456.2624	0.016546
456.4830	0.017854
456.7036	0.017876
456.9242	0.018087
457.1448	0.016145
457.3654	0.017833
457.5860	0.018108
457.8067	0.018424
458.0274	0.016862
458.2480	0.019501
458.4687	0.017517
458.6894	0.019818
458.9101	0.017876
459.1308	0.017728
459.3516	0.017664
459.5723	0.017601
459.7931	0.017918
460.0138	0.018445
460.2346	0.015469
460.4554	0.015364
460.6762	0.016440
460.8970	0.015659
461.1178	0.017981
461.3387	0.016461
461.5595	0.016440
461.7804	0.014773
462.0013	0.016166
462.2222	0.012662
462.4431	0.013063
462.6640	0.013401
462.8849	0.013907
463.1059	0.012957
463.3268	0.014372
463.5478	0.013759
463.7687	0.015195
463.9897	0.014667
464.2107	0.014688
464.4317	0.015828
464.6528	0.015427
464.8738	0.014646
465.0948	0.014815
465.3159	0.013612
465.5370	0.016778
465.7581	0.015807
465.9792	0.017496
466.2003	0.014920
466.4214	0.014625
466.6425	0.013865
466.8637	0.012641
467.0848	0.011860
467.3060	0.012387
467.5272	0.011923
467.7484	0.011311
467.9696	0.011627
468.1908	0.011944
468.4120	0.011290
468.6333	0.012999
468.8545	0.010614
469.0758	0.012092
469.2970	0.009305
469.5183	0.010129
469.7396	0.010825
469.9610	0.009622
470.1823	0.008672
470.4036	0.010466
470.6250	0.009305
470.8463	0.008250
471.0677	0.010234
471.2891	0.008398
471.5105	0.009643
471.7319	0.009242
471.9533	0.008461
472.1748	0.009685
472.3962	0.008271
472.6177	0.008398
472.8391	0.008757
473.0606	0.009770
473.2821	0.009200
473.5036	0.009601
473.7251	0.008735
473.9467	0.010171
474.1682	0.010656
474.3898	0.009728
474.6113	0.008820
474.8329	0.009770
475.0545	0.009517
475.2761	0.007891
475.4977	0.010086
475.7193	0.009580
475.9410	0.008313
476.1626	0.008313
476.3843	0.007511
476.6060	0.009327
476.8277	0.009474
477.0494	0.006815
477.2711	0.006371
477.4928	0.008356
477.7145	0.006287
477.9363	0.007701
478.1580	0.007131
478.3798	0.007596
478.6016	0.007743
478.8234	0.006118
479.0452	0.007617
479.2670	0.006899
479.4888	0.007891
479.7107	0.005949
479.9325	0.008229
480.1544	0.007997
480.3763	0.006329
480.5982	0.007089
480.8201	0.007786
481.0420	0.007068
481.2639	0.006076
481.4859	0.007089
481.7078	0.006266
481.9298	0.006202
482.1517	0.007047
482.3737	0.006857
482.5957	0.006034
482.8177	0.006392
483.0398	0.006012
483.2618	0.006076
483.4838	0.006920
483.7059	0.005421
483.9280	0.006857
484.1501	0.006139
484.3721	0.006582
484.5943	0.006878
484.8164	0.005210
485.0385	0.006646
485.2606	0.008123
485.4828	0.008567
485.7050	0.014118
485.9271	0.020451
486.1493	0.019079
486.3715	0.015659
486.5937	0.013759
486.8160	0.011121
487.0382	0.010445
487.2605	0.010720
487.4827	0.009263
487.7050	0.007617
487.9273	0.006266
488.1496	0.005126
488.3719	0.004134
488.5942	0.005274
488.8165	0.004725
489.0389	0.004429
489.2612	0.004514
489.4836	0.005590
489.7060	0.004662
489.9284	0.005907
490.1508	0.005337
490.3732	0.005675
490.5956	0.005337
490.8180	0.004894
491.0405	0.004387
491.2630	0.004767
491.4854	0.005696
491.7079	0.004028
491.9304	0.003522
492.1529	0.002762
492.3755	0.003247
492.5980	0.004577
492.8205	0.004260
493.0431	0.004429
493.2657	0.003817
493.4882	0.004577
493.7108	0.004387
493.9334	0.004999
494.1561	0.002551
494.3787	0.004387
494.6013	0.002973
494.8240	0.004155
495.0466	0.004070
495.2693	0.003838
495.4920	0.003205
495.7147	0.003944
495.9374	0.003522
496.1601	0.003944
496.3829	0.004999
496.6056	0.002973
496.8284	0.003184
497.0511	0.003268
497.2739	0.003479
497.4967	0.004788
497.7195	0.003796
497.9423	0.004176
498.1652	0.003416
498.3880	0.004049
498.6109	0.004936
498.8337	0.005041
499.0566	0.002424
499.2795	0.005358
499.5024	0.004028
499.7253	0.004429
499.9482	0.003184
500.1712	0.003754
500.3941	0.003015
500.6171	0.004662
500.8400	0.005063
501.0630	0.003648
501.2860	0.002804
501.5090	0.004746
501.7320	0.002888
501.9551	0.003247
502.1781	0.003163
502.4012	0.004493
502.6242	0.003353
502.8473	0.003965
503.0704	0.004028
503.2935	0.003648
503.5166	0.003754
503.7397	0.002888
503.9628	0.004450
504.1860	0.003585
504.4092	0.002530
504.6323	0.005168
504.8555	0.002762
505.0787	0.003775
505.3019	0.004324
505.5251	0.004830
505.7483	0.003543
505.9716	0.001960
506.1948	0.002931
506.4181	0.004662
506.6414	0.001727
506.8647	0.004662
507.0880	0.004303
507.3113	0.002128
507.5346	0.003163
507.7579	0.003923
507.9813	0.003099
508.2046	0.003015
508.4280	0.002213
508.6514	0.004640
508.8748	0.003121
509.0982	0.003099
509.3216	0.003585
509.5450	0.003057
509.7685	0.003627
509.9919	0.003057
510.2154	0.002973
510.4388	0.004134
510.6623	0.003353
510.8858	0.002909
511.1093	0.002593
511.3329	0.003838
511.5564	0.003859
511.7799	0.002931
512.0035	0.003965
512.2270	0.002128
512.4506	0.002466
512.6742	0.003247
512.8978	0.002445
513.1214	0.002783
513.3451	0.003986
513.5687	0.004493
513.7923	0.002530
514.0160	0.002340
514.2397	0.003775
514.4634	0.004662
514.6871	0.002677
514.9108	0.004092
515.1345	0.004809
515.3582	0.003395
515.5819	0.003501
515.8057	0.003986
516.0295	0.002572
516.2532	0.002656
516.4770	0.003754
516.7008	0.003902
516.9246	0.004134
517.1485	0.003564
517.3723	0.003479
517.5961	0.001706
517.8200	0.003944
518.0439	0.003332
518.2677	0.003247
518.4916	0.004366
518.7155	0.003268
518.9395	0.003332
519.1634	0.003289
519.3873	0.004535
519.6113	0.004070
519.8352	0.003859
520.0592	0.003501
520.2832	0.002677
520.5072	0.004324
520.7312	0.003585
520.9552	0.003437
521.1792	0.004282
521.4033	0.003395
521.6273	0.004830
521.8514	0.003564
522.0755	0.001664
522.2996	0.002741
522.5237	0.002318
522.7478	0.003479
522.9719	0.002762
523.1960	0.003796
523.4202	0.002150
523.6443	0.003859
523.8685	0.003522
524.0927	0.004155
524.3169	0.002424
524.5411	0.003859
524.7653	0.002973
524.9895	0.003880
525.2138	0.004176
525.4380	0.004873
525.6623	0.002593
525.8865	0.003754
526.1108	0.004345
526.3351	0.004873
526.5594	0.003564
526.7837	0.002994
527.0081	0.003332
527.2324	0.004176
527.4568	0.003374
527.6811	0.005822
527.9055	0.003880
528.1299	0.004936
528.3543	0.003606
528.5787	0.003501
528.8031	0.004155
529.0276	0.005253
529.2520	0.004408
529.4765	0.005548
529.7009	0.005548
529.9254	0.005147
530.1499	0.003859
530.3744	0.006709
530.5989	0.005443
530.8234	0.004450
531.0480	0.004282
531.2725	0.005928
531.4971	0.005844
531.7217	0.007385
531.9462	0.005379
532.1708	0.007300
532.3954	0.005295
532.6200	0.005801
532.8447	0.005316
533.0693	0.007068
533.2940	0.005253
533.5186	0.005801
533.7433	0.006181
533.9680	0.006878
534.1927	0.006540
534.4174	0.007152
534.6421	0.006899
534.8668	0.009538
535.0916	0.008271
535.3163	0.008166
535.5411	0.007089
535.7659	0.008588
535.9907	0.007722
536.2155	0.008229
536.4403	0.007195
536.6651	0.006983
536.8899	0.007237
537.1148	0.008229
537.3396	0.008166
537.5645	0.008609
537.7894	0.007912
538.0143	0.008482
538.2392	0.008377
538.4641	0.009664
538.6890	0.008651
538.9139	0.009791
539.1389	0.009896
539.3638	0.009685
539.5888	0.011902
539.8138	0.010593
540.0388	0.010319
540.2638	0.010023
540.4888	0.012092
540.7138	0.010488
540.9389	0.010466
541.1639	0.012746
541.3890	0.012809
541.6140	0.012387
541.8391	0.010403
542.0642	0.011965
542.2893	0.011817
542.5144	0.010298
542.7396	0.012746
542.9647	0.012366
543.1899	0.012577
543.4150	0.015047
543.6402	0.013021
543.8654	0.013021
544.0906	0.016039
544.3158	0.015068
544.5410	0.014414
544.7662	0.012915
544.9915	0.014055
545.2167	0.016018
545.4420	0.013992
545.6673	0.016314
545.8926	0.014076
546.1179	0.013865
546.3432	0.014245
546.5685	0.014751
546.7938	0.014139
547.0192	0.014203
547.2445	0.013844
547.4699	0.016567
547.6953	0.014963
547.9206	0.017052
548.1460	0.018868
548.3715	0.019311
548.5969	0.017686
548.8223	0.019037
549.0478	0.017369
549.2732	0.018129
549.4987	0.016947
549.7242	0.018382
549.9496	0.017158
550.1751	0.019902
550.4007	0.015912
550.6262	0.019248
550.8517	0.016905
551.0773	0.018066
551.3028	0.015891
551.5284	0.017918
551.7540	0.019543
551.9796	0.020324
552.2052	0.021633
552.4308	0.021950
552.6564	0.022266
552.8820	0.020789
553.1077	0.020979
553.3333	0.019438
553.5590	0.022583
553.7847	0.024082
554.0104	0.023448
554.2361	0.022498
554.4618	0.020979
554.6875	0.020134
554.9132	0.020514
555.1390	0.022857
555.3648	0.024293
555.5905	0.024504
555.8163	0.025918
556.0421	0.024546
556.2679	0.026910
556.4937	0.026024
556.7195	0.025285
556.9454	0.024567
557.1712	0.023702
557.3971	0.025369
557.6230	0.024694
557.8488	0.024694
558.0747	0.025855
558.3006	0.023828
558.5266	0.024250
558.7525	0.022984
558.9784	0.025791
559.2044	0.023469
559.4303	0.024208
559.6563	0.025264
559.8823	0.026150
560.1083	0.026150
560.3343	0.029274
560.5603	0.031364
560.7863	0.031934
561.0124	0.031237
561.2384	0.031026
561.4645	0.033390
561.6905	0.033496
561.9166	0.031997
562.1427	0.033939
562.3688	0.032715
562.5949	0.031132
562.8211	0.032588
563.0472	0.032061
563.2733	0.033665
563.4995	0.033327
563.7257	0.033032
563.9519	0.032715
564.1781	0.037739
564.4043	0.036768
564.6305	0.038562
564.8567	0.035628
565.0829	0.039807
565.3092	0.039216
565.5355	0.039744
565.7617	0.040546
565.9880	0.037633
566.2143	0.039892
566.4406	0.041074
566.6669	0.042953
566.8932	0.042256
567.1196	0.044810
567.3459	0.048758
567.5723	0.052219
567.7987	0.050932
568.0250	0.056293
568.2514	0.055470
568.4778	0.057307
568.7043	0.063808
568.9307	0.064294
569.1571	0.067544
569.3836	0.072885
569.6100	0.082004
569.8365	0.090194
570.0630	0.100622
570.2895	0.096548
570.5160	0.104886
570.7425	0.103345
570.9690	0.106532
571.1956	0.113245
571.4221	0.120105
571.6487	0.122300
571.8752	0.127092
572.1018	0.130870
572.3284	0.134184
572.5550	0.125192
572.7816	0.113055
573.0082	0.114786
573.2349	0.119134
573.4615	0.132285
573.6882	0.140939
573.9149	0.144464
574.1415	0.151029
574.3682	0.159262
574.5949	0.165299
574.8216	0.164982
575.0484	0.166227
575.2751	0.172201
575.5018	0.166016
575.7286	0.161119
575.9554	0.155610
576.1821	0.155314
576.4089	0.158882
576.6357	0.167452
576.8626	0.171125
577.0894	0.175114
577.3162	0.179167
577.5431	0.186027
577.7699	0.208656
577.9968	0.241227
578.2237	0.234155
578.4505	0.221490
578.6774	0.202619
578.9044	0.196856
579.1313	0.186661
579.3582	0.184761
579.5851	0.195547
579.8121	0.202471
580.0391	0.202176
580.2660	0.201331
580.4930	0.199199
580.7200	0.194598
580.9470	0.197342
581.1741	0.229638
581.4011	0.278441
581.6281	0.310864
581.8552	0.313376
582.0822	0.306220
582.3093	0.291487
582.5364	0.277386
582.7635	0.256573
582.9906	0.232298
583.2177	0.214144
583.4449	0.200909
583.6720	0.188476
583.8991	0.188328
584.1263	0.188138
584.3535	0.189173
584.5807	0.193922
584.8079	0.206841
585.0351	0.216192
585.2623	0.228097
585.4895	0.228076
585.7167	0.226809
585.9440	0.222398
586.1713	0.210535
586.3985	0.200023
586.6258	0.192613
586.8531	0.195822
587.0804	0.204286
587.3077	0.214967
587.5350	0.223559
587.7624	0.225100
587.9897	0.215812
588.2171	0.202218
588.4445	0.194344
588.6718	0.192656
588.8992	0.184402
589.1266	0.171420
589.3540	0.162576
589.5815	0.157488
589.8089	0.162238
590.0363	0.157953
590.2638	0.151283
590.4913	0.147166
590.7187	0.142839
590.9462	0.133762
591.1737	0.128021
591.4012	0.126670
591.6288	0.127746
591.8563	0.128401
592.0838	0.129942
592.3114	0.130153
592.5389	0.150797
592.7665	0.175156
592.9941	0.192022
593.2217	0.199368
593.4493	0.198524
593.6769	0.190988
593.9046	0.186175
594.1322	0.177436
594.3598	0.164877
594.5875	0.167515
594.8152	0.177668
595.0429	0.192402
595.2705	0.196265
595.4983	0.191473
595.7260	0.179378
595.9537	0.170365
596.1814	0.160845
596.4092	0.149615
596.6369	0.140454
596.8647	0.140686
597.0925	0.140010
597.3203	0.147652
597.5481	0.147124
597.7759	0.145140
598.0037	0.140137
598.2315	0.133699
598.4594	0.140665
598.6872	0.148581
598.9151	0.169267
599.1430	0.179463
599.3709	0.178365
599.5988	0.170829
599.8267	0.174692
600.0546	0.176444
600.2825	0.178956
600.5105	0.178935
600.7384	0.175937
600.9664	0.181574
601.1944	0.186217
601.4223	0.183516
601.6503	0.175346
601.8783	0.168718
602.1064	0.164644
602.3344	0.162850
602.5624	0.164412
602.7905	0.167198
603.0185	0.170069
603.2466	0.177858
603.4747	0.186091
603.7028	0.185626
603.9309	0.181806
604.1590	0.170681
604.3871	0.165193
604.6152	0.159747
604.8434	0.156750
605.0715	0.153879
605.2997	0.152507
605.5279	0.161626
605.7561	0.167241
605.9843	0.171104
606.2125	0.169710
606.4407	0.160887
606.6689	0.157657
606.8972	0.153478
607.1254	0.155821
607.3537	0.156834
607.5819	0.158628
607.8102	0.156750
608.0385	0.153731
608.2668	0.150079
608.4951	0.143620
608.7235	0.143747
608.9518	0.138237
609.1801	0.137921
609.4085	0.135451
609.6369	0.129709
609.8653	0.137879
610.0936	0.146871
610.3220	0.150734
610.5505	0.146048
610.7789	0.140770
611.0073	0.137119
611.2357	0.136570
611.4642	0.134881
611.6927	0.135219
611.9211	0.134691
612.1496	0.129308
612.3781	0.128190
612.6066	0.127134
612.8351	0.127936
613.0637	0.129435
613.2922	0.128950
613.5208	0.123314
613.7493	0.127577
613.9779	0.130089
614.2065	0.124664
614.4351	0.125762
614.6637	0.124918
614.8923	0.125593
615.1209	0.126290
615.3495	0.128063
615.5782	0.129034
615.8068	0.129667
616.0355	0.125002
616.2642	0.119957
616.4929	0.113308
616.7216	0.113245
616.9503	0.109192
617.1790	0.108685
617.4077	0.111873
617.6365	0.110923
617.8652	0.110458
618.0940	0.111176
618.3227	0.110332
618.5515	0.102796
618.7803	0.098384
619.0091	0.091123
619.2379	0.089160
619.4667	0.089117
619.6956	0.087619
619.9244	0.092854
620.1533	0.096294
620.3821	0.096801
620.6110	0.094500
620.8399	0.088189
621.0688	0.078056
621.2977	0.074679
621.5266	0.073645
621.7556	0.079027
621.9845	0.080801
622.2135	0.080779
622.4424	0.080442
622.6714	0.082869
622.9004	0.084769
623.1294	0.089054
623.3584	0.087429
623.5874	0.086352
623.8164	0.087682
624.0454	0.089413
624.2745	0.085571
624.5035	0.090236
624.7326	0.088252
624.9617	0.087408
625.1908	0.084009
625.4199	0.082996
625.6490	0.080210
625.8781	0.079386
626.1072	0.078816
626.3364	0.076705
626.5655	0.072674
626.7947	0.072040
627.0238	0.068621
627.2530	0.070162
627.4822	0.068874
627.7114	0.070204
627.9406	0.067249
628.1698	0.065539
628.3991	0.062436
628.6283	0.058256
628.8576	0.058130
629.0868	0.058890
629.3161	0.060832
629.5454	0.063808
629.7747	0.060515
630.0040	0.061402
630.2333	0.061275
630.4626	0.059227
630.6920	0.056758
630.9213	0.056948
631.1507	0.052705
631.3801	0.053064
631.6094	0.050742
631.8388	0.050763
632.0682	0.052304
632.2976	0.051037
632.5271	0.050151
632.7565	0.048800
632.9859	0.044684
633.2154	0.045275
633.4448	0.044430
633.6743	0.044895
633.9038	0.043607
634.1333	0.044979
634.3628	0.041391
634.5923	0.042362
634.8218	0.037781
635.0514	0.041855
635.2809	0.039997
635.5105	0.041792
635.7400	0.042256
635.9696	0.042509
636.1992	0.043164
636.4288	0.045064
636.6584	0.045549
636.8880	0.046098
637.1177	0.045612
637.3473	0.041053
637.5770	0.042003
637.8066	0.042868
638.0363	0.038583
638.2660	0.041538
638.4957	0.041180
638.7254	0.039174
638.9551	0.042467
639.1848	0.041095
639.4145	0.039955
639.6443	0.036944
639.8740	0.038862
640.1038	0.037445
640.3336	0.035575
640.5633	0.036935
640.7931	0.038451
641.0229	0.033458
641.2528	0.035515
641.4826	0.032894
641.7124	0.033992
641.9423	0.031394
642.1721	0.031238
642.4020	0.030562
642.6319	0.029535
642.8617	0.028863
643.0916	0.028837
643.3216	0.030030
643.5515	0.030953
643.7814	0.029640
644.0113	0.031043
644.2413	0.029693
644.4712	0.029949
644.7012	0.025172
644.9312	0.028027
645.1612	0.026956
645.3912	0.027341
645.6212	0.026228
645.8512	0.026758
646.0812	0.024311
646.3113	0.027770
646.5413	0.025184
646.7714	0.025085
647.0015	0.023765
647.2316	0.025058
647.4616	0.026052
647.6918	0.026146
647.9219	0.027893
648.1520	0.029485
648.3821	0.030264
648.6123	0.031539
648.8424	0.032599
649.0726	0.034482
649.3028	0.034005
649.5329	0.032396
649.7631	0.033859
649.9933	0.031823
650.2236	0.030337
650.4538	0.029596
650.6840	0.029258
650.9143	0.028574
651.1445	0.028088
651.3748	0.028297
651.6051	0.031261
651.8354	0.030024
652.0657	0.031348
652.2960	0.031389
652.5263	0.030734
652.7566	0.031352
652.9870	0.030108
653.2173	0.033145
653.4477	0.032529
653.6780	0.032158
653.9084	0.029907
654.1388	0.030942
654.3692	0.035679
654.5996	0.033158
654.8300	0.041987
655.0605	0.066384
655.2909	0.191500
655.5213	0.517869
655.7518	0.948647
655.9823	1.000000
656.2128	1.000000
656.4433	1.000000
656.6738	1.000000
656.9043	1.000000
657.1348	0.866051
657.3653	0.709446
657.5959	0.611592
657.8264	0.519441
658.0570	0.481749
658.2875	0.445086
658.5181	0.414644
658.7487	0.374369
658.9793	0.368230
659.2099	0.332844
659.4406	0.259280
659.6712	0.174016
659.9018	0.098637
660.1325	0.061460
660.3632	0.041851
660.5938	0.031114
660.8245	0.027181
661.0552	0.025237
661.2859	0.026250
661.5166	0.024700
661.7474	0.021725
661.9781	0.022417
662.2088	0.024312
662.4396	0.021113
662.6704	0.021972
662.9011	0.022672
663.1319	0.022121
663.3627	0.021867
663.5935	0.019529
663.8243	0.023027
664.0552	0.021636
664.2860	0.022395
664.5168	0.022460
664.7477	0.023612
664.9786	0.024458
665.2094	0.024745
665.4403	0.022852
665.6712	0.024777
665.9021	0.024101
666.1330	0.023746
666.3640	0.020897
666.5949	0.023044
666.8259	0.021282
667.0568	0.019975
667.2878	0.020854
667.5188	0.018786
667.7497	0.021357
667.9807	0.020896
668.2117	0.019888
668.4428	0.020261
668.6738	0.019269
668.9048	0.022351
669.1359	0.022182
669.3669	0.021316
669.5980	0.019986
669.8291	0.023068
670.0602	0.020979
670.2913	0.021865
670.5224	0.020219
670.7535	0.023089
670.9846	0.021907
671.2157	0.022709
671.4469	0.027121
671.6781	0.028831
671.9092	0.030203
672.1404	0.032018
672.3716	0.033137
672.6028	0.035628
672.8340	0.033792
673.0652	0.032251
673.2964	0.033010
673.5277	0.028831
673.7589	0.032588
673.9902	0.029422
674.2214	0.029675
674.4527	0.027374
674.6840	0.027079
674.9153	0.027269
675.1466	0.027016
675.3779	0.026741
675.6093	0.027818
675.8406	0.025791
676.0719	0.025728
676.3033	0.027543
676.5347	0.025411
676.7661	0.025918
676.9974	0.024187
677.2288	0.022815
677.4602	0.026530
677.6917	0.027016
677.9231	0.028282
678.1545	0.027776
678.3860	0.026256
678.6174	0.030857
678.8489	0.030625
679.0804	0.030034
679.3119	0.032293
679.5434	0.035649
679.7749	0.035142
680.0064	0.036177
680.2379	0.034551
680.4694	0.035586
680.7010	0.035776
680.9325	0.033496
681.1641	0.033390
681.3957	0.035459
681.6273	0.033053
681.8589	0.033770
682.0905	0.033580
682.3221	0.032989
682.5537	0.029612
682.7854	0.029380
683.0170	0.030562
683.2487	0.030646
683.4803	0.032229
683.7120	0.030794
683.9437	0.031765
684.1754	0.033897
684.4071	0.037190
684.6388	0.038098
684.8705	0.038689
685.1023	0.039807
685.3340	0.045211
685.5658	0.042805
685.7975	0.042805
686.0293	0.045781
686.2611	0.042868
686.4929	0.044367
686.7247	0.043016
686.9565	0.041243
687.1883	0.042488
687.4202	0.043966
687.6520	0.041792
687.8838	0.040610
688.1157	0.038942
688.3476	0.039533
688.5795	0.038710
688.8114	0.036135
689.0433	0.035923
689.2752	0.039238
689.5071	0.036472
689.7390	0.036240
689.9710	0.035480
690.2029	0.034763
690.4349	0.033390
690.6669	0.034277
690.8988	0.036177
691.1308	0.038351
691.3628	0.039744
691.5948	0.039005
691.8269	0.036536
692.0589	0.038119
692.2909	0.036937
692.5230	0.037971
692.7550	0.036747
692.9871	0.037760
693.2192	0.039132
693.4513	0.041348
693.6834	0.038330
693.9155	0.037676
694.1476	0.034530
694.3797	0.033876
694.6119	0.030942
694.8440	0.034235
695.0762	0.036388
695.3083	0.034868
695.5405	0.032293
695.7727	0.030245
696.0049	0.029316
696.2371	0.029950
696.4693	0.031955
696.7016	0.036177
696.9338	0.040926
697.1660	0.039913
697.3983	0.039449
697.6306	0.036662
697.8628	0.038309
698.0951	0.038478
698.3274	0.037950
698.5597	0.037887
698.7920	0.037507
699.0243	0.036219
699.2567	0.035227
699.4890	0.034087
699.7214	0.033496
699.9537	0.032546
700.1861	0.033728
700.4185	0.030203
700.6509	0.031871
700.8833	0.031976
701.1157	0.029528
701.3481	0.028493
701.5806	0.030435
701.8130	0.030013
702.0454	0.028430
702.2779	0.030161
702.5104	0.031364
702.7429	0.032335
702.9753	0.029612
703.2078	0.030879
703.4403	0.031681
703.6729	0.028155
703.9054	0.026593
704.1379	0.028873
704.3705	0.027522
704.6030	0.024715
704.8356	0.026805
705.0682	0.023596
705.3008	0.024082
705.5334	0.023343
705.7660	0.025285
705.9986	0.025812
706.2312	0.027586
706.4638	0.030921
706.6965	0.033179
706.9291	0.034995
707.1618	0.037317
707.3945	0.037887
707.6272	0.037739
707.8599	0.036536
708.0926	0.037274
708.3253	0.037063
708.5580	0.038520
708.7907	0.036916
709.0235	0.034636
709.2562	0.034488
709.4890	0.034066
709.7217	0.036388
709.9545	0.033137
710.1873	0.033792
710.4201	0.035058
710.6529	0.036113
710.8857	0.034256
711.1186	0.032863
711.3514	0.033602
711.5842	0.031512
711.8171	0.031554
712.0500	0.030309
712.2828	0.029274
712.5157	0.029359
712.7486	0.029401
712.9815	0.030140
713.2144	0.030435
713.4474	0.031997
713.6803	0.032905
713.9132	0.033412
714.1462	0.031955
714.3791	0.033834
714.6121	0.035755
714.8451	0.034256
715.0781	0.033538
715.3111	0.034340
715.5441	0.034995
715.7771	0.032061
716.0102	0.033222
716.2432	0.030879
716.4762	0.031237
716.7093	0.028451
716.9424	0.026783
717.1754	0.029781
717.4085	0.028388
717.6416	0.026150
717.8747	0.026995
718.1078	0.029802
718.3410	0.029844
718.5741	0.028324
718.8072	0.026361
719.0404	0.029908
719.2736	0.030900
719.5067	0.028789
719.7399	0.029105
719.9731	0.026805
720.2063	0.027628
720.4395	0.027691
720.6727	0.031533
720.9060	0.029506
721.1392	0.028979
721.3725	0.030013
721.6057	0.032546
721.8390	0.029612
722.0723	0.031111
722.3055	0.029528
722.5388	0.027966
722.7721	0.028113
723.0055	0.028177
723.2388	0.027184
723.4721	0.029802
723.7055	0.027776
723.9388	0.029802
724.1722	0.028409
724.4056	0.027438
724.6389	0.026952
724.8723	0.028810
725.1057	0.030161
725.3391	0.032145
725.5726	0.032968
725.8060	0.032842
726.0394	0.034319
726.2729	0.032293
726.5063	0.036641
726.7398	0.032609
726.9733	0.032715
727.2068	0.030752
727.4403	0.033475
727.6738	0.034045
727.9073	0.033454
728.1408	0.032314
728.3743	0.036430
728.6079	0.031828
728.8414	0.034235
729.0750	0.033728
729.3086	0.035501
729.5421	0.036113
729.7757	0.035607
730.0093	0.037148
730.2429	0.036261
730.4766	0.038478
730.7102	0.038182
730.9438	0.043966
731.1775	0.042277
731.4111	0.041897
731.6448	0.042552
731.8785	0.045190
732.1122	0.041771
732.3458	0.039132
732.5795	0.039301
732.8133	0.042446
733.0470	0.042277
733.2807	0.044494
733.5145	0.043839
733.7482	0.046816
733.9820	0.048694
734.2157	0.050657
734.4495	0.052578
734.6833	0.051122
734.9171	0.046794
735.1509	0.051185
735.3847	0.047364
735.6185	0.048293
735.8524	0.047998
736.0862	0.048103
736.3201	0.049053
736.5539	0.047006
736.7878	0.048694
737.0217	0.049919
737.2556	0.051080
737.4895	0.048103
737.7234	0.045802
737.9573	0.041876
738.1912	0.041728
738.4252	0.040230
738.6591	0.039871
738.8931	0.042108
739.1271	0.044789
739.3610	0.045317
739.5950	0.045802
739.8290	0.045021
740.0630	0.043691
740.2970	0.041370
740.5310	0.039301
740.7651	0.041032
740.9991	0.038098
741.2332	0.037274
741.4672	0.034826
741.7013	0.034995
741.9354	0.034615
742.1695	0.034404
742.4036	0.033475
742.6377	0.034446
742.8718	0.033623
743.1059	0.033390
743.3400	0.032251
743.5742	0.031575
743.8083	0.030477
744.0425	0.030245
744.2767	0.030330
744.5108	0.029718
744.7450	0.029084
744.9792	0.028324
745.2134	0.028324
745.4477	0.029612
745.6819	0.029950
745.9161	0.027459
746.1504	0.028789
746.3846	0.028388
746.6189	0.029612
746.8532	0.028092
747.0874	0.031554
747.3217	0.031681
747.5560	0.029908
747.7903	0.031997
748.0247	0.030879
748.2590	0.027923
748.4933	0.031090
748.7277	0.030921
748.9620	0.030773
749.1964	0.030520
749.4308	0.033179
749.6652	0.036409
749.8995	0.035860
750.1339	0.038625
750.3684	0.041560
750.6028	0.038245
750.8372	0.038815
751.0717	0.039913
751.3061	0.038604
751.5406	0.039343
751.7750	0.040293
752.0095	0.040103
752.2440	0.040441
752.4785	0.039449
752.7130	0.036177
752.9475	0.037443
753.1820	0.036071
753.4166	0.035755
753.6511	0.040483
753.8856	0.044325
754.1202	0.043206
754.3548	0.040462
754.5894	0.038351
754.8239	0.041454
755.0585	0.038689
755.2931	0.041391
755.5278	0.042636
755.7624	0.045296
755.9970	0.041897
756.2317	0.046267
756.4663	0.046816
756.7010	0.049919
756.9356	0.049792
757.1703	0.052599
757.4050	0.055322
757.6397	0.060262
757.8744	0.059819
758.1091	0.059565
758.3438	0.057412
758.5786	0.054985
758.8133	0.052895
759.0481	0.054942
759.2828	0.056399
759.5176	0.060473
759.7524	0.059987
759.9872	0.064125
760.2220	0.060790
760.4568	0.060388
760.6916	0.062436
760.9264	0.062837
761.1613	0.061106
761.3961	0.061465
761.6310	0.057623
761.8658	0.052473
762.1007	0.050784
762.3356	0.049011
762.5705	0.050425
762.8054	0.047132
763.0403	0.048694
763.2752	0.052051
763.5101	0.051396
763.7450	0.048103
763.9800	0.047808
764.2149	0.050721
764.4499	0.053549
764.6849	0.056504
764.9198	0.060325
765.1548	0.061761
765.3898	0.058742
765.6248	0.055681
765.8599	0.053212
766.0949	0.050404
766.3299	0.046900
766.5650	0.042805
766.8000	0.041961
767.0351	0.039596
767.2701	0.039322
767.5052	0.037865
767.7403	0.040166
767.9754	0.038942
768.2105	0.043945
768.4456	0.044409
768.6808	0.046098
768.9159	0.049243
769.1510	0.049855
769.3862	0.046794
769.6214	0.046921
769.8565	0.046035
770.0917	0.044874
770.3269	0.045528
770.5621	0.045570
770.7973	0.047470
771.0325	0.048082
771.2677	0.050784
771.5030	0.046900
771.7382	0.043649
771.9735	0.045760
772.2087	0.042383
772.4440	0.040589
772.6793	0.040926
772.9146	0.042446
773.1499	0.040968
773.3852	0.038942
773.6205	0.040356
773.8558	0.039660
774.0911	0.039280
774.3265	0.035565
774.5618	0.033960
774.7972	0.031512
775.0326	0.030625
775.2679	0.031216
775.5033	0.029105
775.7387	0.028578
775.9741	0.027881
776.2095	0.027797
776.4450	0.027923
776.6804	0.023216
776.9158	0.025601
777.1513	0.024124
777.3868	0.025644
777.6222	0.026024
777.8577	0.026467
778.0932	0.024947
778.3287	0.026699
778.5642	0.025876
778.7997	0.027670
779.0352	0.029063
779.2707	0.032229
779.5063	0.032145
779.7418	0.031174
779.9774	0.030435
780.2130	0.028725
780.4485	0.028557
780.6841	0.026741
780.9197	0.031723
781.1553	0.031533
781.3909	0.036515
781.6265	0.036747
781.8622	0.037148
782.0978	0.033433
782.3335	0.034763
782.5691	0.036388
782.8048	0.035438
783.0405	0.032208
783.2761	0.033876
783.5118	0.034235
783.7475	0.035755
783.9832	0.032989
784.2190	0.031470
784.4547	0.030182
784.6904	0.029401
784.9262	0.029148
785.1619	0.029338
785.3977	0.030667
785.6335	0.029105
785.8692	0.028641
786.1050	0.029443
786.3408	0.028979
786.5766	0.030161
786.8124	0.028177
787.0483	0.026171
787.2841	0.026868
787.5199	0.030667
787.7558	0.030330
787.9917	0.031871
788.2275	0.028958
788.4634	0.030182
788.6993	0.031301
788.9352	0.030710
789.1711	0.028937
789.4070	0.030583
789.6429	0.030351
789.8789	0.027902
790.1148	0.025960
790.3507	0.027248
790.5867	0.023786
790.8227	0.024082
791.0586	0.023955
791.2946	0.024039
791.5306	0.025074
791.7666	0.021992
792.0026	0.021738
792.2387	0.023427
792.4747	0.021717
792.7107	0.023237
792.9468	0.022140
793.1828	0.021232
793.4189	0.022182
793.6550	0.025116
793.8910	0.025432
794.1271	0.030921
794.3632	0.031744
794.5993	0.032525
794.8355	0.031364
795.0716	0.032525
795.3077	0.032799
795.5439	0.032673
795.7800	0.028134
796.0162	0.026678
796.2523	0.024335
796.4885	0.022815
796.7247	0.022329
796.9609	0.021380
797.1971	0.021633
797.4333	0.022899
797.6695	0.023448
797.9058	0.023955
798.1420	0.023068
798.3783	0.023680
798.6145	0.023533
798.8508	0.023068
799.0871	0.022836
799.3233	0.023195
799.5596	0.025179
799.7959	0.020979
800.0322	0.020029
800.2686	0.019480
800.5049	0.021992
800.7412	0.020134
800.9776	0.019142
801.2139	0.019881
801.4503	0.019944
801.6867	0.019395
801.9230	0.018593
802.1594	0.017263
802.3958	0.016947
802.6322	0.018002
802.8686	0.016672
803.1051	0.018171
803.3415	0.016609
803.5779	0.018066
803.8144	0.017770
804.0508	0.018678
804.2873	0.018467
804.5238	0.017686
804.7603	0.017179
804.9968	0.016947
805.2333	0.016672
805.4698	0.017918
805.7063	0.017496
805.9428	0.017897
806.1794	0.022752
806.4159	0.023512
806.6525	0.023786
806.8890	0.024293
807.1256	0.023153
807.3622	0.023427
807.5988	0.021380
807.8354	0.023723
808.0720	0.021654
808.3086	0.023596
808.5452	0.023913
808.7818	0.023300
809.0185	0.024060
809.2551	0.024103
809.4918	0.021295
809.7284	0.018783
809.9651	0.020387
810.2018	0.020451
810.4385	0.018298
810.6752	0.018952
810.9119	0.020113
811.1486	0.018467
811.3853	0.018256
811.6221	0.020493
811.8588	0.016778
812.0956	0.017918
812.3323	0.016145
812.5691	0.017348
812.8059	0.015469
813.0427	0.014963
813.2795	0.013907
813.5163	0.016989
813.7531	0.018002
813.9899	0.018868
814.2267	0.019290
814.4636	0.018657
814.7004	0.018931
814.9373	0.017179
815.1742	0.017854
815.4110	0.015870
815.6479	0.014456
815.8848	0.013042
816.1217	0.014393
816.3586	0.014540
816.5955	0.015490
816.8324	0.014604
817.0694	0.015005
817.3063	0.017010
817.5433	0.016377
817.7802	0.014224
818.0172	0.013717
818.2542	0.013696
818.4912	0.014055
818.7282	0.012451
818.9652	0.012788
819.2022	0.014920
819.4392	0.013569
819.6762	0.012978
819.9133	0.013443
820.1503	0.013084
820.3874	0.014688
820.6244	0.016102
820.8615	0.014941
821.0986	0.015680
821.3357	0.015786
821.5727	0.013992
821.8099	0.015068
822.0470	0.013358
822.2841	0.013548
822.5212	0.012092
822.7584	0.013696
822.9955	0.012704
823.2327	0.012451
823.4698	0.012852
823.7070	0.013443
823.9442	0.011986
824.1814	0.012788
824.4186	0.010825
824.6558	0.011459
824.8930	0.010403
825.1302	0.013654
825.3675	0.011564
825.6047	0.015026
825.8419	0.013063
826.0792	0.013337
826.3165	0.014414
826.5537	0.013633
826.7910	0.011838
827.0283	0.013886
827.2656	0.012788
827.5029	0.014920
827.7402	0.011184
827.9776	0.013316
828.2149	0.013147
828.4522	0.013759
828.6896	0.012261
828.9270	0.013612
829.1643	0.012936
829.4017	0.013189
829.6391	0.010276
829.8765	0.011205
830.1139	0.010867
830.3513	0.011817
830.5887	0.010065
830.8261	0.010150
831.0636	0.008820
831.3010	0.008925
831.5385	0.008567
831.7759	0.008757
832.0134	0.008546
832.2509	0.008250
832.4884	0.008208
832.7259	0.008757
832.9634	0.008630
833.2009	0.009981
833.4384	0.010065
833.6759	0.007427
833.9135	0.009094
834.1510	0.011121
834.3886	0.011290
834.6261	0.011416
834.8637	0.011332
835.1013	0.011944
835.3389	0.010593
835.5765	0.009453
835.8141	0.008419
836.0517	0.010867
836.2893	0.008778
836.5269	0.009010
836.7646	0.008778
837.0022	0.008524
837.2399	0.005780
837.4775	0.008102
837.7152	0.007490
837.9529	0.008292
838.1906	0.007026
838.4283	0.007469
838.6660	0.006878
838.9037	0.006667
839.1414	0.007363
839.3791	0.008356
839.6169	0.007068
839.8546	0.007701
840.0924	0.006414
840.3302	0.007722
840.5679	0.007385
840.8057	0.008166
841.0435	0.006667
841.2813	0.007110
841.5191	0.006582
841.7569	0.006920
841.9947	0.006540
842.2326	0.005991
842.4704	0.007406
842.7082	0.007511
842.9461	0.006751
843.1840	0.006097
843.4218	0.005780
843.6597	0.005949
843.8976	0.004746
844.1355	0.006139
844.3734	0.005590
844.6113	0.006266
844.8492	0.006266
845.0872	0.005696
845.3251	0.004408
845.5631	0.005886
845.8010	0.004809
846.0390	0.007300
846.2770	0.003754
846.5149	0.004619
846.7529	0.005189
846.9909	0.005421
847.2289	0.005210
847.4669	0.004640
847.7050	0.004683
847.9430	0.005295
848.1810	0.005295
848.4191	0.004577
848.6571	0.004598
848.8952	0.005400
849.1333	0.004662
849.3713	0.004662
849.6094	0.004978
849.8475	0.006329
850.0856	0.004598
850.3237	0.006202
850.5619	0.005253
850.8000	0.006435
851.0381	0.003036
851.2763	0.005991
851.5144	0.005147
851.7526	0.004915
851.9908	0.005506
852.2289	0.005717
852.4671	0.006477
852.7053	0.008841
852.9435	0.011226
853.1817	0.013316
853.4200	0.012915
853.6582	0.013063
853.8964	0.013675
854.1347	0.015680
854.3729	0.014224
854.6112	0.012852
854.8495	0.014393
855.0877	0.013126
855.3260	0.012366
855.5643	0.012324
855.8026	0.011606
856.0409	0.014203
856.2792	0.012134
856.5176	0.013548
856.7559	0.012641
856.9942	0.011374
857.2326	0.011184
857.4710	0.011205
857.7093	0.009812
857.9477	0.010593
858.1861	0.010804
858.4245	0.010192
858.6629	0.011079
858.9013	0.009284
859.1397	0.009728
859.3781	0.009115
859.6166	0.010509
859.8550	0.008862
860.0935	0.009685
860.3319	0.007026
860.5704	0.007406
860.8089	0.007912
861.0473	0.006899
861.2858	0.006772
861.5243	0.007406
861.7628	0.007005
862.0013	0.005696
862.2399	0.005696
862.4784	0.007406
862.7169	0.007363
862.9555	0.005443
863.1940	0.007131
863.4326	0.006414
863.6712	0.007722
863.9098	0.007448
864.1483	0.008313
864.3869	0.005780
864.6255	0.006076
864.8642	0.005295
865.1028	0.007321
865.3414	0.005295
865.5800	0.005949
865.8187	0.005759
866.0573	0.005316
866.2960	0.005801
866.5347	0.007300
866.7733	0.005548
867.0120	0.006055
867.2507	0.005675
867.4894	0.004957
867.7281	0.006456
867.9669	0.006245
868.2056	0.005168
868.4443	0.006245
868.6831	0.004260
868.9218	0.005485
869.1606	0.004577
869.3993	0.005633
869.6381	0.004155
869.8769	0.006055
870.1157	0.005400
870.3545	0.004999
870.5933	0.004662
870.8321	0.006076
871.0709	0.004070
871.3097	0.006181
871.5486	0.005886
871.7874	0.006751
872.0263	0.004514
872.2651	0.005527
872.5040	0.005590
872.7429	0.004683
872.9818	0.005084
873.2207	0.005738
873.4596	0.004493
873.6985	0.005020
873.9374	0.003268
874.1763	0.006604
874.4153	0.005210
874.6542	0.006709
874.8932	0.006815
875.1321	0.007195
875.3711	0.006688
875.6101	0.006139
875.8491	0.006519
876.0880	0.006582
876.3270	0.005548
876.5661	0.005168
876.8051	0.005696
877.0441	0.004429
877.2831	0.007005
877.5222	0.006202
877.7612	0.005548
878.0003	0.007237
878.2393	0.010086
878.4784	0.006941
878.7175	0.006878
878.9566	0.006815
879.1957	0.007363
879.4348	0.007849
879.6739	0.008018
879.9130	0.008018
880.1521	0.008609
880.3913	0.008841
880.6304	0.008440
880.8696	0.008567
881.1087	0.007321
881.3479	0.006857
881.5871	0.007997
881.8262	0.007300
882.0654	0.007997
882.3046	0.003986
882.5438	0.007743
882.7831	0.005801
883.0223	0.006498
883.2615	0.006730
883.5007	0.005611
883.7400	0.005084
883.9792	0.007195
884.2185	0.007490
884.4578	0.006266
884.6971	0.007279
884.9363	0.005949
885.1756	0.007068
885.4149	0.005717
885.6542	0.005991
885.8936	0.008060
886.1329	0.007342
886.3722	0.005907
886.6116	0.006435
886.8509	0.004788
887.0903	0.006287
887.3296	0.006519
887.5690	0.006202
887.8084	0.005675
888.0478	0.005379
888.2872	0.006456
888.5266	0.005189
888.7660	0.005780
889.0054	0.004978
889.2448	0.006625
889.4843	0.004577
889.7237	0.004619
889.9632	0.004662
890.2026	0.005759
890.4421	0.004282
890.6816	0.004619
890.9211	0.005907
891.1606	0.005654
891.4001	0.004007
891.6396	0.005527
891.8791	0.006287
892.1186	0.006308
892.3581	0.005548
892.5977	0.005274
892.8372	0.004239
893.0768	0.006245
893.3163	0.006371
893.5559	0.006350
893.7955	0.003353
894.0351	0.004788
894.2747	0.005020
894.5143	0.003163
894.7539	0.003247
894.9935	0.004873
895.2331	0.005084
895.4727	0.005886
895.7124	0.004450
895.9520	0.005548
896.1917	0.004894
896.4314	0.005970
896.6710	0.003627
896.9107	0.006414
897.1504	0.005928
897.3901	0.006139
897.6298	0.004915
897.8695	0.005400
898.1092	0.004450
898.3489	0.005443
898.5887	0.004092
898.8284	0.005928
899.0682	0.004851
899.3079	0.004851
899.5477	0.004239
899.7875	0.004239
900.0272	0.002762
900.2670	0.005590
900.5068	0.004788
900.7466	0.005464
900.9864	0.005337
901.2263	0.004746
901.4661	0.004957
901.7059	0.005527
901.9458	0.003775
902.1856	0.004049
902.4255	0.003669
902.6654	0.004767
902.9052	0.004556
903.1451	0.004387
903.3850	0.005084
903.6249	0.004218
903.8648	0.004472
904.1047	0.006224
904.3446	0.004176
904.5846	0.005548
904.8245	0.004134
905.0644	0.005041
905.3044	0.004598
905.5444	0.004851
905.7843	0.005168
906.0243	0.006076
906.2643	0.004725
906.5043	0.005020
906.7443	0.004662
906.9843	0.004999
907.2243	0.004493
907.4643	0.005274
907.7043	0.003479
907.9444	0.003859
908.1844	0.004429
908.4245	0.002487
908.6645	0.003880
908.9046	0.004873
909.1447	0.004683
909.3847	0.003268
909.6248	0.003036
909.8649	0.002994
910.1050	0.004640
910.3452	0.002804
910.5853	0.004113
910.8254	0.004830
911.0655	0.003479
911.3057	0.004746
911.5458	0.004577
911.7860	0.004366
912.0262	0.002909
912.2663	0.004598
912.5065	0.003395
912.7467	0.005527
912.9869	0.003902
913.2271	0.003036
913.4673	0.003543
913.7075	0.003015
913.9478	0.004239
914.1880	0.002340
914.4283	0.003184
914.6685	0.003416
914.9088	0.003585
915.1490	0.003057
915.3893	0.003268
915.6296	0.004049
915.8699	0.003648
916.1102	0.003796
916.3505	0.005147
916.5908	0.005105
916.8311	0.003289
917.0714	0.004113
917.3118	0.003796
917.5521	0.004788
917.7925	0.005443
918.0328	0.004535
918.2732	0.005443
918.5136	0.005675
918.7539	0.003015
918.9943	0.004535
919.2347	0.004598
919.4751	0.005084
919.7155	0.004577
919.9560	0.005590
920.1964	0.003226
920.4368	0.004788
920.6773	0.004134
920.9177	0.004450
921.1582	0.002508
921.3986	0.003923
921.6391	0.002973
921.8796	0.005274
922.1201	0.003606
922.3606	0.003543
922.6011	0.003585
922.8416	0.002931
923.0821	0.001981
923.3226	0.004514
923.5631	0.003733
923.8037	0.004746
924.0442	0.003775
924.2848	0.001981
924.5254	0.002361
924.7659	0.003902
925.0065	0.003564
925.2471	0.003374
925.4877	0.001854
925.7283	0.002656
925.9689	0.003564
926.2095	0.001664
926.4501	0.002551
926.6908	0.003247
926.9314	0.002888
927.1720	0.002720
927.4127	0.003099
927.6533	0.003880
927.8940	0.002530
928.1347	0.002297
928.3754	0.001812
928.6161	0.002952
928.8568	0.001960
929.0975	0.001833
929.3382	0.002952
929.5789	0.003057
929.8196	0.001115
930.0604	0.002888
930.3011	0.002466
930.5419	0.002720
930.7826	0.002023
931.0234	0.003247
931.2642	0.003543
931.5049	0.003374
931.7457	0.000841
931.9865	0.002382
932.2273	0.001242
932.4681	0.002720
932.7089	0.002762
932.9498	0.003163
933.1906	0.003163
933.4314	0.002171
933.6723	0.002002
933.9131	0.002825
934.1540	0.001326
934.3949	0.003268
934.6358	0.002424
934.8766	0.002466
935.1175	0.001031
935.3584	0.001896
935.5993	0.003099
935.8403	0.002466
936.0812	0.001622
936.3221	0.003564
936.5630	0.002720
936.8040	0.001115
937.0449	0.000355
937.2859	0.002783
937.5269	0.001200
937.7678	0.002023
938.0088	0.001347
938.2498	0.000250
938.4908	0.002530
938.7318	0.001749
938.9728	0.001073
939.2138	0.001200
939.4549	0.002677
939.6959	0.001854
939.9369	0.002466
940.1780	0.001580
940.4190	0.001347
940.6601	0.000419
940.9012	0.002107
941.1422	0.001200
941.3833	0.001791
941.6244	0.002065
941.8655	0.001875
942.1066	-0.000193
942.3477	0.002297
942.5889	0.000714
942.8300	0.000376
943.0711	0.001896
943.3123	0.002466
943.5534	0.000186
943.7946	0.001305
944.0357	0.002128
944.2769	0.001453
944.5181	0.001981
944.7593	0.001833
945.0005	0.002213
945.2417	0.001157
945.4829	0.001221
945.7241	0.000398
945.9653	0.001094
946.2066	0.002128
946.4478	-0.000426
946.6891	0.001643
946.9303	0.000820
947.1716	0.000672
947.4128	0.002128
947.6541	0.001812
947.8954	0.000123
948.1367	0.001094
948.3780	0.000778
948.6193	0.000609
948.8606	0.001432
949.1019	0.001453
949.3433	0.000693
949.5846	0.002635
949.8259	0.000820
950.0673	0.001474
950.3086	0.001580
950.5500	0.002382
950.7914	0.000946
951.0327	0.002255
951.2741	0.000841
951.5155	0.001073
951.7569	0.002677
951.9983	0.001284
952.2398	0.001263
952.4812	0.002086
952.7226	-0.000067
952.9640	0.001664
953.2055	0.002065
953.4469	0.002361
953.6884	0.000778
953.9299	0.001347
954.1713	-0.000405
954.4128	0.001791
954.6543	0.001474
954.8958	0.001643
955.1373	0.001537
955.3788	0.002171
955.6203	-0.000067
955.8618	0.001812
956.1034	0.001010
956.3449	0.001854
956.5865	0.000376
956.8280	0.002044
957.0696	0.000186
957.3111	0.002002
957.5527	0.002002
957.7943	0.001390
958.0359	0.000735
958.2775	0.001875
958.5191	0.001537
958.7607	-0.000383
959.0023	0.002023
959.2439	0.001896
959.4856	0.000799
959.7272	0.001896
959.9688	0.000630
960.2105	0.001347
960.4522	0.001010
960.6938	0.001474
960.9355	0.002002
961.1772	0.001917
961.4189	0.001347
961.6606	0.001833
961.9023	0.001390
962.1440	0.000989
962.3857	0.001453
962.6274	0.001347
962.8692	-0.000151
963.1109	-0.000130
963.3527	0.000946
963.5944	0.000461
963.8362	0.000883
964.0779	0.000566
964.3197	0.000714
964.5615	0.000545
964.8033	0.001938
965.0451	0.001643
965.2869	-0.000025
965.5287	0.001580
965.7705	0.002382
966.0123	0.001643
966.2542	0.001749
966.4960	0.001073
966.7379	0.001347
966.9797	0.001495
967.2216	0.001305
967.4634	0.002382
967.7053	0.002213
967.9472	0.002635
968.1891	0.000123
968.4310	0.000967
968.6729	0.001179
968.9148	0.000376
969.1567	0.000778
969.3987	0.000271
969.6406	0.000714
969.8825	0.002213
970.1245	0.001010
970.3664	0.002171
970.6084	0.001516
970.8504	0.001622
971.0923	0.001284
971.3343	0.001242
971.5763	0.000735
971.8183	0.001031
972.0603	0.000398
972.3023	0.001284
972.5443	0.000482
972.7864	0.000609
973.0284	0.000545
973.2704	0.000334
973.5125	0.000039
973.7545	0.000482
973.9966	0.001031
974.2387	0.002424
974.4807	0.000039
974.7228	0.000693
974.9649	-0.000447
975.2070	0.000609
975.4491	0.001749
975.6912	0.001474
975.9333	0.000102
976.1755	0.000820
976.4176	0.000398
976.6597	0.000735
976.9019	0.001052
977.1440	0.001200
977.3862	0.000440
977.6283	0.001326
977.8705	-0.000109
978.1127	-0.000721
978.3549	-0.000806
978.5971	0.000482
978.8393	0.001706
979.0815	0.001537
979.3237	0.000081
979.5659	0.000967
979.8082	0.001010
980.0504	0.001010
980.2926	0.001664
980.5349	0.002065
980.7771	0.001474
981.0194	0.000609
981.2617	0.001326
981.5040	0.000651
981.7462	-0.000721
981.9885	0.000060
982.2308	0.000144
982.4731	-0.000215
982.7155	-0.000067
982.9578	0.001221
983.2001	-0.000046
983.4424	0.002783
983.6848	-0.000236
983.9271	0.001221
984.1695	0.000925
984.4118	0.001221
984.6542	-0.000489
984.8966	0.000862
985.1390	-0.000088
985.3814	0.001812
985.6238	-0.000869
985.8662	0.001643
986.1086	0.000186
986.3510	0.001136
986.5934	0.001031
986.8358	0.001580
987.0783	0.000229
987.3207	0.000355
987.5632	0.000208
987.8056	0.001136
988.0481	0.000461
988.2906	-0.000552
988.5331	0.000904
988.7756	0.000946
989.0180	0.000018
989.2605	0.000651
989.5031	0.001073
989.7456	0.000313
989.9881	0.000271
990.2306	0.000018
990.4732	0.000334
990.7157	-0.000088
990.9582	-0.000109
991.2008	-0.000215
991.4434	0.001094
991.6859	0.001179
991.9285	0.000144
992.1711	0.001284
992.4137	0.000250
992.6563	0.001010
992.8989	0.000313
993.1415	0.000904
993.3841	0.001242
993.6267	0.001305
993.8694	0.000841
994.1120	0.001812
994.3547	0.000799
994.5973	0.001770
994.8400	0.001052
995.0826	0.001960
995.3253	0.000925
995.5680	0.000355
995.8107	0.000398
996.0534	0.000735
996.2961	0.000355
996.5388	0.001833
996.7815	-0.000215
997.0242	-0.000616
997.2670	0.000060
997.5097	0.001727
997.7524	-0.000320
997.9952	0.001727
998.2379	-0.000531
998.4807	0.001643
998.7235	0.001580
998.9662	0.001812
999.2090	0.000630
999.4518	0.000545
999.6946	0.000756
999.9374	-0.000468
1000.1802	0.000376
1000.4230	0.002192
1000.6659	-0.000109
1000.9087	-0.000320
1001.1515	0.001221
1001.3944	-0.000172
1001.6372	0.002255
1001.8801	-0.000025
1002.1230	0.001706
1002.3658	-0.000362
1002.6087	0.003057
1002.8516	0.001390
1003.0945	0.002466
1003.3374	0.001031
1003.5803	0.000165
1003.8232	0.001854
1004.0661	0.001073
1004.3091	-0.000405
1004.5520	0.000524
1004.7949	0.000271
1005.0379	0.000398
1005.2808	-0.000573
1005.5238	-0.000468
1005.7667	0.001221
1006.0097	0.001390
1006.2527	0.001580
1006.4957	0.000651
1006.7387	-0.000109
1006.9817	0.001115
1007.2247	0.001052
1007.4677	-0.000046
1007.7107	0.000461
1007.9538	0.001727
1008.1968	0.000229
1008.4398	0.000946
1008.6829	0.001284
1008.9259	0.000271
1009.1690	0.000545
1009.4121	0.002023
1009.6551	-0.000088
1009.8982	0.001432
1010.1413	0.000440
1010.3844	0.001474
1010.6275	0.001580
1010.8706	0.000461
1011.1137	-0.000004
1011.3568	0.000292
1011.6000	0.000186
1011.8431	0.000018
1012.0863	0.001031
1012.3294	0.001411
1012.5726	0.000229
1012.8157	0.001010
1013.0589	-0.000236
1013.3021	-0.000573
1013.5452	0.001474
1013.7884	0.001263
1014.0316	0.000503
1014.2748	0.001136
1014.5180	-0.001080
1014.7613	0.002318
1015.0045	0.000778
1015.2477	0.000524
1015.4909	0.000060
1015.7342	0.001559
1015.9774	0.000989
1016.2207	0.001157
1016.4640	0.000735
1016.7072	0.002065
1016.9505	0.000440
1017.1938	0.000841
1017.4371	0.000883
1017.6804	0.001136
1017.9237	0.000883
1018.1670	0.000735
1018.4103	0.001179
1018.6536	0.000186
1018.8969	-0.000193
1019.1403	0.001369
1019.3836	-0.000257
1019.6270	0.000229
1019.8703	0.000123
1020.1137	0.000524
1020.3571	0.000060
1020.6004	-0.000362
1020.8438	-0.000172
1021.0872	0.000250
1021.3306	-0.001312
1021.5740	0.000967
1021.8174	-0.000996
1022.0608	0.000778
1022.3042	-0.000320
1022.5477	0.000651
1022.7911	0.000672
1023.0345	0.000461
