# Wavelength (nm)	Intensity (a.u.)
197.7802	-0.001139
197.9842	-0.000273
198.1882	0.000150
198.3922	-0.000421
198.5963	-0.000209
198.8003	-0.000484
199.0044	-0.000125
199.2085	0.000128
199.4126	-0.000568
199.6168	-0.000526
199.8209	-0.001033
200.0251	-0.000336
200.2292	-0.000357
200.4334	-0.001075
200.6376	-0.001434
200.8418	-0.000209
201.0461	0.000086
201.2503	0.000065
201.4546	0.000150
201.6589	0.000656
201.8631	0.000319
202.0674	0.000086
202.2718	0.000551
202.4761	0.001417
202.6805	-0.001054
202.8848	-0.000146
203.0892	0.000825
203.2936	0.000086
203.4980	0.000255
203.7024	0.000044
203.9069	0.001163
204.1113	0.000086
204.3158	-0.000843
204.5203	-0.000357
204.7248	-0.000611
204.9293	-0.001160
205.1338	0.000086
205.3384	-0.000505
205.5430	0.000002
205.7475	0.000171
205.9521	-0.000294
206.1567	-0.000019
206.3614	0.000973
206.5660	0.000382
206.7706	0.000150
206.9753	0.001480
207.1800	-0.000695
207.3847	0.000276
207.5894	0.000445
207.7941	-0.000716
207.9989	0.001227
208.2036	-0.000252
208.4084	0.001015
208.6132	-0.000167
208.8180	0.000487
209.0228	-0.000209
209.2276	-0.000421
209.4325	-0.002427
209.6373	-0.000062
209.8422	-0.000822
210.0471	-0.000442
210.2520	-0.000611
210.4569	-0.000421
210.6618	0.000403
210.8668	0.000994
211.0718	-0.000927
211.2767	0.000445
211.4817	-0.000695
211.6867	0.000699
211.8918	-0.000780
212.0968	-0.001012
212.3018	-0.000949
212.5069	-0.000019
212.7120	-0.000357
212.9171	-0.000526
213.1222	0.000171
213.3273	0.000276
213.5325	-0.000083
213.7376	0.000213
213.9428	-0.001118
214.1480	-0.000611
214.3532	-0.001033
214.5584	0.000086
214.7636	0.000825
214.9689	-0.000040
215.1741	-0.001350
215.3794	0.000192
215.5847	-0.000780
215.7900	0.001311
215.9953	0.000382
216.2007	-0.000146
216.4060	-0.001096
216.6114	-0.000357
216.8168	-0.000526
217.0222	0.000487
217.2276	-0.001012
217.4330	-0.000885
217.6384	-0.000336
217.8439	-0.000315
218.0494	0.001311
218.2548	0.000044
218.4603	-0.000949
218.6659	0.001227
218.8714	-0.000273
219.0769	0.000065
219.2825	0.000150
219.4881	-0.000927
219.6936	0.000952
219.8992	0.000931
220.1049	-0.000780
220.3105	-0.000695
220.5161	0.000509
220.7218	-0.000590
220.9275	-0.000083
221.1332	0.000002
221.3389	0.000678
221.5446	0.000509
221.7503	-0.000252
221.9561	0.000994
222.1618	-0.000019
222.3676	-0.000019
222.5734	0.000276
222.7792	0.000846
222.9850	0.000107
223.1909	0.000509
223.3967	-0.000590
223.6026	0.000297
223.8085	0.000846
224.0144	0.000572
224.2203	-0.001139
224.4262	-0.000167
224.6322	-0.000611
224.8381	0.000044
225.0441	-0.000273
225.2501	-0.000822
225.4561	0.000002
225.6621	0.001227
225.8681	-0.000759
226.0742	0.000150
226.2802	-0.000125
226.4863	-0.000737
226.6924	-0.000104
226.8985	0.000466
227.1046	0.000699
227.3107	0.000678
227.5169	-0.000547
227.7230	0.000297
227.9292	-0.000378
228.1354	0.000002
228.3416	-0.000357
228.5478	0.000551
228.7541	0.000255
228.9603	-0.000442
229.1666	0.000572
229.3729	-0.000547
229.5791	-0.001075
229.7855	-0.000653
229.9918	-0.000357
230.1981	-0.000040
230.4045	0.000276
230.6108	0.001522
230.8172	-0.000378
231.0236	-0.000083
231.2300	0.000150
231.4364	0.000086
231.6429	0.000424
231.8493	-0.001033
232.0558	0.000276
232.2623	-0.000421
232.4688	-0.000399
232.6753	0.000889
232.8818	-0.000336
233.0884	0.000635
233.2949	0.002135
233.5015	0.000530
233.7081	-0.000421
233.9147	0.001670
234.1213	-0.000083
234.3279	0.000910
234.5346	-0.000906
234.7413	0.000635
234.9479	0.000276
235.1546	-0.000843
235.3613	-0.000273
235.5680	0.000361
235.7748	-0.001371
235.9815	0.001374
236.1883	-0.000547
236.3951	0.000192
236.6018	-0.001075
236.8087	0.000023
237.0155	0.000656
237.2223	0.001142
237.4292	0.000509
237.6360	0.001374
237.8429	-0.000970
238.0498	-0.000716
238.2567	-0.001308
238.4636	-0.000949
238.6706	0.000002
238.8775	0.000973
239.0845	-0.000062
239.2915	0.000656
239.4985	0.000086
239.7055	0.000319
239.9125	0.000952
240.1195	0.000255
240.3266	0.000171
240.5337	0.000551
240.7407	-0.000632
240.9478	0.000340
241.1549	-0.000484
241.3621	-0.000273
241.5692	-0.000822
241.7764	0.000002
241.9835	0.000128
242.1907	-0.000019
242.3979	-0.000991
242.6051	0.000910
242.8124	0.001163
243.0196	-0.000378
243.2269	0.000023
243.4341	-0.000949
243.6414	0.000213
243.8487	0.000150
244.0560	0.000762
244.2634	0.000635
244.4707	-0.000125
244.6781	0.000846
244.8854	0.000699
245.0928	0.000846
245.3002	-0.000632
245.5076	0.000107
245.7151	0.000762
245.9225	0.000445
246.1300	0.000551
246.3375	0.000678
246.5449	0.000952
246.7524	0.001269
246.9600	-0.000484
247.1675	0.000023
247.3750	-0.000062
247.5826	0.000889
247.7902	0.000551
247.9978	-0.000125
248.2054	0.000213
248.4130	0.000614
248.6206	-0.000167
248.8283	-0.000125
249.0359	-0.001202
249.2436	0.000382
249.4513	0.000445
249.6590	0.000255
249.8667	-0.000611
250.0745	0.000868
250.2822	-0.000357
250.4900	-0.000083
250.6978	0.001163
250.9056	0.000846
251.1134	0.000255
251.3212	-0.000104
251.5290	-0.000864
251.7369	0.001522
251.9447	-0.000759
252.1526	0.001860
252.3605	0.000699
252.5684	0.000382
252.7763	-0.001645
252.9843	0.000783
253.1922	-0.000273
253.4002	0.000783
253.6082	-0.001012
253.8162	0.000530
254.0242	-0.000231
254.2322	0.000783
254.4402	-0.001709
254.6483	0.000783
254.8564	0.000361
255.0644	0.000255
255.2725	-0.000104
255.4806	0.000361
255.6888	-0.000674
255.8969	0.001607
256.1051	-0.000991
256.3132	-0.000421
256.5214	-0.000695
256.7296	0.000931
256.9378	-0.000083
257.1460	0.000044
257.3543	-0.000864
257.5625	0.000002
257.7708	-0.000759
257.9791	0.000150
258.1874	-0.000442
258.3957	0.000635
258.6040	-0.001202
258.8124	0.000889
259.0207	0.000044
259.2291	-0.000019
259.4375	0.000065
259.6459	0.001628
259.8543	-0.000104
260.0627	0.000614
260.2711	-0.000146
260.4796	0.000973
260.6881	-0.000188
260.8965	0.001058
261.1050	0.000741
261.3135	0.000762
261.5221	-0.000484
261.7306	-0.000695
261.9392	-0.001519
262.1477	0.000551
262.3563	0.000361
262.5649	-0.000378
262.7735	0.000572
262.9822	0.000699
263.1908	0.000931
263.3995	0.001079
263.6081	0.001332
263.8168	0.000086
264.0255	0.001058
264.2342	-0.000653
264.4429	-0.001096
264.6517	-0.001413
264.8604	-0.000484
265.0692	0.001206
265.2780	-0.000146
265.4868	0.001417
265.6956	0.000403
265.9044	-0.000378
266.1133	-0.001096
266.3221	0.001163
266.5310	0.000255
266.7399	0.001015
266.9488	-0.000463
267.1577	0.000551
267.3666	-0.000526
267.5755	0.000551
267.7845	0.000931
267.9935	0.000171
268.2024	0.001311
268.4114	0.000635
268.6205	-0.000442
268.8295	0.001396
269.0385	0.000403
269.2476	0.000403
269.4566	-0.000759
269.6657	-0.000273
269.8748	-0.000843
270.0839	0.000699
270.2931	0.000466
270.5022	0.000065
270.7114	-0.000632
270.9205	-0.000125
271.1297	-0.000759
271.3389	0.000614
271.5481	0.000804
271.7573	-0.000315
271.9666	-0.001139
272.1758	0.000255
272.3851	-0.001118
272.5944	0.000551
272.8037	-0.000273
273.0130	0.000171
273.2223	-0.000421
273.4316	0.001353
273.6410	0.000424
273.8504	0.001184
274.0597	0.001374
274.2691	0.000910
274.4785	-0.000864
274.6880	-0.000505
274.8974	-0.000399
275.1069	0.000572
275.3163	-0.001540
275.5258	0.000994
275.7353	-0.000146
275.9448	-0.000188
276.1543	0.000150
276.3639	0.000720
276.5734	0.000509
276.7830	0.000487
276.9926	0.000466
277.2022	-0.000125
277.4118	-0.001244
277.6214	0.001100
277.8310	-0.001751
278.0407	0.000783
278.2503	-0.001434
278.4600	-0.000083
278.6697	-0.000125
278.8794	-0.000568
279.0891	0.000023
279.2989	0.000487
279.5086	0.000403
279.7184	0.001902
279.9281	-0.000336
280.1379	0.000340
280.3477	0.000931
280.5576	0.000593
280.7674	-0.000209
280.9772	0.001163
281.1871	-0.000716
281.3970	0.000192
281.6069	-0.000019
281.8168	0.001966
282.0267	0.000002
282.2366	0.001058
282.4466	0.001248
282.6565	0.000910
282.8665	-0.001392
283.0765	-0.000125
283.2865	-0.000442
283.4965	0.000234
283.7065	-0.000294
283.9166	-0.000273
284.1266	0.000255
284.3367	-0.001413
284.5468	-0.000273
284.7569	-0.000273
284.9670	-0.000864
285.1771	-0.000273
285.3873	0.000276
285.5974	0.001987
285.8076	-0.001223
286.0178	0.000530
286.2280	-0.000125
286.4382	-0.001054
286.6484	-0.000294
286.8587	0.001438
287.0689	-0.000146
287.2792	-0.000083
287.4895	-0.000526
287.6998	-0.000442
287.9101	-0.000568
288.1204	-0.001033
288.3308	0.000825
288.5411	0.000931
288.7515	0.000403
288.9619	0.000678
289.1723	0.000319
289.3827	0.000910
289.5931	-0.000674
289.8035	-0.001033
290.0140	0.000213
290.2245	0.000614
290.4349	-0.000399
290.6454	0.000846
290.8559	-0.001012
291.0665	0.000656
291.2770	0.001417
291.4875	0.000530
291.6981	-0.001371
291.9087	0.000107
292.1193	0.000213
292.3299	-0.000188
292.5405	0.000361
292.7511	0.000699
292.9618	-0.000336
293.1724	0.000846
293.3831	0.000825
293.5938	0.000846
293.8045	-0.000611
294.0152	0.000319
294.2260	-0.000505
294.4367	0.000065
294.6475	-0.000695
294.8582	0.000192
295.0690	-0.001392
295.2798	-0.000547
295.4906	0.000319
295.7015	0.000466
295.9123	-0.000695
296.1232	0.000340
296.3340	-0.001498
296.5449	0.000868
296.7558	-0.001730
296.9667	0.001248
297.1777	0.000466
297.3886	-0.000294
297.5995	0.001269
297.8105	0.000234
298.0215	-0.000843
298.2325	0.001184
298.4435	0.000762
298.6545	-0.000315
298.8656	-0.000357
299.0766	0.001691
299.2877	0.000255
299.4988	0.000171
299.7099	0.000720
299.9210	-0.000336
300.1321	0.001079
300.3432	-0.000019
300.5544	0.000107
300.7655	0.001565
300.9767	-0.001329
301.1879	0.000150
301.3991	-0.000906
301.6103	-0.000167
301.8215	0.001248
302.0328	0.001607
302.2441	0.000825
302.4553	-0.000399
302.6666	-0.000632
302.8779	0.001248
303.0892	0.000804
303.3006	-0.000167
303.5119	-0.000231
303.7233	0.001184
303.9346	-0.001730
304.1460	-0.000125
304.3574	0.000319
304.5688	0.000551
304.7803	-0.000378
304.9917	-0.000125
305.2031	0.000424
305.4146	-0.000780
305.6261	0.000002
305.8376	-0.000463
306.0491	-0.000062
306.2606	-0.000590
306.4722	0.000678
306.6837	-0.000421
306.8953	0.000551
307.1069	-0.000125
307.3184	0.000255
307.5301	0.001691
307.7417	-0.000737
307.9533	-0.000315
308.1650	-0.000209
308.3766	-0.000737
308.5883	-0.000399
308.8000	-0.000336
309.0117	0.000319
309.2234	0.001184
309.4351	-0.000970
309.6469	-0.001265
309.8586	0.000171
310.0704	0.000234
310.2822	0.000635
310.4940	0.001227
310.7058	-0.000526
310.9176	-0.000463
311.1295	-0.000864
311.3413	0.000086
311.5532	-0.000062
311.7651	0.000107
311.9770	-0.001667
312.1889	0.000023
312.4008	-0.000315
312.6127	0.002092
312.8247	-0.001413
313.0366	0.000382
313.2486	-0.000991
313.4606	0.000002
313.6726	-0.000378
313.8846	0.000783
314.0967	-0.000674
314.3087	0.001353
314.5208	-0.001244
314.7328	0.000656
314.9449	-0.000421
315.1570	0.000593
315.3692	0.000276
315.5813	0.001480
315.7934	0.000340
316.0056	0.000319
316.2177	0.000487
316.4299	-0.000273
316.6421	-0.000231
316.8543	0.000509
317.0666	-0.000716
317.2788	0.000994
317.4911	-0.001455
317.7033	0.001079
317.9156	-0.000632
318.1279	0.001670
318.3402	0.000150
318.5525	0.000023
318.7649	-0.000695
318.9772	-0.000991
319.1896	-0.000695
319.4019	-0.000104
319.6143	0.000002
319.8267	0.000678
320.0392	-0.001118
320.2516	0.000720
320.4640	-0.000231
320.6765	0.001079
320.8890	-0.000188
321.1014	0.001206
321.3139	-0.000273
321.5265	0.001184
321.7390	0.000276
321.9515	-0.001118
322.1641	0.000403
322.3766	-0.000125
322.5892	-0.001118
322.8018	0.001353
323.0144	-0.000885
323.2270	0.001565
323.4397	-0.000505
323.6523	-0.000357
323.8650	0.000065
324.0777	0.001649
324.2904	0.000234
324.5031	0.000741
324.7158	-0.000083
324.9285	-0.000315
325.1412	-0.000970
325.3540	-0.000949
325.5668	0.000319
325.7796	0.000994
325.9924	0.000403
326.2052	0.000086
326.4180	0.000150
326.6308	-0.000104
326.8437	-0.000019
327.0566	-0.000188
327.2694	-0.000125
327.4823	-0.000188
327.6952	0.000382
327.9082	0.000973
328.1211	-0.001519
328.3340	0.000952
328.5470	-0.000780
328.7600	-0.001413
328.9730	0.000002
329.1860	-0.000062
329.3990	0.000213
329.6120	-0.000125
329.8251	0.000044
330.0381	-0.000568
330.2512	-0.000378
330.4643	0.000382
330.6774	0.000509
330.8905	0.000065
331.1036	-0.000463
331.3167	0.000445
331.5299	-0.001075
331.7431	0.000952
331.9562	0.001079
332.1694	0.000931
332.3826	-0.000421
332.5959	0.001015
332.8091	-0.000590
333.0223	-0.000674
333.2356	-0.000843
333.4489	0.000382
333.6622	-0.000104
333.8755	-0.001118
334.0888	-0.000357
334.3021	0.000910
334.5154	0.000678
334.7288	0.001670
334.9422	-0.000780
335.1555	-0.000505
335.3689	0.000340
335.5823	-0.000927
335.7958	-0.000421
336.0092	0.000445
336.2227	-0.000695
336.4361	0.000656
336.6496	0.000213
336.8631	0.000868
337.0766	-0.001498
337.2901	0.000635
337.5036	0.000192
337.7172	0.000319
337.9307	0.000150
338.1443	-0.000463
338.3579	0.000086
338.5715	0.001037
338.7851	-0.000188
338.9987	0.000868
339.2124	0.000656
339.4260	0.000171
339.6397	0.000762
339.8533	0.000340
340.0670	0.000255
340.2807	-0.000019
340.4945	0.000128
340.7082	-0.000632
340.9219	-0.000780
341.1357	0.000403
341.3495	0.000276
341.5633	-0.000146
341.7771	0.000994
341.9909	-0.001265
342.2047	0.000445
342.4185	-0.000378
342.6324	-0.000062
342.8463	0.000086
343.0601	-0.000315
343.2740	0.000150
343.4879	0.000445
343.7019	0.000107
343.9158	-0.000568
344.1297	-0.000019
344.3437	-0.000336
344.5577	0.001417
344.7717	-0.000357
344.9857	0.001184
345.1997	-0.001730
345.4137	0.000614
345.6277	-0.002047
345.8418	0.001311
346.0559	-0.000188
346.2699	-0.000104
346.4840	-0.001413
346.6981	0.000150
346.9123	0.000551
347.1264	0.000551
347.3406	0.001248
347.5547	-0.000231
347.7689	-0.000906
347.9831	-0.000273
348.1973	-0.000040
348.4115	0.001269
348.6257	-0.000547
348.8400	-0.000906
349.0542	-0.000463
349.2685	-0.001054
349.4828	-0.000991
349.6971	0.000551
349.9114	-0.000188
350.1257	0.000741
350.3400	-0.001286
350.5544	-0.000568
350.7687	-0.000421
350.9831	-0.000019
351.1975	0.000635
351.4119	-0.000167
351.6263	0.000551
351.8407	-0.000611
352.0552	-0.000906
352.2696	0.001121
352.4841	-0.000188
352.6986	-0.000273
352.9131	0.000572
353.1276	0.000445
353.3421	0.000086
353.5566	0.000297
353.7712	0.000509
353.9858	0.000445
354.2003	-0.000822
354.4149	-0.000146
354.6295	0.000171
354.8441	0.000720
355.0588	0.001565
355.2734	0.000171
355.4881	0.000593
355.7027	0.002261
355.9174	-0.001286
356.1321	0.000931
356.3468	0.000234
356.5615	0.000002
356.7763	-0.000463
356.9910	0.000403
357.2058	-0.000294
357.4206	0.000994
357.6353	-0.001139
357.8501	-0.000167
358.0650	-0.000209
358.2798	-0.000357
358.4946	0.000255
358.7095	-0.001160
358.9243	-0.000737
359.1392	-0.000568
359.3541	-0.001329
359.5690	-0.000315
359.7839	-0.001012
359.9989	0.001374
360.2138	0.000002
360.4288	0.000445
360.6438	-0.000083
360.8587	0.001374
361.0737	0.000551
361.2888	-0.000653
361.5038	-0.001033
361.7188	0.000171
361.9339	0.000720
362.1489	-0.000568
362.3640	-0.000421
362.5791	0.000952
362.7942	-0.000336
363.0093	0.000572
363.2245	0.000509
363.4396	0.000910
363.6548	-0.000104
363.8699	0.001206
364.0851	0.000952
364.3003	0.001712
364.5155	-0.000357
364.7308	0.000783
364.9460	-0.001181
365.1612	-0.001160
365.3765	-0.001540
365.5918	0.000678
365.8071	-0.000505
366.0224	-0.000336
366.2377	-0.000104
366.4530	-0.000040
366.6684	-0.000273
366.8837	-0.001033
367.0991	-0.000611
367.3145	0.000424
367.5299	0.000678
367.7453	-0.001160
367.9607	-0.001202
368.1761	0.000530
368.3916	0.001100
368.6070	-0.000252
368.8225	-0.000399
369.0380	-0.000231
369.2535	-0.000801
369.4690	-0.000421
369.6845	-0.001265
369.9001	0.001100
370.1156	0.000825
370.3312	0.000065
370.5468	0.001290
370.7624	0.000720
370.9780	0.000065
371.1936	0.000424
371.4092	-0.000188
371.6249	0.002240
371.8405	-0.000209
372.0562	-0.000505
372.2719	0.000551
372.4876	-0.001012
372.7033	-0.000801
372.9190	0.001079
373.1348	-0.000083
373.3505	0.000825
373.5663	0.000086
373.7820	0.000783
373.9978	-0.002047
374.2136	0.000445
374.4294	0.000445
374.6453	-0.000695
374.8611	0.001248
375.0770	0.000340
375.2928	-0.000674
375.5087	0.000530
375.7246	-0.000062
375.9405	-0.000695
376.1564	-0.001434
376.3724	0.000825
376.5883	0.001374
376.8043	0.000931
377.0203	0.000171
377.2362	0.000783
377.4522	-0.000273
377.6682	-0.001477
377.8843	0.000699
378.1003	-0.001392
378.3164	0.000065
378.5324	0.001248
378.7485	-0.000442
378.9646	0.000171
379.1807	0.000825
379.3968	-0.000632
379.6129	-0.001413
379.8291	-0.000252
380.0452	0.000361
380.2614	-0.000062
380.4776	-0.000231
380.6938	-0.000104
380.9100	-0.000421
381.1262	-0.000315
381.3424	-0.000864
381.5587	0.000910
381.7749	-0.001075
381.9912	-0.000590
382.2075	0.000889
382.4238	-0.000590
382.6401	0.000192
382.8564	0.001227
383.0728	-0.000801
383.2891	0.000297
383.5055	-0.000104
383.7219	-0.000104
383.9382	-0.000083
384.1546	-0.000399
384.3711	-0.000167
384.5875	-0.000040
384.8039	-0.000378
385.0204	0.000783
385.2368	-0.000716
385.4533	0.000466
385.6698	-0.000843
385.8863	0.001142
386.1028	0.000234
386.3194	0.000889
386.5359	-0.001033
386.7525	0.000234
386.9690	0.000213
387.1856	0.001522
387.4022	0.000931
387.6188	0.000868
387.8355	-0.001033
388.0521	-0.000167
388.2687	0.000002
388.4854	0.000783
388.7021	0.000509
388.9188	0.000424
389.1355	0.000445
389.3522	0.000319
389.5689	0.001184
389.7856	0.001121
390.0024	0.000234
390.2192	0.001628
390.4359	-0.001308
390.6527	0.002135
390.8695	0.001058
391.0863	0.000086
391.3032	0.001079
391.5200	0.001586
391.7369	0.000889
391.9537	0.001184
392.1706	0.000403
392.3875	0.001881
392.6044	0.000487
392.8213	0.000509
393.0383	0.001459
393.2552	0.001945
393.4722	0.001438
393.6891	0.000741
393.9061	0.000910
394.1231	0.001755
394.3401	0.001332
394.5572	0.000382
394.7742	0.001290
394.9912	0.000931
395.2083	0.002071
395.4254	0.002642
395.6425	0.002430
395.8596	0.002811
396.0767	0.001628
396.2938	0.002325
396.5109	0.002705
396.7281	0.002853
396.9453	0.002494
397.1624	0.002029
397.3796	0.002261
397.5968	0.004099
397.8140	0.001733
398.0313	0.001670
398.2485	0.003001
398.4658	0.003803
398.6830	0.002958
398.9003	0.003423
399.1176	0.003465
399.3349	0.004289
399.5522	0.002811
399.7696	0.002620
399.9869	0.003148
400.2043	0.003465
400.4216	0.003360
400.6390	0.005661
400.8564	0.004838
401.0738	0.005176
401.2912	0.004648
401.5087	0.005324
401.7261	0.005450
401.9436	0.004859
402.1610	0.005493
402.3785	0.004141
402.5960	0.005915
402.8135	0.004669
403.0310	0.005281
403.2486	0.006443
403.4661	0.005007
403.6837	0.005619
403.9013	0.004880
404.1189	0.006591
404.3365	0.004162
404.5541	0.006168
404.7717	0.006612
404.9893	0.006865
405.2070	0.007245
405.4246	0.007351
405.6423	0.005598
405.8600	0.006485
406.0777	0.006886
406.2954	0.007541
406.5131	0.005767
406.7309	0.007224
406.9486	0.006274
407.1664	0.006696
407.3842	0.006337
407.6020	0.007604
407.8198	0.005408
408.0376	0.008048
408.2554	0.008597
408.4733	0.007520
408.6911	0.007330
408.9090	0.008555
409.1269	0.007647
409.3448	0.008217
409.5627	0.006654
409.7806	0.009611
409.9985	0.009632
410.2165	0.009062
410.4344	0.008618
410.6524	0.008893
410.8704	0.006126
411.0884	0.007963
411.3064	0.009252
411.5244	0.009421
411.7424	0.008893
411.9605	0.009167
412.1785	0.008787
412.3966	0.008175
412.6147	0.010286
412.8328	0.010624
413.0509	0.007604
413.2690	0.010223
413.4871	0.009315
413.7053	0.010350
413.9234	0.010519
414.1416	0.012124
414.3598	0.010181
414.5780	0.009484
414.7962	0.011047
415.0144	0.011427
415.2326	0.008660
415.4509	0.011554
415.6692	0.009547
415.8874	0.011321
416.1057	0.010286
416.3240	0.011722
416.5423	0.011131
416.7606	0.012694
416.9790	0.010962
417.1973	0.010857
417.4157	0.012483
417.6341	0.012947
417.8524	0.013898
418.0708	0.013454
418.2893	0.011828
418.5077	0.011300
418.7261	0.012990
418.9446	0.013686
419.1630	0.010160
419.3815	0.013370
419.6000	0.013475
419.8185	0.015862
420.0370	0.014890
420.2555	0.014785
420.4741	0.014003
420.6926	0.015165
420.9112	0.013919
421.1298	0.014785
421.3483	0.014721
421.5669	0.015862
421.7856	0.017002
422.0042	0.018333
422.2228	0.018945
422.4415	0.016706
422.6601	0.017488
422.8788	0.018037
423.0975	0.018333
423.3162	0.017678
423.5349	0.016305
423.7536	0.018333
423.9724	0.017551
424.1911	0.018164
424.4099	0.015841
424.6287	0.017952
424.8475	0.016706
425.0663	0.018544
425.2851	0.016833
425.5039	0.019959
425.7228	0.016981
425.9416	0.017002
426.1605	0.016749
426.3793	0.016390
426.5982	0.016622
426.8171	0.015735
427.0361	0.015819
427.2550	0.015756
427.4739	0.017403
427.6929	0.016136
427.9118	0.018121
428.1308	0.017509
428.3498	0.017952
428.5688	0.016453
428.7878	0.016115
429.0068	0.016622
429.2259	0.017762
429.4449	0.016960
429.6640	0.017762
429.8831	0.019367
430.1022	0.020423
430.3213	0.021838
430.5404	0.019747
430.7595	0.020064
430.9787	0.020508
431.1978	0.021690
431.4170	0.020888
431.6362	0.020803
431.8553	0.018311
432.0745	0.018311
432.2938	0.019663
432.5130	0.016284
432.7322	0.018396
432.9515	0.018544
433.1707	0.017699
433.3900	0.016643
433.6093	0.019452
433.8286	0.019072
434.0479	0.020803
434.2673	0.021162
434.4866	0.021247
434.7059	0.018164
434.9253	0.019747
435.1447	0.019156
435.3641	0.019388
435.5835	0.019072
435.8029	0.020360
436.0223	0.020930
436.2418	0.019853
436.4612	0.017974
436.6807	0.020740
436.9001	0.023338
437.1196	0.018523
437.3391	0.019726
437.5586	0.020634
437.7782	0.021120
437.9977	0.019726
438.2173	0.018818
438.4368	0.020444
438.6564	0.020592
438.8760	0.020170
439.0956	0.019726
439.3152	0.020043
439.5348	0.020719
439.7545	0.019874
439.9741	0.021141
440.1938	0.020719
440.4135	0.020444
440.6331	0.020212
440.8528	0.020001
441.0725	0.022261
441.2923	0.022873
441.5120	0.022979
441.7318	0.024098
441.9515	0.023105
442.1713	0.023866
442.3911	0.023063
442.6109	0.024140
442.8307	0.023528
443.0505	0.023000
443.2703	0.022789
443.4902	0.022007
443.7101	0.022746
443.9299	0.023992
444.1498	0.025196
444.3697	0.024816
444.5896	0.022556
444.8095	0.025639
445.0295	0.021564
445.2494	0.023084
445.4694	0.023401
445.6894	0.022704
445.9093	0.021648
446.1293	0.021268
446.3493	0.022113
446.5694	0.023718
446.7894	0.023295
447.0094	0.023401
447.2295	0.022451
447.4496	0.021078
447.6696	0.022979
447.8897	0.021416
448.1098	0.021859
448.3300	0.020550
448.5501	0.022282
448.7702	0.019072
448.9904	0.021606
449.2106	0.021817
449.4307	0.021585
449.6509	0.020803
449.8711	0.019431
450.0914	0.020571
450.3116	0.019938
450.5318	0.022303
450.7521	0.019410
450.9724	0.021416
451.1926	0.020571
451.4129	0.018966
451.6332	0.019473
451.8535	0.019452
452.0739	0.018354
452.2942	0.018100
452.5146	0.019114
452.7349	0.019642
452.9553	0.018649
453.1757	0.018903
453.3961	0.017319
453.6165	0.016622
453.8369	0.016263
454.0574	0.016770
454.2778	0.017129
454.4983	0.018776
454.7188	0.015883
454.9393	0.018797
455.1597	0.016495
455.3803	0.017657
455.6008	0.016664
455.8213	0.017002
456.0419	0.018692
456.2624	0.017720
456.4830	0.018860
456.7036	0.017298
456.9242	0.016453
457.1448	0.017319
457.3654	0.014848
457.5860	0.016728
457.8067	0.016812
458.0274	0.015862
458.2480	0.015418
458.4687	0.018755
458.6894	0.016495
458.9101	0.017974
459.1308	0.016960
459.3516	0.017720
459.5723	0.016347
459.7931	0.016347
460.0138	0.015714
460.2346	0.017002
460.4554	0.017382
460.6762	0.016263
460.8970	0.017509
461.1178	0.015988
461.3387	0.016474
461.5595	0.016094
461.7804	0.014257
462.0013	0.016073
462.2222	0.014637
462.4431	0.015101
462.6640	0.014130
462.8849	0.013602
463.1059	0.012631
463.3268	0.012229
463.5478	0.012842
463.7687	0.013243
463.9897	0.013602
464.2107	0.014067
464.4317	0.014362
464.6528	0.014362
464.8738	0.014193
465.0948	0.014595
465.3159	0.013623
465.5370	0.015545
465.7581	0.013095
465.9792	0.016601
466.2003	0.016643
466.4214	0.013222
466.6425	0.013074
466.8637	0.011511
467.0848	0.013433
467.3060	0.011638
467.5272	0.010751
467.7484	0.009737
467.9696	0.011068
468.1908	0.010308
468.4120	0.011279
468.6333	0.010054
468.8545	0.010941
469.0758	0.010012
469.2970	0.009273
469.5183	0.010899
469.7396	0.011934
469.9610	0.008724
470.1823	0.009653
470.4036	0.010308
470.6250	0.009505
470.8463	0.008597
471.0677	0.007921
471.2891	0.006907
471.5105	0.007921
471.7319	0.008597
471.9533	0.007541
472.1748	0.008280
472.3962	0.010075
472.6177	0.008787
472.8391	0.009146
473.0606	0.007752
473.2821	0.008787
473.5036	0.009315
473.7251	0.008491
473.9467	0.009019
474.1682	0.009801
474.3898	0.007710
474.6113	0.008322
474.8329	0.008365
475.0545	0.006865
475.2761	0.008829
475.4977	0.008153
475.7193	0.008090
475.9410	0.008132
476.1626	0.008280
476.3843	0.007604
476.6060	0.008048
476.8277	0.007013
477.0494	0.006168
477.2711	0.006527
477.4928	0.006443
477.7145	0.006443
477.9363	0.005978
478.1580	0.007562
478.3798	0.005999
478.6016	0.007140
478.8234	0.006126
479.0452	0.007119
479.2670	0.006105
479.4888	0.007119
479.7107	0.005683
479.9325	0.006443
480.1544	0.007076
480.3763	0.006021
480.5982	0.006802
480.8201	0.006886
481.0420	0.007140
481.2639	0.006633
481.4859	0.006907
481.7078	0.008090
481.9298	0.006696
482.1517	0.006084
482.3737	0.006021
482.5957	0.006950
482.8177	0.006042
483.0398	0.005239
483.2618	0.006063
483.4838	0.004965
483.7059	0.007837
483.9280	0.005999
484.1501	0.005155
484.3721	0.005281
484.5943	0.005260
484.8164	0.005746
485.0385	0.006654
485.2606	0.005134
485.4828	0.005767
485.7050	0.008006
485.9271	0.011089
486.1493	0.017509
486.3715	0.018438
486.5937	0.016284
486.8160	0.011891
487.0382	0.010540
487.2605	0.010075
487.4827	0.008449
487.7050	0.008386
487.9273	0.005471
488.1496	0.005450
488.3719	0.006147
488.5942	0.005302
488.8165	0.005640
489.0389	0.003529
489.2612	0.004880
489.4836	0.003592
489.7060	0.005894
489.9284	0.004796
490.1508	0.004099
490.3732	0.003634
490.5956	0.003043
490.8180	0.003212
491.0405	0.004542
491.2630	0.003993
491.4854	0.004268
491.7079	0.004352
491.9304	0.004120
492.1529	0.003803
492.3755	0.003233
492.5980	0.003085
492.8205	0.004458
493.0431	0.004014
493.2657	0.002832
493.4882	0.003824
493.7108	0.004584
493.9334	0.003381
494.1561	0.003296
494.3787	0.003001
494.6013	0.003486
494.8240	0.001712
495.0466	0.003402
495.2693	0.002557
495.4920	0.003676
495.7147	0.003697
495.9374	0.003993
496.1601	0.003106
496.3829	0.004584
496.6056	0.004204
496.8284	0.003148
497.0511	0.003972
497.2739	0.003043
497.4967	0.004373
497.7195	0.004247
497.9423	0.003634
498.1652	0.004711
498.3880	0.002895
498.6109	0.004183
498.8337	0.002937
499.0566	0.002705
499.2795	0.003486
499.5024	0.004563
499.7253	0.005007
499.9482	0.001649
500.1712	0.002346
500.3941	0.002515
500.6171	0.002515
500.8400	0.002811
501.0630	0.001501
501.2860	0.004500
501.5090	0.003402
501.7320	0.004416
501.9551	0.003697
502.1781	0.002874
502.4012	0.003275
502.6242	0.003296
502.8473	0.004247
503.0704	0.002008
503.2935	0.003402
503.5166	0.004204
503.7397	0.002473
503.9628	0.003951
504.1860	0.001818
504.4092	0.004352
504.6323	0.002557
504.8555	0.002515
505.0787	0.001945
505.3019	0.003444
505.5251	0.003064
505.7483	0.002325
505.9716	0.001839
506.1948	0.003634
506.4181	0.002726
506.6414	0.003106
506.8647	0.003803
507.0880	0.003275
507.3113	0.003423
507.5346	0.004204
507.7579	0.001438
507.9813	0.003402
508.2046	0.002114
508.4280	0.002916
508.6514	0.003022
508.8748	0.002599
509.0982	0.002874
509.3216	0.003212
509.5450	0.002219
509.7685	0.003001
509.9919	0.002409
510.2154	0.003381
510.4388	0.002494
510.6623	0.003170
510.8858	0.003127
511.1093	0.002832
511.3329	0.002346
511.5564	0.002789
511.7799	0.002388
512.0035	0.003148
512.2270	0.001607
512.4506	0.003275
512.6742	0.001163
512.8978	0.002937
513.1214	0.001691
513.3451	0.001121
513.5687	0.001755
513.7923	0.003064
514.0160	0.001543
514.2397	0.004542
514.4634	0.002705
514.6871	0.003064
514.9108	0.003338
515.1345	0.002937
515.3582	0.002979
515.5819	0.002620
515.8057	0.002071
516.0295	0.001649
516.2532	0.002261
516.4770	0.002451
516.7008	0.003085
516.9246	0.003719
517.1485	0.002430
517.3723	0.004479
517.5961	0.002789
517.8200	0.003486
518.0439	0.003317
518.2677	0.004289
518.4916	0.001776
518.7155	0.003761
518.9395	0.001966
519.1634	0.003613
519.3873	0.002979
519.6113	0.004162
519.8352	0.001565
520.0592	0.001670
520.2832	0.002768
520.5072	0.002832
520.7312	0.002916
520.9552	0.002451
521.1792	0.002135
521.4033	0.003338
521.6273	0.002557
521.8514	0.003233
522.0755	0.001839
522.2996	0.003423
522.5237	0.001206
522.7478	0.003296
522.9719	0.003634
523.1960	0.002409
523.4202	0.003296
523.6443	0.002916
523.8685	0.003909
524.0927	0.002789
524.3169	0.004880
524.5411	0.003212
524.7653	0.004268
524.9895	0.004310
525.2138	0.003803
525.4380	0.002599
525.6623	0.002768
525.8865	0.002832
526.1108	0.004204
526.3351	0.003064
526.5594	0.004014
526.7837	0.003423
527.0081	0.003043
527.2324	0.005091
527.4568	0.004901
527.6811	0.003845
527.9055	0.003634
528.1299	0.003845
528.3543	0.004859
528.5787	0.003719
528.8031	0.004627
529.0276	0.005070
529.2520	0.004922
529.4765	0.004711
529.7009	0.004796
529.9254	0.003761
530.1499	0.004817
530.3744	0.003951
530.5989	0.005176
530.8234	0.004563
531.0480	0.004373
531.2725	0.004162
531.4971	0.005281
531.7217	0.003550
531.9462	0.004753
532.1708	0.004711
532.3954	0.005007
532.6200	0.005556
532.8447	0.005366
533.0693	0.004943
533.2940	0.007203
533.5186	0.005640
533.7433	0.006865
533.9680	0.007013
534.1927	0.006527
534.4174	0.006760
534.6421	0.007773
534.8668	0.008956
535.0916	0.008238
535.3163	0.007224
535.5411	0.007794
535.7659	0.006823
535.9907	0.008344
536.2155	0.005788
536.4403	0.007499
536.6651	0.007098
536.8899	0.007076
537.1148	0.007604
537.3396	0.008344
537.5645	0.006105
537.7894	0.007858
538.0143	0.007689
538.2392	0.007393
538.4641	0.008175
538.6890	0.008259
538.9139	0.008090
539.1389	0.008703
539.3638	0.008111
539.5888	0.008808
539.8138	0.008956
540.0388	0.010455
540.2638	0.008871
540.4888	0.009505
540.7138	0.008534
540.9389	0.010434
541.1639	0.011638
541.3890	0.009737
541.6140	0.010793
541.8391	0.011195
542.0642	0.009442
542.2893	0.011575
542.5144	0.011363
542.7396	0.010244
542.9647	0.011195
543.1899	0.012103
543.4150	0.012968
543.6402	0.011701
543.8654	0.010962
544.0906	0.014024
544.3158	0.012166
544.5410	0.013961
544.7662	0.013792
544.9915	0.013834
545.2167	0.014426
545.4420	0.013222
545.6673	0.013475
545.8926	0.014510
546.1179	0.012863
546.3432	0.013792
546.5685	0.013370
546.7938	0.013327
547.0192	0.014088
547.2445	0.015714
547.4699	0.014024
547.6953	0.015228
547.9206	0.014700
548.1460	0.017403
548.3715	0.018311
548.5969	0.018121
548.8223	0.018776
549.0478	0.017002
549.2732	0.018987
549.4987	0.017952
549.7242	0.017847
549.9496	0.018523
550.1751	0.017572
550.4007	0.015650
550.6262	0.015672
550.8517	0.017298
551.0773	0.017002
551.3028	0.018248
551.5284	0.016960
551.7540	0.015650
551.9796	0.016896
552.2052	0.017699
552.4308	0.021015
552.6564	0.021944
552.8820	0.021120
553.1077	0.020761
553.3333	0.018924
553.5590	0.021268
553.7847	0.021374
554.0104	0.022894
554.2361	0.022113
554.4618	0.022429
554.6875	0.020254
554.9132	0.023507
555.1390	0.022577
555.3648	0.022620
555.5905	0.021733
555.8163	0.022789
556.0421	0.023823
556.2679	0.023950
556.4937	0.026167
556.7195	0.025449
556.9454	0.023000
557.1712	0.022620
557.3971	0.023063
557.6230	0.024689
557.8488	0.025386
558.0747	0.024394
558.3006	0.023422
558.5266	0.024541
558.7525	0.024626
558.9784	0.024478
559.2044	0.022852
559.4303	0.023063
559.6563	0.022704
559.8823	0.023422
560.1083	0.022662
560.3343	0.027561
560.5603	0.028955
560.7863	0.029018
561.0124	0.030602
561.2384	0.031257
561.4645	0.032841
561.6905	0.032693
561.9166	0.034636
562.1427	0.033052
562.3688	0.031722
562.5949	0.031553
562.8211	0.029610
563.0472	0.030919
563.2733	0.031553
563.4995	0.032376
563.7257	0.031489
563.9519	0.033855
564.1781	0.034171
564.4043	0.035248
564.6305	0.035819
564.8567	0.036515
565.0829	0.034594
565.3092	0.038817
565.5355	0.038163
565.7617	0.037783
565.9880	0.038120
566.2143	0.036410
566.4406	0.040042
566.6669	0.039493
566.8932	0.039388
567.1196	0.041119
567.3459	0.044393
567.5723	0.047708
567.7987	0.049060
568.0250	0.052756
568.2514	0.050707
568.4778	0.055987
568.7043	0.056219
568.9307	0.061330
569.1571	0.065701
569.3836	0.067391
569.6100	0.071910
569.8365	0.079386
570.0630	0.087791
570.2895	0.094190
570.5160	0.096597
570.7425	0.099110
570.9690	0.098582
571.1956	0.107706
571.4221	0.111570
571.6487	0.121010
571.8752	0.118772
572.1018	0.124917
572.3284	0.128845
572.5550	0.132984
572.7816	0.121116
573.0082	0.113091
573.2349	0.111676
573.4615	0.118877
573.6882	0.135835
573.9149	0.144093
574.1415	0.145550
574.3682	0.149541
574.5949	0.156869
574.8216	0.159593
575.0484	0.163500
575.2751	0.164049
575.5018	0.162592
575.7286	0.162909
575.9554	0.158728
576.1821	0.149858
576.4089	0.149330
576.6357	0.154356
576.8626	0.163078
577.0894	0.170702
577.3162	0.174102
577.5431	0.181324
577.7699	0.182254
577.9968	0.223793
578.2237	0.232938
578.4505	0.230699
578.6774	0.215473
578.9044	0.199571
579.1313	0.191313
579.3582	0.180691
579.5851	0.185844
579.8121	0.188610
580.0391	0.197923
580.2660	0.201387
580.4930	0.200817
580.7200	0.196551
580.9470	0.188209
581.1741	0.194544
581.4011	0.227721
581.6281	0.275808
581.8552	0.301678
582.0822	0.307570
582.3093	0.305754
582.5364	0.290823
582.7635	0.272577
582.9906	0.247742
583.2177	0.226454
583.4449	0.214079
583.6720	0.200289
583.8991	0.185991
584.1263	0.185168
584.3535	0.185421
584.5807	0.194713
584.8079	0.190131
585.0351	0.203794
585.2623	0.215008
585.4895	0.227151
585.7167	0.226581
585.9440	0.223751
586.1713	0.218218
586.3985	0.207701
586.6258	0.198071
586.8531	0.188589
587.0804	0.196910
587.3077	0.206307
587.5350	0.214628
587.7624	0.222991
587.9897	0.217838
588.2171	0.208292
588.4445	0.194523
588.6718	0.194122
588.8992	0.190088
589.1266	0.180627
589.3540	0.173489
589.5815	0.157820
589.8089	0.159762
590.0363	0.153680
590.2638	0.155518
590.4913	0.151315
590.7187	0.140883
590.9462	0.142107
591.1737	0.135519
591.4012	0.128000
591.6288	0.124664
591.8563	0.128676
592.0838	0.127557
592.3114	0.124452
592.5389	0.130661
592.7665	0.141917
592.9941	0.177080
593.2217	0.190300
593.4493	0.193446
593.6769	0.194375
593.9046	0.193320
594.1322	0.183246
594.3598	0.176552
594.5875	0.163923
594.8152	0.166182
595.0429	0.175306
595.2705	0.185949
595.4983	0.191419
595.7260	0.185062
595.9537	0.179339
596.1814	0.168146
596.4092	0.160016
596.6369	0.148506
596.8647	0.139594
597.0925	0.138454
597.3203	0.140207
597.5481	0.146732
597.7759	0.145867
598.0037	0.146035
598.2315	0.138391
598.4594	0.136680
598.6872	0.137419
598.9151	0.147281
599.1430	0.170765
599.3709	0.180289
599.5988	0.176594
599.8267	0.173088
600.0546	0.169097
600.2825	0.176868
600.5105	0.178283
600.7384	0.180775
600.9664	0.176087
601.1944	0.180353
601.4223	0.179339
601.6503	0.175411
601.8783	0.169857
602.1064	0.167154
602.3344	0.165443
602.5624	0.160269
602.7905	0.163923
603.0185	0.166753
603.2466	0.169245
603.4747	0.174672
603.7028	0.179403
603.9309	0.183225
604.1590	0.176911
604.3871	0.169477
604.6152	0.164810
604.8434	0.157249
605.0715	0.153976
605.2997	0.155729
605.5279	0.155602
605.7561	0.157207
605.9843	0.164387
606.2125	0.171969
606.4407	0.166900
606.6689	0.159678
606.8972	0.154863
607.1254	0.153786
607.3537	0.153448
607.5819	0.156278
607.8102	0.157904
608.0385	0.154969
608.2668	0.154272
608.4951	0.148865
608.7235	0.142699
608.9518	0.141242
609.1801	0.141326
609.4085	0.133766
609.6369	0.130429
609.8653	0.130239
610.0936	0.137567
610.3220	0.144747
610.5505	0.146880
610.7789	0.143417
611.0073	0.137799
611.2357	0.136553
611.4642	0.135138
611.6927	0.135392
611.9211	0.135856
612.1496	0.139320
612.3781	0.132836
612.6066	0.127726
612.8351	0.124178
613.0637	0.127071
613.2922	0.125698
613.5208	0.123502
613.7493	0.123016
613.9779	0.125720
614.2065	0.128887
614.4351	0.126121
614.6637	0.125339
614.8923	0.125931
615.1209	0.126184
615.3495	0.125529
615.5782	0.125931
615.8068	0.129605
616.0355	0.129077
616.2642	0.123397
616.4929	0.118159
616.7216	0.111127
616.9503	0.111549
617.1790	0.107832
617.4077	0.107621
617.6365	0.107769
617.8652	0.108318
618.0940	0.106671
618.3227	0.108529
618.5515	0.107431
618.7803	0.101666
619.0091	0.097611
619.2379	0.091318
619.4667	0.089713
619.6956	0.088340
619.9244	0.088023
620.1533	0.090473
620.3821	0.094169
620.6110	0.096449
620.8399	0.093852
621.0688	0.088150
621.2977	0.080040
621.5266	0.074148
621.7556	0.072142
621.9845	0.075352
622.2135	0.079829
622.4424	0.079513
622.6714	0.080273
622.9004	0.084623
623.1294	0.083631
623.3584	0.088340
623.5874	0.087981
623.8164	0.089861
624.0454	0.086651
624.2745	0.081265
624.5035	0.085658
624.7326	0.087052
624.9617	0.089058
625.1908	0.086587
625.4199	0.086798
625.6490	0.082342
625.8781	0.081941
626.1072	0.078182
626.3364	0.076239
626.5655	0.075394
626.7947	0.073135
627.0238	0.071276
627.2530	0.067602
627.4822	0.069566
627.7114	0.070791
627.9406	0.068109
628.1698	0.066715
628.3991	0.065152
628.6283	0.060485
628.8576	0.059323
629.0868	0.056156
629.3161	0.060105
629.5454	0.060253
629.7747	0.059830
630.0040	0.063188
630.2333	0.060126
630.4626	0.059640
630.6920	0.059661
630.9213	0.057676
631.1507	0.055902
631.3801	0.054593
631.6094	0.053220
631.8388	0.050306
632.0682	0.051066
632.2976	0.049271
632.5271	0.051742
632.7565	0.046441
632.9859	0.047096
633.2154	0.045174
633.4448	0.044329
633.6743	0.042935
633.9038	0.044012
634.1333	0.043147
634.3628	0.043506
634.5923	0.043527
634.8218	0.040296
635.0514	0.039007
635.2809	0.040887
635.5105	0.040338
635.7400	0.040612
635.9696	0.040359
636.1992	0.044012
636.4288	0.041521
636.6584	0.046526
636.8880	0.045850
637.1177	0.042048
637.3473	0.044245
637.5770	0.040697
637.8066	0.041077
638.0363	0.038416
638.2660	0.043252
638.4957	0.039958
638.7254	0.043738
638.9551	0.040190
639.1848	0.043358
639.4145	0.039155
639.6443	0.040321
639.8740	0.038651
640.1038	0.039077
640.3336	0.040062
640.5633	0.035830
640.7931	0.036428
641.0229	0.036439
641.2528	0.035516
641.4826	0.032744
641.7124	0.032971
641.9423	0.032390
642.1721	0.031067
642.4020	0.030666
642.6319	0.029090
642.8617	0.029578
643.0916	0.028687
643.3216	0.029056
643.5515	0.029772
643.7814	0.029865
644.0113	0.028013
644.2413	0.029051
644.4712	0.027048
644.7012	0.027065
644.9312	0.026462
645.1612	0.026638
645.3912	0.026530
645.6212	0.024798
645.8512	0.024640
646.0812	0.027114
646.3113	0.025647
646.5413	0.025201
646.7714	0.025413
647.0015	0.024760
647.2316	0.024654
647.4616	0.023361
647.6918	0.022271
647.9219	0.022560
648.1520	0.028758
648.3821	0.028640
648.6123	0.030064
648.8424	0.031922
649.0726	0.031783
649.3028	0.032510
649.5329	0.033508
649.7631	0.033475
649.9933	0.030908
650.2236	0.030441
650.4538	0.029784
650.6840	0.029340
650.9143	0.027083
651.1445	0.029321
651.3748	0.027910
651.6051	0.027932
651.8354	0.027728
652.0657	0.029732
652.2960	0.030182
652.5263	0.031309
652.7566	0.030795
652.9870	0.033197
653.2173	0.029940
653.4477	0.034336
653.6780	0.031750
653.9084	0.031073
654.1388	0.032199
654.3692	0.031316
654.5996	0.033414
654.8300	0.036435
655.0605	0.037970
655.2909	0.064887
655.5213	0.186841
655.7518	0.521391
655.9823	0.930684
656.2128	1.000000
656.4433	1.000000
656.6738	1.000000
656.9043	1.000000
657.1348	1.000000
657.3653	0.861034
657.5959	0.700431
657.8264	0.594927
658.0570	0.528332
658.2875	0.478853
658.5181	0.439692
658.7487	0.406353
658.9793	0.378403
659.2099	0.367735
659.4406	0.326522
659.6712	0.256306
659.9018	0.165762
660.1325	0.095988
660.3632	0.059134
660.5938	0.039802
660.8245	0.032201
661.0552	0.024177
661.2859	0.024659
661.5166	0.023642
661.7474	0.023688
661.9781	0.020950
662.2088	0.022021
662.4396	0.020250
662.6704	0.022157
662.9011	0.021585
663.1319	0.020578
663.3627	0.020321
663.5935	0.021763
663.8243	0.019919
664.0552	0.020657
664.2860	0.021269
664.5168	0.020640
664.7477	0.022704
664.9786	0.021983
665.2094	0.022219
665.4403	0.024537
665.6712	0.024018
665.9021	0.021449
666.1330	0.024392
666.3640	0.023270
666.5949	0.021793
666.8259	0.021297
667.0568	0.020350
667.2878	0.020952
667.5188	0.021416
667.7497	0.021056
667.9807	0.021189
668.2117	0.019610
668.4428	0.019135
668.6738	0.021479
668.9048	0.019853
669.1359	0.020170
669.3669	0.019325
669.5980	0.021817
669.8291	0.019262
670.0602	0.022873
670.2913	0.020993
670.5224	0.022957
670.7535	0.022155
670.9846	0.021416
671.2157	0.021247
671.4469	0.023697
671.6781	0.024457
671.9092	0.028047
672.1404	0.029863
672.3716	0.030602
672.6028	0.033327
672.8340	0.034678
673.0652	0.033707
673.2964	0.030497
673.5277	0.031489
673.7589	0.029905
673.9902	0.029124
674.2214	0.028659
674.4527	0.026611
674.6840	0.029673
674.9153	0.026991
675.1466	0.027054
675.3779	0.026252
675.6093	0.025513
675.8406	0.024182
676.0719	0.025872
676.3033	0.025766
676.5347	0.024562
676.7661	0.025323
676.9974	0.025851
677.2288	0.023084
677.4602	0.024541
677.6917	0.024499
677.9231	0.025872
678.1545	0.028659
678.3860	0.028723
678.6174	0.026231
678.8489	0.030623
679.0804	0.031595
679.3119	0.030856
679.5434	0.032735
679.7749	0.033643
680.0064	0.035058
680.2379	0.033622
680.4694	0.036072
680.7010	0.034214
680.9325	0.032355
681.1641	0.033517
681.3957	0.034530
681.6273	0.035692
681.8589	0.035882
682.0905	0.033094
682.3221	0.032799
682.5537	0.033284
682.7854	0.031025
683.0170	0.029842
683.2487	0.031130
683.4803	0.028723
683.7120	0.030581
683.9437	0.031405
684.1754	0.031067
684.4071	0.033559
684.6388	0.034868
684.8705	0.037571
685.1023	0.039155
685.3340	0.041056
685.5658	0.043252
685.7975	0.045005
686.0293	0.043696
686.2611	0.045364
686.4929	0.043358
686.7247	0.043062
686.9565	0.042492
687.1883	0.041816
687.4202	0.043168
687.6520	0.042196
687.8838	0.042999
688.1157	0.041373
688.3476	0.040422
688.5795	0.038057
688.8114	0.037930
689.0433	0.036853
689.2752	0.037888
689.5071	0.035713
689.7390	0.036537
689.9710	0.034087
690.2029	0.034256
690.4349	0.034446
690.6669	0.035058
690.8988	0.033812
691.1308	0.035713
691.3628	0.038268
691.5948	0.038796
691.8269	0.038501
692.0589	0.035248
692.2909	0.038289
692.5230	0.035671
692.7550	0.038501
692.9871	0.034995
693.2192	0.037635
693.4513	0.038754
693.6834	0.039451
693.9155	0.036853
694.1476	0.035797
694.3797	0.035460
694.6119	0.033559
694.8440	0.032904
695.0762	0.034002
695.3083	0.033876
695.5405	0.034784
695.7727	0.030180
696.0049	0.029441
696.2371	0.031067
696.4693	0.030053
696.7016	0.030813
696.9338	0.035797
697.1660	0.040612
697.3983	0.039282
697.6306	0.036579
697.8628	0.039050
698.0951	0.038311
698.3274	0.036980
698.5597	0.038796
698.7920	0.038332
699.0243	0.037740
699.2567	0.036220
699.4890	0.035037
699.7214	0.036621
699.9537	0.036072
700.1861	0.031130
700.4185	0.031658
700.6509	0.031658
700.8833	0.030476
701.1157	0.029969
701.3481	0.028828
701.5806	0.029969
701.8130	0.028047
702.0454	0.029905
702.2779	0.029905
702.5104	0.030011
702.7429	0.031447
702.9753	0.030180
703.2078	0.029377
703.4403	0.029631
703.6729	0.030391
703.9054	0.026315
704.1379	0.029335
704.3705	0.025597
704.6030	0.028322
704.8356	0.027329
705.0682	0.027371
705.3008	0.023612
705.5334	0.024415
705.7660	0.023570
705.9986	0.024267
706.2312	0.023950
706.4638	0.025851
706.6965	0.029969
706.9291	0.033474
707.1618	0.034573
707.3945	0.033474
707.6272	0.038268
707.8599	0.038733
708.0926	0.038163
708.3253	0.037571
708.5580	0.037740
708.7907	0.035079
709.0235	0.036368
709.2562	0.036262
709.4890	0.035607
709.7217	0.034636
709.9545	0.033348
710.1873	0.034974
710.4201	0.035544
710.6529	0.034636
710.8857	0.036811
711.1186	0.034340
711.3514	0.031257
711.5842	0.031025
711.8171	0.030328
712.0500	0.028807
712.2828	0.028955
712.5157	0.027413
712.7486	0.027941
712.9815	0.027836
713.2144	0.029018
713.4474	0.030222
713.6803	0.030539
713.9132	0.033073
714.1462	0.033939
714.3791	0.032904
714.6121	0.034657
714.8451	0.034720
715.0781	0.032904
715.3111	0.035375
715.5441	0.034678
715.7771	0.032989
716.0102	0.034657
716.2432	0.035206
716.4762	0.029525
716.7093	0.029694
716.9424	0.028871
717.1754	0.028237
717.4085	0.027857
717.6416	0.028702
717.8747	0.026315
718.1078	0.026231
718.3410	0.029715
718.5741	0.028575
718.8072	0.027751
719.0404	0.028237
719.2736	0.028322
719.5067	0.030476
719.7399	0.028533
719.9731	0.029272
720.2063	0.029356
720.4395	0.029230
720.6727	0.026970
720.9060	0.028195
721.1392	0.031827
721.3725	0.028237
721.6057	0.028617
721.8390	0.028596
722.0723	0.028469
722.3055	0.028744
722.5388	0.028849
722.7721	0.028216
723.0055	0.027097
723.2388	0.028322
723.4721	0.028406
723.7055	0.028343
723.9388	0.027097
724.1722	0.027688
724.4056	0.026590
724.6389	0.027836
724.8723	0.027561
725.1057	0.026252
725.3391	0.028533
725.5726	0.030433
725.8060	0.031996
726.0394	0.031405
726.2729	0.033749
726.5063	0.032503
726.7398	0.035819
726.9733	0.033622
727.2068	0.032545
727.4403	0.033010
727.6738	0.029652
727.9073	0.032355
728.1408	0.033812
728.3743	0.033031
728.6079	0.031363
728.8414	0.034129
729.0750	0.031848
729.3086	0.032946
729.5421	0.034404
729.7757	0.034699
730.0093	0.036410
730.2429	0.036093
730.4766	0.035122
730.7102	0.038142
730.9438	0.039747
731.1775	0.039472
731.4111	0.042091
731.6448	0.045090
731.8785	0.043337
732.1122	0.042555
732.3458	0.041880
732.5795	0.041647
732.8133	0.039789
733.0470	0.042745
733.2807	0.043759
733.5145	0.042555
733.7482	0.041795
733.9820	0.045237
734.2157	0.048046
734.4495	0.049208
734.6833	0.050665
734.9171	0.049926
735.1509	0.045998
735.3847	0.047370
735.6185	0.046885
735.8524	0.049250
736.0862	0.048870
736.3201	0.047645
736.5539	0.048468
736.7878	0.047286
737.0217	0.047159
737.2556	0.050137
737.4895	0.047877
737.7234	0.046040
737.9573	0.045237
738.1912	0.042513
738.4252	0.042576
738.6591	0.041373
738.8931	0.038817
739.1271	0.040739
739.3610	0.044372
739.5950	0.046188
739.8290	0.045660
740.0630	0.044583
740.2970	0.042217
740.5310	0.038838
740.7651	0.040634
740.9991	0.038479
741.2332	0.037065
741.4672	0.035819
741.7013	0.033939
741.9354	0.035122
742.1695	0.034298
742.4036	0.032820
742.6377	0.033749
742.8718	0.034277
743.1059	0.033876
743.3400	0.033686
743.5742	0.031299
743.8083	0.029905
744.0425	0.030666
744.2767	0.029314
744.5108	0.030159
744.7450	0.028490
744.9792	0.027963
745.2134	0.028469
745.4477	0.027688
745.6819	0.028343
745.9161	0.027519
746.1504	0.028871
746.3846	0.026526
746.6189	0.028448
746.8532	0.027329
747.0874	0.028786
747.3217	0.028490
747.5560	0.032397
747.7903	0.031278
748.0247	0.029905
748.2590	0.029863
748.4933	0.028469
748.7277	0.030602
748.9620	0.029462
749.1964	0.027118
749.4308	0.030645
749.6652	0.032714
749.8995	0.034509
750.1339	0.036579
750.3684	0.038944
750.6028	0.040950
750.8372	0.040486
751.0717	0.039578
751.3061	0.038564
751.5406	0.036769
751.7750	0.037846
752.0095	0.040929
752.2440	0.040211
752.4785	0.037466
752.7130	0.038015
752.9475	0.036325
753.1820	0.036051
753.4166	0.035988
753.6511	0.036473
753.8856	0.039282
754.1202	0.042809
754.3548	0.042851
754.5894	0.040507
754.8239	0.039578
755.0585	0.039366
755.2931	0.039768
755.5278	0.042534
755.7624	0.041056
755.9970	0.041352
756.2317	0.045322
756.4663	0.044667
756.7010	0.044097
756.9356	0.051298
757.1703	0.050242
757.4050	0.051678
757.6397	0.058331
757.8744	0.058901
758.1091	0.057972
758.3438	0.058901
758.5786	0.054741
758.8133	0.052164
759.0481	0.053051
759.2828	0.053748
759.5176	0.059070
759.7524	0.061076
759.9872	0.060464
760.2220	0.060168
760.4568	0.063188
760.6916	0.061752
760.9264	0.064286
761.1613	0.060928
761.3961	0.060949
761.6310	0.060738
761.8658	0.056388
762.1007	0.051066
762.3356	0.050538
762.5705	0.049651
762.8054	0.048321
763.0403	0.050939
763.2752	0.046885
763.5101	0.049208
763.7450	0.049947
763.9800	0.048764
764.2149	0.049989
764.4499	0.052080
764.6849	0.056029
764.9198	0.056810
765.1548	0.058542
765.3898	0.056451
765.6248	0.056303
765.8599	0.053980
766.0949	0.051573
766.3299	0.049165
766.5650	0.046547
766.8000	0.043569
767.0351	0.041478
767.2701	0.038923
767.5052	0.039493
767.7403	0.036431
767.9754	0.039789
768.2105	0.042344
768.4456	0.042027
768.6808	0.044414
768.9159	0.046568
769.1510	0.048109
769.3862	0.047729
769.6214	0.047835
769.8565	0.045491
770.0917	0.044245
770.3269	0.045406
770.5621	0.044266
770.7973	0.045913
771.0325	0.046927
771.2677	0.046800
771.5030	0.048215
771.7382	0.045596
771.9735	0.044752
772.2087	0.041457
772.4440	0.039493
772.6793	0.040465
772.9146	0.040549
773.1499	0.042344
773.3852	0.037740
773.6205	0.038733
773.8558	0.038437
774.0911	0.039958
774.3265	0.034742
774.5618	0.035840
774.7972	0.034383
775.0326	0.033158
775.2679	0.029335
775.5033	0.030602
775.7387	0.027688
775.9741	0.029293
776.2095	0.026674
776.4450	0.026801
776.6804	0.025154
776.9158	0.025449
777.1513	0.022852
777.3868	0.023591
777.6222	0.023675
777.8577	0.024077
778.0932	0.025703
778.3287	0.024626
778.5642	0.026484
778.7997	0.026336
779.0352	0.026294
779.2707	0.029905
779.5063	0.029779
779.7418	0.030940
779.9774	0.029652
780.2130	0.028512
780.4485	0.028343
780.6841	0.026717
780.9197	0.029546
781.1553	0.029673
781.3909	0.030877
781.6265	0.034171
781.8622	0.032123
782.0978	0.035650
782.3335	0.033179
782.5691	0.035882
782.8048	0.034108
783.0405	0.034256
783.2761	0.033348
783.5118	0.034298
783.7475	0.033115
783.9832	0.032102
784.2190	0.032355
784.4547	0.031025
784.6904	0.030053
784.9262	0.029863
785.1619	0.027456
785.3977	0.027794
785.6335	0.027181
785.8692	0.030602
786.1050	0.027435
786.3408	0.026864
786.5766	0.026442
786.8124	0.028322
787.0483	0.027160
787.2841	0.027435
787.5199	0.027920
787.7558	0.030476
787.9917	0.028997
788.2275	0.029377
788.4634	0.028089
788.6993	0.028153
788.9352	0.029884
789.1711	0.031532
789.4070	0.031447
789.6429	0.028279
789.8789	0.026907
790.1148	0.027244
790.3507	0.025006
790.5867	0.024288
790.8227	0.025999
791.0586	0.025872
791.2946	0.023021
791.5306	0.020613
791.7666	0.023359
792.0026	0.025597
792.2387	0.024056
792.4747	0.023316
792.7107	0.022155
792.9468	0.022936
793.1828	0.021205
793.4189	0.021352
793.6550	0.022641
793.8910	0.023591
794.1271	0.024858
794.3632	0.028765
794.5993	0.030328
794.8355	0.029863
795.0716	0.031785
795.3077	0.030581
795.5439	0.032778
795.7800	0.031553
796.0162	0.027857
796.2523	0.027308
796.4885	0.024858
796.7247	0.022873
796.9609	0.019262
797.1971	0.021015
797.4333	0.022366
797.6695	0.022387
797.9058	0.021416
798.1420	0.024056
798.3783	0.021416
798.6145	0.022134
798.8508	0.021923
799.0871	0.022894
799.3233	0.022324
799.5596	0.021838
799.7959	0.022957
800.0322	0.020381
800.2686	0.020106
800.5049	0.017530
800.7412	0.018818
800.9776	0.019029
801.2139	0.018713
801.4503	0.020318
801.6867	0.017868
801.9230	0.017298
802.1594	0.017213
802.3958	0.015017
802.6322	0.016432
802.8686	0.016326
803.1051	0.016157
803.3415	0.016812
803.5779	0.017636
803.8144	0.018185
804.0508	0.017847
804.2873	0.018586
804.5238	0.016685
804.7603	0.016453
804.9968	0.017720
805.2333	0.017192
805.4698	0.016073
805.7063	0.018649
805.9428	0.018480
806.1794	0.019431
806.4159	0.021606
806.6525	0.022324
806.8890	0.024330
807.1256	0.023401
807.3622	0.024562
807.5988	0.024330
807.8354	0.022366
808.0720	0.022725
808.3086	0.020803
808.5452	0.022303
808.7818	0.023612
809.0185	0.022556
809.2551	0.020360
809.4918	0.022810
809.7284	0.021184
809.9651	0.019579
810.2018	0.019916
810.4385	0.019051
810.6752	0.019325
810.9119	0.019726
811.1486	0.018839
811.3853	0.017150
811.6221	0.018417
811.8588	0.018692
812.0956	0.017488
812.3323	0.016390
812.5691	0.015482
812.8059	0.013855
813.0427	0.011659
813.2795	0.013475
813.5163	0.014510
813.7531	0.016601
813.9899	0.018142
814.2267	0.017889
814.4636	0.018692
814.7004	0.018396
814.9373	0.018670
815.1742	0.017931
815.4110	0.015629
815.6479	0.015650
815.8848	0.014616
816.1217	0.013792
816.3586	0.013877
816.5955	0.012103
816.8324	0.014088
817.0694	0.014130
817.3063	0.013454
817.5433	0.014827
817.7802	0.013032
818.0172	0.014172
818.2542	0.014003
818.4912	0.015291
818.7282	0.013243
818.9652	0.013095
819.2022	0.012483
819.4392	0.011110
819.6762	0.012609
819.9133	0.010878
820.1503	0.012800
820.3874	0.012166
820.6244	0.014172
820.8615	0.014616
821.0986	0.016685
821.3357	0.015946
821.5727	0.011891
821.8099	0.013496
822.0470	0.014067
822.2841	0.013496
822.5212	0.013201
822.7584	0.012546
822.9955	0.013370
823.2327	0.012272
823.4698	0.013750
823.7070	0.011385
823.9442	0.011279
824.1814	0.011659
824.4186	0.012166
824.6558	0.010941
824.8930	0.010540
825.1302	0.009927
825.3675	0.011321
825.6047	0.012250
825.8419	0.011976
826.0792	0.014468
826.3165	0.012905
826.5537	0.011554
826.7910	0.012884
827.0283	0.012124
827.2656	0.011786
827.5029	0.013813
827.7402	0.014172
827.9776	0.015460
828.2149	0.012715
828.4522	0.011152
828.6896	0.011089
828.9270	0.012145
829.1643	0.011891
829.4017	0.013243
829.6391	0.013349
829.8765	0.013095
830.1139	0.011258
830.3513	0.010265
830.5887	0.011131
830.8261	0.010350
831.0636	0.009801
831.3010	0.010033
831.5385	0.008555
831.7759	0.009611
832.0134	0.006865
832.2509	0.006548
832.4884	0.009421
832.7259	0.008745
832.9634	0.007985
833.2009	0.009547
833.4384	0.008829
833.6759	0.008639
833.9135	0.008681
834.1510	0.009991
834.3886	0.010498
834.6261	0.009273
834.8637	0.010265
835.1013	0.009822
835.3389	0.010624
835.5765	0.011110
835.8141	0.009547
836.0517	0.009378
836.2893	0.009230
836.5269	0.008576
836.7646	0.009315
837.0022	0.008344
837.2399	0.006865
837.4775	0.006422
837.7152	0.007457
837.9529	0.005978
838.1906	0.006021
838.4283	0.004986
838.6660	0.007710
838.9037	0.005302
839.1414	0.007330
839.3791	0.006042
839.6169	0.007288
839.8546	0.008597
840.0924	0.006485
840.3302	0.007034
840.5679	0.006992
840.8057	0.006907
841.0435	0.006105
841.2813	0.006612
841.5191	0.006823
841.7569	0.005661
841.9947	0.005429
842.2326	0.006042
842.4704	0.006401
842.7082	0.004838
842.9461	0.006084
843.1840	0.004310
843.4218	0.005239
843.6597	0.005915
843.8976	0.004352
844.1355	0.004690
844.3734	0.006211
844.6113	0.004225
844.8492	0.006464
845.0872	0.004437
845.3251	0.005978
845.5631	0.005725
845.8010	0.004289
846.0390	0.005493
846.2770	0.005239
846.5149	0.005366
846.7529	0.003170
846.9909	0.003888
847.2289	0.006126
847.4669	0.004204
847.7050	0.005176
847.9430	0.004394
848.1810	0.004986
848.4191	0.003845
848.6571	0.005788
848.8952	0.004796
849.1333	0.004542
849.3713	0.005239
849.6094	0.004796
849.8475	0.004606
850.0856	0.005324
850.3237	0.003909
850.5619	0.004437
850.8000	0.004753
851.0381	0.004268
851.2763	0.003381
851.5144	0.004817
851.7526	0.006105
851.9908	0.003697
852.2289	0.004437
852.4671	0.005661
852.7053	0.005830
852.9435	0.007963
853.1817	0.009632
853.4200	0.011068
853.6582	0.011701
853.8964	0.013180
854.1347	0.012229
854.3729	0.013454
854.6112	0.013982
854.8495	0.012990
855.0877	0.013391
855.3260	0.013665
855.5643	0.014299
855.8026	0.011216
856.0409	0.010286
856.2792	0.013201
856.5176	0.011554
856.7559	0.011765
856.9942	0.009927
857.2326	0.013771
857.4710	0.009484
857.7093	0.010772
857.9477	0.009336
858.1861	0.010498
858.4245	0.010012
858.6629	0.010645
858.9013	0.007710
859.1397	0.011934
859.3781	0.008027
859.6166	0.008365
859.8550	0.008871
860.0935	0.009378
860.3319	0.007837
860.5704	0.009442
860.8089	0.008344
861.0473	0.007900
861.2858	0.006021
861.5243	0.006717
861.7628	0.005471
862.0013	0.007266
862.2399	0.006950
862.4784	0.006189
862.7169	0.005134
862.9555	0.004289
863.1940	0.006358
863.4326	0.007626
863.6712	0.006760
863.9098	0.007076
864.1483	0.005640
864.3869	0.006675
864.6255	0.005408
864.8642	0.006823
865.1028	0.005134
865.3414	0.006168
865.5800	0.004247
865.8187	0.005767
866.0573	0.005007
866.2960	0.006950
866.5347	0.003592
866.7733	0.004204
867.0120	0.005471
867.2507	0.004247
867.4894	0.005746
867.7281	0.003571
867.9669	0.004775
868.2056	0.005894
868.4443	0.004796
868.6831	0.006844
868.9218	0.005809
869.1606	0.004373
869.3993	0.004584
869.6381	0.003444
869.8769	0.004099
870.1157	0.004479
870.3545	0.004373
870.5933	0.005324
870.8321	0.004711
871.0709	0.005598
871.3097	0.006232
871.5486	0.004775
871.7874	0.004542
872.0263	0.005493
872.2651	0.004563
872.5040	0.005936
872.7429	0.005028
872.9818	0.004690
873.2207	0.003571
873.4596	0.005028
873.6985	0.004542
873.9374	0.004331
874.1763	0.004542
874.4153	0.005471
874.6542	0.005049
874.8932	0.005577
875.1321	0.003782
875.3711	0.006084
875.6101	0.004901
875.8491	0.005704
876.0880	0.006042
876.3270	0.007013
876.5661	0.005640
876.8051	0.003571
877.0441	0.004141
877.2831	0.004753
877.5222	0.006189
877.7612	0.005598
878.0003	0.007076
878.2393	0.005999
878.4784	0.006950
878.7175	0.005450
878.9566	0.007203
879.1957	0.007710
879.4348	0.005514
879.6739	0.006654
879.9130	0.008196
880.1521	0.006950
880.3913	0.007457
880.6304	0.010075
880.8696	0.008344
881.1087	0.007837
881.3479	0.008449
881.5871	0.007752
881.8262	0.007330
882.0654	0.008175
882.3046	0.006189
882.5438	0.007309
882.7831	0.005239
883.0223	0.006316
883.2615	0.004648
883.5007	0.004943
883.7400	0.006654
883.9792	0.004162
884.2185	0.005535
884.4578	0.004268
884.6971	0.005725
884.9363	0.004880
885.1756	0.005324
885.4149	0.005788
885.6542	0.007731
885.8936	0.004817
886.1329	0.007266
886.3722	0.006126
886.6116	0.006211
886.8509	0.005809
887.0903	0.005978
887.3296	0.004711
887.5690	0.005936
887.8084	0.004204
888.0478	0.005429
888.2872	0.006105
888.5266	0.004669
888.7660	0.004416
889.0054	0.004331
889.2448	0.004817
889.4843	0.004204
889.7237	0.003613
889.9632	0.005450
890.2026	0.004922
890.4421	0.004669
890.6816	0.004268
890.9211	0.004289
891.1606	0.004310
891.4001	0.004162
891.6396	0.004479
891.8791	0.005176
892.1186	0.004437
892.3581	0.004711
892.5977	0.004289
892.8372	0.004711
893.0768	0.006570
893.3163	0.003465
893.5559	0.004014
893.7955	0.006316
894.0351	0.005978
894.2747	0.004563
894.5143	0.003824
894.7539	0.003655
894.9935	0.005091
895.2331	0.003592
895.4727	0.003296
895.7124	0.004289
895.9520	0.003381
896.1917	0.005556
896.4314	0.004035
896.6710	0.005999
896.9107	0.004141
897.1504	0.005767
897.3901	0.003127
897.6298	0.005598
897.8695	0.004796
898.1092	0.005408
898.3489	0.002768
898.5887	0.004669
898.8284	0.003888
899.0682	0.004859
899.3079	0.004331
899.5477	0.003529
899.7875	0.004458
900.0272	0.004352
900.2670	0.003529
900.5068	0.004373
900.7466	0.003106
900.9864	0.004204
901.2263	0.004838
901.4661	0.004373
901.7059	0.005345
901.9458	0.004922
902.1856	0.004120
902.4255	0.004120
902.6654	0.004078
902.9052	0.003697
903.1451	0.002473
903.3850	0.004120
903.6249	0.002874
903.8648	0.004416
904.1047	0.004183
904.3446	0.004162
904.5846	0.005260
904.8245	0.004669
905.0644	0.003845
905.3044	0.003106
905.5444	0.004225
905.7843	0.003866
906.0243	0.006464
906.2643	0.004437
906.5043	0.003803
906.7443	0.004479
906.9843	0.003951
907.2243	0.004965
907.4643	0.003233
907.7043	0.004204
907.9444	0.003148
908.1844	0.003106
908.4245	0.005387
908.6645	0.002388
908.9046	0.004035
909.1447	0.002832
909.3847	0.002663
909.6248	0.004880
909.8649	0.003402
910.1050	0.001987
910.3452	0.003719
910.5853	0.003402
910.8254	0.003022
911.0655	0.004310
911.3057	0.004120
911.5458	0.002958
911.7860	0.002494
912.0262	0.003803
912.2663	0.003486
912.5065	0.004796
912.7467	0.003803
912.9869	0.005007
913.2271	0.001797
913.4673	0.003930
913.7075	0.003296
913.9478	0.003571
914.1880	0.003676
914.4283	0.002599
914.6685	0.002789
914.9088	0.004479
915.1490	0.000678
915.3893	0.003170
915.6296	0.003529
915.8699	0.003972
916.1102	0.002979
916.3505	0.003106
916.5908	0.003613
916.8311	0.003761
917.0714	0.002092
917.3118	0.004584
917.5521	0.004310
917.7925	0.004183
918.0328	0.004796
918.2732	0.004078
918.5136	0.002599
918.7539	0.004416
918.9943	0.002874
919.2347	0.003782
919.4751	0.003022
919.7155	0.004014
919.9560	0.003824
920.1964	0.003106
920.4368	0.004627
920.6773	0.004225
920.9177	0.001797
921.1582	0.003550
921.3986	0.004690
921.6391	0.003296
921.8796	0.001881
922.1201	0.004225
922.3606	0.002304
922.6011	0.003529
922.8416	0.003402
923.0821	0.002768
923.3226	0.003613
923.5631	0.002092
923.8037	0.002937
924.0442	0.002832
924.2848	0.001902
924.5254	0.002388
924.7659	0.002177
925.0065	0.002874
925.2471	0.001733
925.4877	0.002409
925.7283	0.002071
925.9689	0.001924
926.2095	0.001586
926.4501	0.003972
926.6908	0.003486
926.9314	0.001755
927.1720	0.002642
927.4127	0.001353
927.6533	0.003402
927.8940	0.002367
928.1347	0.001839
928.3754	0.002937
928.6161	0.002283
928.8568	0.002895
929.0975	0.002663
929.3382	0.003148
929.5789	0.001902
929.8196	0.002240
930.0604	-0.000294
930.3011	0.003275
930.5419	0.001860
930.7826	0.001501
931.0234	0.002219
931.2642	0.002008
931.5049	0.002283
931.7457	0.002726
931.9865	0.000699
932.2273	0.002325
932.4681	0.001945
932.7089	0.001480
932.9498	0.002473
933.1906	0.002114
933.4314	0.002832
933.6723	0.001945
933.9131	0.002346
934.1540	0.000783
934.3949	0.002135
934.6358	0.002684
934.8766	0.001227
935.1175	0.002008
935.3584	0.002261
935.5993	0.002578
935.8403	0.000994
936.0812	0.000741
936.3221	-0.000421
936.5630	0.001163
936.8040	0.000656
937.0449	0.001353
937.2859	0.000213
937.5269	0.001691
937.7678	0.001839
938.0088	0.001290
938.2498	0.000889
938.4908	0.002494
938.7318	0.002958
938.9728	0.000530
939.2138	0.000846
939.4549	0.001269
939.6959	0.002177
939.9369	0.002071
940.1780	0.002726
940.4190	0.000382
940.6601	0.000846
940.9012	0.000107
941.1422	0.001290
941.3833	0.002747
941.6244	0.002156
941.8655	0.001945
942.1066	0.000868
942.3477	0.001818
942.5889	0.001586
942.8300	0.001058
943.0711	0.001311
943.3123	0.000361
943.5534	0.001607
943.7946	0.002135
944.0357	0.000952
944.2769	0.000150
944.5181	0.001797
944.7593	0.000973
945.0005	0.001733
945.2417	0.000192
945.4829	0.001522
945.7241	0.000762
945.9653	0.001311
946.2066	0.000276
946.4478	0.000319
946.6891	0.000656
946.9303	0.000889
947.1716	0.001269
947.4128	0.001839
947.6541	0.001121
947.8954	0.000551
948.1367	0.000678
948.3780	0.000530
948.6193	0.000762
948.8606	0.000551
949.1019	-0.000104
949.3433	0.001396
949.5846	0.002240
949.8259	0.001184
950.0673	0.001649
950.3086	0.000952
950.5500	-0.000484
950.7914	0.001290
951.0327	-0.000336
951.2741	0.001417
951.5155	0.001206
951.7569	0.001311
951.9983	0.000825
952.2398	0.001902
952.4812	0.001015
952.7226	0.000783
952.9640	0.001353
953.2055	0.002177
953.4469	0.000931
953.6884	0.002430
953.9299	0.000572
954.1713	0.001881
954.4128	-0.000399
954.6543	0.001079
954.8958	0.001670
955.1373	0.000445
955.3788	0.001459
955.6203	0.000551
955.8618	0.000994
956.1034	0.000614
956.3449	0.000107
956.5865	0.001163
956.8280	-0.000399
957.0696	0.000445
957.3111	0.000889
957.5527	-0.000104
957.7943	-0.000632
958.0359	0.000994
958.2775	0.000086
958.5191	0.000783
958.7607	0.001290
959.0023	0.000762
959.2439	0.001607
959.4856	0.000593
959.7272	0.001860
959.9688	0.000361
960.2105	0.000678
960.4522	0.001227
960.6938	-0.000421
960.9355	0.000614
961.1772	0.001607
961.4189	0.000741
961.6606	0.000403
961.9023	0.000487
962.1440	0.000065
962.3857	0.001058
962.6274	-0.000125
962.8692	0.000846
963.1109	0.000002
963.3527	-0.001350
963.5944	-0.000104
963.8362	0.000065
964.0779	-0.000273
964.3197	0.000846
964.5615	0.001480
964.8033	0.000466
965.0451	0.000086
965.2869	-0.000674
965.5287	0.001100
965.7705	0.002388
966.0123	-0.000716
966.2542	-0.000231
966.4960	0.000382
966.7379	0.001332
966.9797	-0.001413
967.2216	-0.000062
967.4634	-0.000104
967.7053	0.000762
967.9472	0.000065
968.1891	0.001374
968.4310	-0.000632
968.6729	0.000023
968.9148	0.000741
969.1567	0.000952
969.3987	-0.001118
969.6406	0.000044
969.8825	0.000889
970.1245	0.001501
970.3664	0.000509
970.6084	-0.000167
970.8504	0.000889
971.0923	0.001797
971.3343	0.000424
971.5763	-0.000125
971.8183	-0.000357
972.0603	0.000614
972.3023	0.001755
972.5443	0.000445
972.7864	0.000002
973.0284	0.000910
973.2704	-0.000146
973.5125	0.000868
973.7545	-0.000399
973.9966	0.000530
974.2387	0.000065
974.4807	-0.000146
974.7228	0.001438
974.9649	-0.000125
975.2070	0.000825
975.4491	0.000192
975.6912	-0.000378
975.9333	0.000150
976.1755	-0.000780
976.4176	0.001290
976.6597	0.000952
976.9019	-0.000125
977.1440	-0.000062
977.3862	0.000868
977.6283	0.000361
977.8705	0.000846
978.1127	0.000340
978.3549	0.001206
978.5971	-0.000611
978.8393	0.000002
979.0815	0.001522
979.3237	0.000530
979.5659	-0.000378
979.8082	0.000086
980.0504	-0.001519
980.2926	-0.000885
980.5349	0.000023
980.7771	0.001438
981.0194	-0.000231
981.2617	-0.000188
981.5040	-0.000822
981.7462	0.000762
981.9885	0.000614
982.2308	-0.000843
982.4731	-0.000062
982.7155	-0.000484
982.9578	0.000361
983.2001	0.001311
983.4424	0.000086
983.6848	0.000551
983.9271	-0.000040
984.1695	0.000699
984.4118	-0.000653
984.6542	-0.000252
984.8966	0.000107
985.1390	-0.000674
985.3814	-0.000294
985.6238	0.000910
985.8662	-0.000590
986.1086	0.000445
986.3510	0.000720
986.5934	0.000128
986.8358	0.000593
987.0783	0.002071
987.3207	0.000002
987.5632	0.000086
987.8056	-0.000632
988.0481	-0.000759
988.2906	0.000002
988.5331	0.002536
988.7756	-0.000209
989.0180	-0.001033
989.2605	0.000593
989.5031	0.000509
989.7456	0.000023
989.9881	0.000487
990.2306	-0.000273
990.4732	-0.000547
990.7157	-0.000019
990.9582	-0.000970
991.2008	-0.000442
991.4434	0.001163
991.6859	-0.001286
991.9285	0.000699
992.1711	-0.000125
992.4137	0.000319
992.6563	-0.001033
992.8989	0.000297
993.1415	0.000065
993.3841	0.001438
993.6267	0.000509
993.8694	0.000255
994.1120	-0.000526
994.3547	-0.000125
994.5973	-0.000062
994.8400	0.001839
995.0826	-0.000927
995.3253	0.001353
995.5680	-0.000209
995.8107	0.000931
996.0534	-0.000632
996.2961	-0.000759
996.5388	-0.000294
996.7815	0.000424
997.0242	-0.000378
997.2670	-0.000125
997.5097	0.000234
997.7524	-0.000399
997.9952	-0.000885
998.2379	0.000741
998.4807	-0.000336
998.7235	0.001079
998.9662	-0.001350
999.2090	0.000466
999.4518	0.000593
999.6946	0.000994
999.9374	0.000846
1000.1802	-0.000399
1000.4230	0.000593
1000.6659	-0.000083
1000.9087	0.000382
1001.1515	0.000403
1001.3944	0.000868
1001.6372	-0.001434
1001.8801	0.000804
1002.1230	0.000804
1002.3658	0.000382
1002.6087	0.001037
1002.8516	0.000361
1003.0945	0.000593
1003.3374	0.000319
1003.5803	0.000952
1003.8232	0.000255
1004.0661	-0.000188
1004.3091	0.001374
1004.5520	-0.000399
1004.7949	0.000403
1005.0379	-0.001181
1005.2808	0.000614
1005.5238	0.000002
1005.7667	0.001565
1006.0097	-0.000822
1006.2527	-0.000399
1006.4957	0.000952
1006.7387	-0.000568
1006.9817	-0.000780
1007.2247	0.001037
1007.4677	-0.000083
1007.7107	0.001332
1007.9538	-0.000273
1008.1968	0.000994
1008.4398	0.000846
1008.6829	0.000952
1008.9259	-0.000167
1009.1690	0.000234
1009.4121	0.000509
1009.6551	0.001776
1009.8982	-0.000526
1010.1413	0.000002
1010.3844	0.001628
1010.6275	0.000699
1010.8706	-0.000505
1011.1137	-0.000040
1011.3568	-0.000104
1011.6000	0.000551
1011.8431	0.000234
1012.0863	0.000445
1012.3294	-0.000336
1012.5726	-0.000019
1012.8157	-0.000970
1013.0589	0.001374
1013.3021	-0.000653
1013.5452	-0.000885
1013.7884	-0.000759
1014.0316	0.000234
1014.2748	0.000086
1014.5180	0.000150
1014.7613	-0.000336
1015.0045	0.002114
1015.2477	-0.001561
1015.4909	-0.000716
1015.7342	-0.000463
1015.9774	0.000868
1016.2207	-0.000442
1016.4640	-0.000146
1016.7072	-0.000315
1016.9505	-0.000231
1017.1938	-0.000505
1017.4371	-0.000104
1017.6804	-0.001265
1017.9237	0.000783
1018.1670	0.000741
1018.4103	0.000382
1018.6536	-0.000019
1018.8969	-0.000104
1019.1403	0.000150
1019.3836	0.001755
1019.6270	-0.000399
1019.8703	0.000065
1020.1137	-0.000463
1020.3571	-0.000104
1020.6004	0.000340
1020.8438	0.001163
1021.0872	-0.001202
1021.3306	0.000931
1021.5740	0.000065
1021.8174	0.000720
1022.0608	-0.000568
1022.3042	-0.000484
1022.5477	-0.000653
1022.7911	0.000297
1023.0345	-0.001286
