# Wavelength (nm)	Intensity (a.u.)
197.7802	-0.000004
197.9842	-0.000109
198.1882	-0.000574
198.3922	-0.000785
198.5963	0.000503
198.8003	-0.000278
199.0044	0.000820
199.2085	0.000883
199.4126	0.001749
199.6168	-0.000510
199.8209	0.000440
200.0251	0.002213
200.2292	-0.000447
200.4334	-0.000341
200.6376	0.000630
200.8418	-0.000215
201.0461	0.002635
201.2503	0.000165
201.4546	0.000820
201.6589	0.000651
201.8631	-0.000278
202.0674	0.000609
202.2718	0.000862
202.4761	0.000398
202.6805	-0.000025
202.8848	0.001896
203.0892	0.000672
203.2936	-0.000151
203.4980	-0.001165
203.7024	-0.000278
203.9069	0.000144
204.1113	0.000651
204.3158	0.000503
204.5203	0.000440
204.7248	0.001305
204.9293	0.002635
205.1338	-0.000595
205.3384	0.000102
205.5430	0.002720
205.7475	0.000081
205.9521	0.000398
206.1567	0.000862
206.3614	-0.000763
206.5660	-0.001882
206.7706	0.001390
206.9753	0.000503
207.1800	-0.000531
207.3847	0.000714
207.5894	0.000208
207.7941	-0.000869
207.9989	0.001221
208.2036	0.000799
208.4084	0.000355
208.6132	0.000398
208.8180	0.000524
209.0228	0.000039
209.2276	0.000229
209.4325	0.001010
209.6373	0.001770
209.8422	-0.000215
210.0471	0.001664
210.2520	-0.000405
210.4569	-0.000320
210.6618	0.000440
210.8668	0.000482
211.0718	0.000186
211.2767	0.000292
211.4817	0.001749
211.6867	0.001896
211.8918	0.000355
212.0968	0.000630
212.3018	0.001115
212.5069	0.000778
212.7120	0.000229
212.9171	0.000039
213.1222	0.000060
213.3273	0.001875
213.5325	0.000334
213.7376	0.000461
213.9428	-0.001249
214.1480	0.001875
214.3532	0.000714
214.5584	0.001516
214.7636	-0.000004
214.9689	-0.000489
215.1741	0.000799
215.3794	0.001411
215.5847	-0.000236
215.7900	-0.000341
215.9953	-0.000278
216.2007	0.000292
216.4060	0.000229
216.6114	0.000229
216.8168	0.000482
217.0222	0.000503
217.2276	-0.001397
217.4330	0.000925
217.6384	-0.000341
217.8439	0.001179
218.0494	0.001706
218.2548	0.000334
218.4603	0.001981
218.6659	0.001200
218.8714	0.000144
219.0769	0.000862
219.2825	-0.000426
219.4881	0.000503
219.6936	-0.000025
219.8992	0.001073
220.1049	-0.000785
220.3105	-0.001186
220.5161	0.001031
220.7218	0.000946
220.9275	0.002276
221.1332	0.000398
221.3389	0.000250
221.5446	0.001179
221.7503	0.000081
221.9561	0.001179
222.1618	-0.001291
222.3676	0.000376
222.5734	-0.001523
222.7792	0.000989
222.9850	0.000503
223.1909	0.001664
223.3967	0.000925
223.6026	0.002403
223.8085	-0.000911
224.0144	0.001685
224.2203	0.000904
224.4262	0.001031
224.6322	0.000651
224.8381	-0.001038
225.0441	-0.000468
225.2501	0.000165
225.4561	-0.000848
225.6621	-0.000109
225.8681	-0.000320
226.0742	-0.000869
226.2802	-0.000194
226.4863	0.001010
226.6924	0.000102
226.8985	-0.000088
227.1046	0.000946
227.3107	0.000461
227.5169	0.000588
227.7230	0.000081
227.9292	0.000271
228.1354	0.000081
228.3416	0.000461
228.5478	0.001305
228.7541	0.001158
228.9603	0.000756
229.1666	0.001833
229.3729	0.002192
229.5791	-0.001333
229.7855	0.000165
229.9918	0.000060
230.1981	0.000946
230.4045	0.001453
230.6108	-0.000088
230.8172	0.000229
231.0236	0.000292
231.2300	0.000693
231.4364	0.000904
231.6429	0.001495
231.8493	0.001305
232.0558	0.000925
232.2623	0.000693
232.4688	0.001284
232.6753	0.000545
232.8818	-0.000785
233.0884	-0.000742
233.2949	-0.000616
233.5015	0.001200
233.7081	0.001115
233.9147	0.001685
234.1213	-0.000299
234.3279	0.000841
234.5346	-0.000215
234.7413	0.000545
234.9479	0.000714
235.1546	-0.000320
235.3613	-0.000637
235.5680	0.002361
235.7748	0.001031
235.9815	0.001179
236.1883	0.000250
236.3951	-0.000257
236.6018	0.000271
236.8087	0.000566
237.0155	-0.000405
237.2223	0.000060
237.4292	-0.001080
237.6360	0.001622
237.8429	-0.001165
238.0498	0.000714
238.2567	0.002445
238.4636	-0.000088
238.6706	0.000144
238.8775	0.000904
239.0845	-0.000996
239.2915	0.000355
239.4985	-0.000616
239.7055	0.001390
239.9125	0.000482
240.1195	-0.001249
240.3266	0.000503
240.5337	0.000186
240.7407	0.000060
240.9478	0.001263
241.1549	0.000018
241.3621	0.000165
241.5692	0.000524
241.7764	0.000946
241.9835	0.000018
242.1907	0.001284
242.3979	0.000820
242.6051	0.000545
242.8124	0.000714
243.0196	0.001052
243.2269	-0.000109
243.4341	0.000968
243.6414	0.001073
243.8487	0.000989
244.0560	-0.000468
244.2634	-0.000320
244.4707	-0.000320
244.6781	-0.000236
244.8854	0.000566
245.0928	0.001305
245.3002	-0.000194
245.5076	0.000989
245.7151	0.000313
245.9225	-0.000109
246.1300	0.001263
246.3375	-0.000194
246.5449	0.000313
246.7524	-0.000953
246.9600	0.000524
247.1675	0.000925
247.3750	-0.000341
247.5826	0.000250
247.7902	-0.000215
247.9978	0.000545
248.2054	0.000651
248.4130	0.000904
248.6206	0.000904
248.8283	0.000186
249.0359	-0.000046
249.2436	0.000039
249.4513	0.000229
249.6590	0.000355
249.8667	0.001538
250.0745	-0.000130
250.2822	-0.000109
250.4900	0.001411
250.6978	-0.000046
250.9056	0.001432
251.1134	-0.000510
251.3212	0.000566
251.5290	0.001749
251.7369	0.001263
251.9447	0.000144
252.1526	-0.000574
252.3605	-0.000025
252.5684	-0.000869
252.7763	-0.001270
252.9843	-0.000004
253.1922	0.000039
253.4002	0.000208
253.6082	0.000651
253.8162	0.001284
254.0242	-0.000574
254.2322	0.001833
254.4402	0.000334
254.6483	-0.000046
254.8564	0.000186
255.0644	0.000398
255.2725	-0.000679
255.4806	0.001622
255.6888	-0.000510
255.8969	0.000376
256.1051	-0.000088
256.3132	-0.000046
256.5214	-0.000257
256.7296	0.000799
256.9378	0.001516
257.1460	0.000292
257.3543	0.000186
257.5625	0.000989
257.7708	0.000862
257.9791	0.000693
258.1874	0.001390
258.3957	-0.000806
258.6040	-0.000384
258.8124	-0.000215
259.0207	0.000271
259.2291	0.000376
259.4375	0.000313
259.6459	0.000461
259.8543	0.000883
260.0627	0.002340
260.2711	-0.001122
260.4796	-0.000975
260.6881	0.000925
260.8965	0.001664
261.1050	-0.000194
261.3135	0.001643
261.5221	0.000630
261.7306	0.000482
261.9392	-0.000236
262.1477	0.000292
262.3563	-0.000046
262.5649	0.002086
262.7735	0.000693
262.9822	-0.000088
263.1908	0.000355
263.3995	-0.000025
263.6081	0.000398
263.8168	-0.000194
264.0255	-0.000067
264.2342	0.000588
264.4429	-0.000806
264.6517	0.000461
264.8604	0.000609
265.0692	0.001284
265.2780	-0.000278
265.4868	0.000545
265.6956	0.000334
265.9044	-0.000257
266.1133	0.000313
266.3221	0.001073
266.5310	0.001390
266.7399	0.000376
266.9488	-0.000130
267.1577	-0.000025
267.3666	-0.000405
267.5755	0.000841
267.7845	-0.000911
267.9935	0.000292
268.2024	0.000419
268.4114	0.001263
268.6205	-0.000405
268.8295	0.000904
269.0385	0.000461
269.2476	0.000144
269.4566	-0.000932
269.6657	-0.000278
269.8748	0.000060
270.0839	0.001305
270.2931	-0.001038
270.5022	0.001010
270.7114	0.001305
270.9205	-0.000468
271.1297	0.001052
271.3389	0.001094
271.5481	-0.000004
271.7573	0.000440
271.9666	0.001305
272.1758	0.000545
272.3851	0.000060
272.5944	0.001221
272.8037	-0.001017
273.0130	-0.000447
273.2223	0.001031
273.4316	0.001643
273.6410	-0.000088
273.8504	-0.000278
274.0597	0.000144
274.2691	0.001432
274.4785	0.000250
274.6880	0.001643
274.8974	0.000060
275.1069	0.001200
275.3163	-0.000088
275.5258	0.000461
275.7353	-0.000637
275.9448	0.001158
276.1543	0.000292
276.3639	-0.000320
276.5734	-0.000616
276.7830	0.001348
276.9926	-0.000320
277.2022	-0.000151
277.4118	0.000355
277.6214	-0.000742
277.8310	-0.000679
278.0407	0.001559
278.2503	-0.000004
278.4600	0.001010
278.6697	-0.000658
278.8794	0.000778
279.0891	-0.000067
279.2989	0.000693
279.5086	0.000144
279.7184	0.001179
279.9281	-0.000975
280.1379	-0.000046
280.3477	-0.000130
280.5576	0.000102
280.7674	-0.001312
280.9772	0.001010
281.1871	0.000292
281.3970	0.000672
281.6069	0.000292
281.8168	0.000693
282.0267	0.000165
282.2366	-0.000025
282.4466	0.000123
282.6565	0.002614
282.8665	0.000419
283.0765	-0.001207
283.2865	-0.000046
283.4965	0.001073
283.7065	0.000165
283.9166	0.002044
284.1266	-0.000194
284.3367	0.001516
284.5468	0.001242
284.7569	0.000271
284.9670	0.001495
285.1771	0.000419
285.3873	-0.000848
285.5974	0.001622
285.8076	0.000862
286.0178	0.000292
286.2280	-0.000341
286.4382	0.000039
286.6484	0.000123
286.8587	0.001728
287.0689	0.000566
287.2792	0.000419
287.4895	0.000946
287.6998	0.000503
287.9101	-0.000215
288.1204	-0.000405
288.3308	0.000250
288.5411	0.000060
288.7515	-0.000236
288.9619	0.001010
289.1723	-0.000595
289.3827	0.001073
289.5931	-0.000658
289.8035	-0.001017
290.0140	0.000081
290.2245	0.001854
290.4349	0.002065
290.6454	0.000229
290.8559	-0.000700
291.0665	0.001538
291.2770	0.000313
291.4875	0.000186
291.6981	0.000292
291.9087	0.002213
292.1193	0.000693
292.3299	0.001073
292.5405	0.000651
292.7511	0.000735
292.9618	0.001474
293.1724	-0.000067
293.3831	0.000968
293.5938	0.001326
293.8045	0.000334
294.0152	-0.000405
294.2260	0.000799
294.4367	0.000144
294.6475	-0.000890
294.8582	0.000925
295.0690	-0.000426
295.2798	0.000566
295.4906	-0.000742
295.7015	0.000165
295.9123	0.000461
296.1232	0.000419
296.3340	0.000693
296.5449	0.001031
296.7558	-0.000004
296.9667	0.000946
297.1777	-0.001080
297.3886	-0.000552
297.5995	0.000081
297.8105	0.000968
298.0215	-0.001101
298.2325	-0.000046
298.4435	0.000165
298.6545	0.000651
298.8656	-0.000278
299.0766	0.000102
299.2877	-0.000236
299.4988	0.000883
299.7099	-0.000130
299.9210	0.002023
300.1321	0.000735
300.3432	0.001411
300.5544	-0.001059
300.7655	0.000060
300.9767	0.000545
301.1879	-0.000953
301.3991	0.001200
301.6103	0.000376
301.8215	-0.000067
302.0328	0.000186
302.2441	0.001643
302.4553	-0.000341
302.6666	0.001453
302.8779	-0.000151
303.0892	0.000313
303.3006	0.000313
303.5119	0.000778
303.7233	-0.000869
303.9346	0.000756
304.1460	-0.000595
304.3574	0.000398
304.5688	0.000714
304.7803	0.000376
304.9917	0.001179
305.2031	0.000144
305.4146	-0.000067
305.6261	0.000841
305.8376	-0.000088
306.0491	0.000609
306.2606	-0.000426
306.4722	-0.000278
306.6837	0.001326
306.8953	-0.001376
307.1069	-0.000130
307.3184	-0.000827
307.5301	0.001812
307.7417	0.000250
307.9533	0.001348
308.1650	-0.000447
308.3766	0.000376
308.5883	0.000102
308.8000	0.000820
309.0117	-0.000299
309.2234	0.000756
309.4351	0.001390
309.6469	-0.000194
309.8586	-0.000426
310.0704	0.000778
310.2822	-0.000172
310.4940	0.000376
310.7058	0.000250
310.9176	0.000461
311.1295	0.000250
311.3413	0.000229
311.5532	0.000313
311.7651	0.001854
311.9770	-0.001165
312.1889	-0.000194
312.4008	-0.001143
312.6127	0.001474
312.8247	0.000693
313.0366	0.001369
313.2486	-0.000046
313.4606	0.001052
313.6726	0.001010
313.8846	-0.000046
314.0967	0.000334
314.3087	0.000609
314.5208	-0.000278
314.7328	0.001073
314.9449	-0.001481
315.1570	0.002023
315.3692	0.001939
315.5813	-0.000025
315.7934	-0.000552
316.0056	0.000693
316.2177	-0.000405
316.4299	0.000355
316.6421	-0.000151
316.8543	0.000630
317.0666	0.000820
317.2788	0.000946
317.4911	0.000524
317.7033	0.000144
317.9156	0.000018
318.1279	0.000968
318.3402	0.000419
318.5525	0.001896
318.7649	-0.001376
318.9772	-0.000278
319.1896	-0.000320
319.4019	0.001664
319.6143	-0.000046
319.8267	0.000778
320.0392	-0.000215
320.2516	0.000925
320.4640	0.000355
320.6765	0.000461
320.8890	0.000925
321.1014	0.002129
321.3139	-0.000658
321.5265	0.000482
321.7390	-0.000869
321.9515	0.001411
322.1641	0.000229
322.3766	0.000946
322.5892	-0.000489
322.8018	0.000651
323.0144	0.000756
323.2270	0.000904
323.4397	0.001052
323.6523	0.000081
323.8650	0.000039
324.0777	0.000440
324.2904	0.000799
324.5031	0.001664
324.7158	0.000693
324.9285	0.001432
325.1412	-0.000721
325.3540	0.000693
325.5668	0.000250
325.7796	0.000123
325.9924	-0.000299
326.2052	0.001453
326.4180	0.000039
326.6308	0.001495
326.8437	0.000799
327.0566	0.000334
327.2694	-0.000067
327.4823	0.000883
327.6952	0.000018
327.9082	0.000609
328.1211	0.000165
328.3340	0.000883
328.5470	0.000946
328.7600	0.000102
328.9730	0.000398
329.1860	0.000820
329.3990	0.000630
329.6120	0.001601
329.8251	0.001200
330.0381	0.000334
330.2512	0.000355
330.4643	0.000313
330.6774	0.001094
330.8905	0.001369
331.1036	0.000292
331.3167	0.000398
331.5299	0.000039
331.7431	0.000060
331.9562	0.000060
332.1694	-0.000088
332.3826	-0.000299
332.5959	0.001010
332.8091	-0.000616
333.0223	0.001664
333.2356	-0.001165
333.4489	0.000693
333.6622	0.000123
333.8755	0.000672
334.0888	0.001896
334.3021	-0.000130
334.5154	0.000271
334.7288	0.001939
334.9422	0.000355
335.1555	-0.000130
335.3689	0.001115
335.5823	0.001939
335.7958	-0.000278
336.0092	0.000271
336.2227	0.000735
336.4361	0.002466
336.6496	0.000271
336.8631	0.002213
337.0766	0.000862
337.2901	0.000440
337.5036	0.000566
337.7172	0.001115
337.9307	0.000334
338.1443	0.001284
338.3579	0.001369
338.5715	-0.000130
338.7851	-0.000215
338.9987	0.001326
339.2124	0.000292
339.4260	0.000355
339.6397	0.000482
339.8533	0.000756
340.0670	0.001158
340.2807	0.001390
340.4945	0.000778
340.7082	0.001559
340.9219	-0.000700
341.1357	-0.000278
341.3495	0.000018
341.5633	0.000946
341.7771	-0.000637
341.9909	0.000482
342.2047	0.000292
342.4185	0.000883
342.6324	0.000419
342.8463	-0.000953
343.0601	0.000081
343.2740	0.001031
343.4879	0.000208
343.7019	0.000545
343.9158	0.001390
344.1297	0.000186
344.3437	-0.000067
344.5577	0.001073
344.7717	-0.000827
344.9857	0.001622
345.1997	0.001263
345.4137	0.000566
345.6277	0.000545
345.8418	0.001158
346.0559	-0.000299
346.2699	0.000208
346.4840	0.000714
346.6981	0.000651
346.9123	0.000313
347.1264	0.000545
347.3406	-0.000637
347.5547	-0.001207
347.7689	0.000588
347.9831	-0.000869
348.1973	-0.000489
348.4115	0.000186
348.6257	0.000102
348.8400	0.000693
349.0542	0.000376
349.2685	0.000503
349.4828	0.000566
349.6971	0.000208
349.9114	-0.000109
350.1257	-0.000172
350.3400	0.001073
350.5544	0.001538
350.7687	0.001284
350.9831	0.000799
351.1975	0.000799
351.4119	0.001411
351.6263	-0.000510
351.8407	0.000735
352.0552	0.000419
352.2696	0.002213
352.4841	0.000165
352.6986	0.000482
352.9131	0.000334
353.1276	0.001031
353.3421	0.000946
353.5566	0.000778
353.7712	-0.000531
353.9858	0.000524
354.2003	-0.000489
354.4149	0.001749
354.6295	0.000102
354.8441	0.001706
355.0588	0.000102
355.2734	0.001221
355.4881	0.000524
355.7027	0.000609
355.9174	0.000186
356.1321	-0.000172
356.3468	0.001073
356.5615	0.000376
356.7763	0.000820
356.9910	-0.000552
357.2058	0.000693
357.4206	0.001453
357.6353	0.000144
357.8501	-0.000721
358.0650	-0.001291
358.2798	0.000440
358.4946	-0.000172
358.7095	-0.000151
358.9243	0.000609
359.1392	0.000186
359.3541	0.001411
359.5690	0.001875
359.7839	0.001263
359.9989	0.000545
360.2138	-0.000468
360.4288	0.001432
360.6438	0.001538
360.8587	-0.000004
361.0737	0.000672
361.2888	0.001031
361.5038	0.000250
361.7188	0.000968
361.9339	0.000545
362.1489	0.001221
362.3640	0.000018
362.5791	0.001158
362.7942	0.001200
363.0093	0.000461
363.2245	0.000461
363.4396	0.000334
363.6548	-0.000151
363.8699	-0.000320
364.0851	0.000799
364.3003	0.001115
364.5155	0.000714
364.7308	-0.001017
364.9460	-0.000025
365.1612	0.000693
365.3765	-0.000151
365.5918	0.001601
365.8071	-0.000109
366.0224	-0.000194
366.2377	0.000081
366.4530	0.000651
366.6684	0.001052
366.8837	0.001960
367.0991	-0.002220
367.3145	0.000566
367.5299	-0.000574
367.7453	0.001094
367.9607	0.000461
368.1761	-0.000172
368.3916	0.000756
368.6070	-0.000700
368.8225	-0.000172
369.0380	0.001348
369.2535	-0.000172
369.4690	0.001432
369.6845	0.000524
369.9001	0.000946
370.1156	0.001031
370.3312	-0.000236
370.5468	0.001031
370.7624	0.001981
370.9780	0.000186
371.1936	-0.000151
371.4092	0.000482
371.6249	0.001221
371.8405	-0.000025
372.0562	0.000883
372.2719	0.000693
372.4876	0.000609
372.7033	-0.001502
372.9190	-0.000236
373.1348	0.000651
373.3505	0.000482
373.5663	0.000208
373.7820	-0.000194
373.9978	0.001073
374.2136	0.000482
374.4294	-0.000384
374.6453	0.001221
374.8611	0.000756
375.0770	0.000334
375.2928	-0.000531
375.5087	-0.000405
375.7246	0.000250
375.9405	-0.000130
376.1564	0.000545
376.3724	0.001960
376.5883	0.002171
376.8043	0.001706
377.0203	-0.001143
377.2362	-0.000257
377.4522	0.001770
377.6682	0.001791
377.8843	-0.000489
378.1003	0.000123
378.3164	0.000102
378.5324	-0.000046
378.7485	0.001031
378.9646	0.000250
379.1807	-0.000151
379.3968	0.000440
379.6129	0.000714
379.8291	0.001326
380.0452	0.000524
380.2614	0.001896
380.4776	0.000841
380.6938	0.000799
380.9100	0.001305
381.1262	0.001031
381.3424	0.000503
381.5587	0.000989
381.7749	0.000862
381.9912	-0.001270
382.2075	0.000334
382.4238	-0.000531
382.6401	-0.000299
382.8564	0.001031
383.0728	0.000588
383.2891	0.001622
383.5055	0.001390
383.7219	0.002129
383.9382	-0.000911
384.1546	0.000376
384.3711	-0.000658
384.5875	0.001685
384.8039	0.000271
385.0204	-0.000046
385.2368	0.000820
385.4533	0.000060
385.6698	0.001284
385.8863	0.002382
386.1028	-0.001333
386.3194	0.000630
386.5359	-0.000299
386.7525	0.000482
386.9690	0.000588
387.1856	0.001812
387.4022	0.000714
387.6188	0.001242
387.8355	0.000651
388.0521	0.001538
388.2687	0.000672
388.4854	0.002509
388.7021	0.001664
388.9188	0.000651
389.1355	0.002108
389.3522	0.001158
389.5689	0.000883
389.7856	0.002551
390.0024	0.001685
390.2192	0.000968
390.4359	0.000503
390.6527	0.001791
390.8695	0.000271
391.0863	0.001812
391.3032	0.001010
391.5200	0.002129
391.7369	0.000313
391.9537	0.002086
392.1706	0.000609
392.3875	0.000989
392.6044	0.001706
392.8213	0.000376
393.0383	0.002276
393.2552	0.001432
393.4722	0.000524
393.6891	0.002509
393.9061	0.002825
394.1231	0.002065
394.3401	0.002150
394.5572	0.001158
394.7742	0.001854
394.9912	0.003627
395.2083	0.002846
395.4254	0.003923
395.6425	0.001706
395.8596	0.003564
396.0767	0.003036
396.2938	0.002466
396.5109	0.001453
396.7281	0.002551
396.9453	0.002931
397.1624	0.003395
397.3796	0.001728
397.5968	0.004662
397.8140	0.003754
398.0313	0.004409
398.2485	0.003290
398.4658	0.004683
398.6830	0.003923
398.9003	0.003459
399.1176	0.003079
399.3349	0.004155
399.5522	0.004599
399.7696	0.004092
399.9869	0.004050
400.2043	0.004894
400.4216	0.004324
400.6390	0.005401
400.8564	0.003311
401.0738	0.005929
401.2912	0.005126
401.5087	0.005274
401.7261	0.006794
401.9436	0.005042
402.1610	0.004197
402.3785	0.004831
402.5960	0.005802
402.8135	0.005316
403.0310	0.005527
403.2486	0.007068
403.4661	0.005929
403.6837	0.006710
403.9013	0.006456
404.1189	0.006815
404.3365	0.005253
404.5541	0.006414
404.7717	0.006013
404.9893	0.008631
405.2070	0.005506
405.4246	0.006731
405.6423	0.008335
405.8600	0.008040
406.0777	0.008778
406.2954	0.006857
406.5131	0.006689
406.7309	0.008800
406.9486	0.007406
407.1664	0.008040
407.3842	0.008567
407.6020	0.007385
407.8198	0.008715
408.0376	0.007448
408.2554	0.008757
408.4733	0.008187
408.6911	0.010953
408.9090	0.008124
409.1269	0.010151
409.3448	0.009644
409.5627	0.008715
409.7806	0.008504
409.9985	0.009644
410.2165	0.009074
410.4344	0.010953
410.6524	0.008990
410.8704	0.010130
411.0884	0.008800
411.3064	0.010425
411.5244	0.009982
411.7424	0.010678
411.9605	0.009728
412.1785	0.010404
412.3966	0.008968
412.6147	0.011101
412.8328	0.009644
413.0509	0.012346
413.2690	0.010573
413.4871	0.012473
413.7053	0.011649
413.9234	0.011375
414.1416	0.010953
414.3598	0.012198
414.5780	0.012177
414.7962	0.012578
415.0144	0.011734
415.2326	0.013317
415.4509	0.011312
415.6692	0.012452
415.8874	0.010742
416.1057	0.011924
416.3240	0.012388
416.5423	0.013169
416.7606	0.012874
416.9790	0.013507
417.1973	0.012515
417.4157	0.013845
417.6341	0.014225
417.8524	0.011354
418.0708	0.012705
418.2893	0.013528
418.5077	0.012768
418.7261	0.014647
418.9446	0.015217
419.1630	0.014436
419.3815	0.013993
419.6000	0.014647
419.8185	0.013212
420.0370	0.014795
420.2555	0.016146
420.4741	0.016716
420.6926	0.015850
420.9112	0.017877
421.1298	0.017518
421.3483	0.018025
421.5669	0.019080
421.7856	0.016547
422.0042	0.018679
422.2228	0.018510
422.4415	0.018531
422.6601	0.017497
422.8788	0.017603
423.0975	0.018700
423.3162	0.017940
423.5349	0.018531
423.7536	0.017286
423.9724	0.019418
424.1911	0.016927
424.4099	0.017328
424.6287	0.017814
424.8475	0.016906
425.0663	0.017603
425.2851	0.017033
425.5039	0.018785
425.7228	0.018046
425.9416	0.015956
426.1605	0.017413
426.3793	0.017687
426.5982	0.017075
426.8171	0.015597
427.0361	0.017708
427.2550	0.017518
427.4739	0.017772
427.6929	0.017687
427.9118	0.018025
428.1308	0.016758
428.3498	0.019186
428.5688	0.019101
428.7878	0.018320
429.0068	0.018848
429.2259	0.019840
429.4449	0.019439
429.6640	0.023450
429.8831	0.019101
430.1022	0.023471
430.3213	0.022880
430.5404	0.021614
430.7595	0.020748
430.9787	0.022732
431.1978	0.021149
431.4170	0.020643
431.6362	0.020685
431.8553	0.019587
432.0745	0.017518
432.2938	0.017877
432.5130	0.019334
432.7322	0.018785
432.9515	0.018468
433.1707	0.017856
433.3900	0.020368
433.6093	0.021149
433.8286	0.022648
434.0479	0.024252
434.2673	0.023471
434.4866	0.020875
434.7059	0.020600
434.9253	0.021318
435.1447	0.018996
435.3641	0.020094
435.5835	0.020073
435.8029	0.020157
436.0223	0.019439
436.2418	0.021023
436.4612	0.022099
436.6807	0.023894
436.9001	0.021550
437.1196	0.020241
437.3391	0.021001
437.5586	0.019904
437.7782	0.021994
437.9977	0.020600
438.2173	0.018764
438.4368	0.022690
438.6564	0.020136
438.8760	0.024147
439.0956	0.021318
439.3152	0.023155
439.5348	0.021909
439.7545	0.021065
439.9741	0.021487
440.1938	0.022732
440.4135	0.021719
440.6331	0.020284
440.8528	0.022162
441.0725	0.023640
441.2923	0.024041
441.5120	0.026385
441.7318	0.025646
441.9515	0.025350
442.1713	0.024379
442.3911	0.024527
442.6109	0.025582
442.8307	0.025561
443.0505	0.023957
443.2703	0.025772
443.4902	0.024928
443.7101	0.024168
443.9299	0.025456
444.1498	0.024717
444.3697	0.025055
444.5896	0.023429
444.8095	0.025815
445.0295	0.022986
445.2494	0.024252
445.4694	0.024717
445.6894	0.026047
445.9093	0.023894
446.1293	0.024147
446.3493	0.022986
446.5694	0.025899
446.7894	0.023049
447.0094	0.022395
447.2295	0.023514
447.4496	0.022944
447.6696	0.023492
447.8897	0.023176
448.1098	0.023788
448.3300	0.022690
448.5501	0.022859
448.7702	0.021550
448.9904	0.022352
449.2106	0.020854
449.4307	0.020453
449.6509	0.021719
449.8711	0.021719
450.0914	0.021782
450.3116	0.019693
450.5318	0.020917
450.7521	0.020305
450.9724	0.020474
451.1926	0.020621
451.4129	0.019418
451.6332	0.019566
451.8535	0.021044
452.0739	0.019946
452.2942	0.020241
452.5146	0.019439
452.7349	0.019988
452.9553	0.018363
453.1757	0.020030
453.3961	0.019735
453.6165	0.016716
453.8369	0.018933
454.0574	0.019144
454.2778	0.018996
454.4983	0.015449
454.7188	0.017370
454.9393	0.017582
455.1597	0.019524
455.3803	0.018173
455.6008	0.018468
455.8213	0.018595
456.0419	0.018806
456.2624	0.017624
456.4830	0.016822
456.7036	0.019714
456.9242	0.017244
457.1448	0.016737
457.3654	0.017075
457.5860	0.016653
457.8067	0.017223
458.0274	0.017666
458.2480	0.017455
458.4687	0.018215
458.6894	0.019376
458.9101	0.018067
459.1308	0.017687
459.3516	0.016146
459.5723	0.017814
459.7931	0.018299
460.0138	0.017012
460.2346	0.015914
460.4554	0.016420
460.6762	0.016209
460.8970	0.017497
461.1178	0.015344
461.3387	0.017033
461.5595	0.015492
461.7804	0.015618
462.0013	0.014162
462.2222	0.012874
462.4431	0.013803
462.6640	0.014964
462.8849	0.013486
463.1059	0.014373
463.3268	0.013381
463.5478	0.014141
463.7687	0.012832
463.9897	0.015386
464.2107	0.015090
464.4317	0.015893
464.6528	0.015977
464.8738	0.015808
465.0948	0.016315
465.3159	0.015027
465.5370	0.014520
465.7581	0.015682
465.9792	0.015407
466.2003	0.014964
466.4214	0.012895
466.6425	0.012958
466.8637	0.013803
467.0848	0.011481
467.3060	0.013085
467.5272	0.012452
467.7484	0.011481
467.9696	0.012515
468.1908	0.011607
468.4120	0.010889
468.6333	0.011291
468.8545	0.010742
469.0758	0.009940
469.2970	0.010193
469.5183	0.008778
469.7396	0.009623
469.9610	0.010531
470.1823	0.008926
470.4036	0.010678
470.6250	0.010172
470.8463	0.008272
471.0677	0.008905
471.2891	0.009644
471.5105	0.009095
471.7319	0.009581
471.9533	0.007005
472.1748	0.010151
472.3962	0.008757
472.6177	0.010087
472.8391	0.009517
473.0606	0.009623
473.2821	0.009644
473.5036	0.008968
473.7251	0.008525
473.9467	0.008314
474.1682	0.007660
474.3898	0.008694
474.6113	0.007871
474.8329	0.008103
475.0545	0.009581
475.2761	0.009454
475.4977	0.007491
475.7193	0.008208
475.9410	0.009074
476.1626	0.009750
476.3843	0.008483
476.6060	0.008504
476.8277	0.006266
477.0494	0.007850
477.2711	0.007195
477.4928	0.008293
477.7145	0.006414
477.9363	0.007512
478.1580	0.006815
478.3798	0.008040
478.6016	0.007955
478.8234	0.006878
479.0452	0.006625
479.2670	0.006984
479.4888	0.007976
479.7107	0.006625
479.9325	0.005084
480.1544	0.008863
480.3763	0.007976
480.5982	0.007322
480.8201	0.007512
481.0420	0.006097
481.2639	0.006372
481.4859	0.008040
481.7078	0.007533
481.9298	0.007765
482.1517	0.005443
482.3737	0.006499
482.5957	0.007153
482.8177	0.007322
483.0398	0.005781
483.2618	0.006393
483.4838	0.006857
483.7059	0.007554
483.9280	0.006878
484.1501	0.007005
484.3721	0.006287
484.5943	0.007660
484.8164	0.006815
485.0385	0.007786
485.2606	0.006689
485.4828	0.008757
485.7050	0.012431
485.9271	0.018911
486.1493	0.019439
486.3715	0.015386
486.5937	0.012135
486.8160	0.011861
487.0382	0.012304
487.2605	0.009264
487.4827	0.008926
487.7050	0.006857
487.9273	0.006541
488.1496	0.006773
488.3719	0.006815
488.5942	0.005401
488.8165	0.004852
489.0389	0.004092
489.2612	0.005084
489.4836	0.004113
489.7060	0.005971
489.9284	0.003585
490.1508	0.005337
490.3732	0.004261
490.5956	0.004345
490.8180	0.004641
491.0405	0.004852
491.2630	0.005739
491.4854	0.004324
491.7079	0.004873
491.9304	0.004535
492.1529	0.005295
492.3755	0.003627
492.5980	0.003965
492.8205	0.004852
493.0431	0.005633
493.2657	0.003058
493.4882	0.004155
493.7108	0.003796
493.9334	0.003796
494.1561	0.004155
494.3787	0.005549
494.6013	0.002741
494.8240	0.003649
495.0466	0.004873
495.2693	0.005380
495.4920	0.003480
495.7147	0.003691
495.9374	0.003817
496.1601	0.002361
496.3829	0.003775
496.6056	0.005359
496.8284	0.004767
497.0511	0.003036
497.2739	0.002635
497.4967	0.003522
497.7195	0.003817
497.9423	0.005105
498.1652	0.001896
498.3880	0.003944
498.6109	0.004620
498.8337	0.004894
499.0566	0.004556
499.2795	0.004704
499.5024	0.004007
499.7253	0.003353
499.9482	0.004303
500.1712	0.003480
500.3941	0.002635
500.6171	0.003395
500.8400	0.003459
501.0630	0.003332
501.2860	0.004050
501.5090	0.003881
501.7320	0.004725
501.9551	0.002466
502.1781	0.002361
502.4012	0.004324
502.6242	0.003332
502.8473	0.003902
503.0704	0.003437
503.2935	0.004029
503.5166	0.002994
503.7397	0.004451
503.9628	0.003332
504.1860	0.004577
504.4092	0.002002
504.6323	0.003311
504.8555	0.004092
505.0787	0.003247
505.3019	0.002361
505.5251	0.003965
505.7483	0.003965
505.9716	0.003079
506.1948	0.002340
506.4181	0.003353
506.6414	0.001411
506.8647	0.004915
507.0880	0.004197
507.3113	0.003058
507.5346	0.003205
507.7579	0.002403
507.9813	0.003163
508.2046	0.002551
508.4280	0.003712
508.6514	0.002868
508.8748	0.003501
509.0982	0.003058
509.3216	0.004029
509.5450	0.004197
509.7685	0.002150
509.9919	0.004303
510.2154	0.001495
510.4388	0.005084
510.6623	0.003649
510.8858	0.001875
511.1093	0.003226
511.3329	0.003437
511.5564	0.002846
511.7799	0.003881
512.0035	0.003290
512.2270	0.003100
512.4506	0.001728
512.6742	0.001495
512.8978	0.002952
513.1214	0.001939
513.3451	0.002319
513.5687	0.003205
513.7923	0.002741
514.0160	0.003775
514.2397	0.004599
514.4634	0.003649
514.6871	0.002086
514.9108	0.001833
515.1345	0.002002
515.3582	0.002783
515.5819	0.003036
515.8057	0.003944
516.0295	0.001432
516.2532	0.004197
516.4770	0.002234
516.7008	0.004451
516.9246	0.003670
517.1485	0.003691
517.3723	0.002298
517.5961	0.003395
517.8200	0.002931
518.0439	0.004261
518.2677	0.002340
518.4916	0.004324
518.7155	0.003311
518.9395	0.003226
519.1634	0.002656
519.3873	0.003522
519.6113	0.003015
519.8352	0.004409
520.0592	0.003437
520.2832	0.002488
520.5072	0.002466
520.7312	0.001875
520.9552	0.003817
521.1792	0.003416
521.4033	0.004409
521.6273	0.002678
521.8514	0.003015
522.0755	0.002846
522.2996	0.003817
522.5237	0.002910
522.7478	0.003860
522.9719	0.003775
523.1960	0.003079
523.4202	0.004113
523.6443	0.004071
523.8685	0.003226
524.0927	0.004303
524.3169	0.003374
524.5411	0.002129
524.7653	0.003205
524.9895	0.005527
525.2138	0.003796
525.4380	0.004071
525.6623	0.003817
525.8865	0.004261
526.1108	0.003480
526.3351	0.005232
526.5594	0.003353
526.7837	0.004493
527.0081	0.004240
527.2324	0.004029
527.4568	0.003691
527.6811	0.004240
527.9055	0.003121
528.1299	0.005316
528.3543	0.003986
528.5787	0.004957
528.8031	0.005211
529.0276	0.006013
529.2520	0.004725
529.4765	0.006604
529.7009	0.005084
529.9254	0.006309
530.1499	0.004894
530.3744	0.005612
530.5989	0.004957
530.8234	0.004725
531.0480	0.005549
531.2725	0.006245
531.4971	0.005232
531.7217	0.006942
531.9462	0.004261
532.1708	0.005929
532.3954	0.005021
532.6200	0.006731
532.8447	0.007744
533.0693	0.005844
533.2940	0.006224
533.5186	0.007026
533.7433	0.007068
533.9680	0.006857
534.1927	0.009264
534.4174	0.008483
534.6421	0.006878
534.8668	0.006625
535.0916	0.007026
535.3163	0.007322
535.5411	0.007955
535.7659	0.007765
535.9907	0.008525
536.2155	0.008652
536.4403	0.008377
536.6651	0.008673
536.8899	0.006773
537.1148	0.008420
537.3396	0.008652
537.5645	0.008335
537.7894	0.007301
538.0143	0.008018
538.2392	0.009306
538.4641	0.009560
538.6890	0.009116
538.9139	0.009433
539.1389	0.011417
539.3638	0.009961
539.5888	0.009961
539.8138	0.011164
540.0388	0.009940
540.2638	0.010594
540.4888	0.011776
540.7138	0.010784
540.9389	0.009961
541.1639	0.011248
541.3890	0.011037
541.6140	0.012431
541.8391	0.010911
542.0642	0.011924
542.2893	0.011058
542.5144	0.010911
542.7396	0.011037
542.9647	0.012874
543.1899	0.012979
543.4150	0.012684
543.6402	0.010003
543.8654	0.014225
544.0906	0.014267
544.3158	0.014795
544.5410	0.013571
544.7662	0.013655
544.9915	0.014225
545.2167	0.015090
545.4420	0.015407
545.6673	0.015724
545.8926	0.012409
546.1179	0.014056
546.3432	0.013845
546.5685	0.015555
546.7938	0.015829
547.0192	0.014246
547.2445	0.015639
547.4699	0.016589
547.6953	0.018468
547.9206	0.020241
548.1460	0.018088
548.3715	0.019714
548.5969	0.017603
548.8223	0.021276
549.0478	0.019904
549.2732	0.019967
549.4987	0.016948
549.7242	0.017666
549.9496	0.018236
550.1751	0.017708
550.4007	0.018721
550.6262	0.017497
550.8517	0.017624
551.0773	0.018426
551.3028	0.017054
551.5284	0.015745
551.7540	0.018004
551.9796	0.019355
552.2052	0.020136
552.4308	0.021677
552.6564	0.019165
552.8820	0.022901
553.1077	0.021107
553.3333	0.022374
553.5590	0.022606
553.7847	0.022057
554.0104	0.022986
554.2361	0.023070
554.4618	0.021170
554.6875	0.021846
554.9132	0.022078
555.1390	0.022521
555.3648	0.024379
555.5905	0.024865
555.8163	0.024231
556.0421	0.023830
556.2679	0.027313
556.4937	0.028031
556.7195	0.024189
556.9454	0.024654
557.1712	0.022817
557.3971	0.023767
557.6230	0.026617
557.8488	0.025371
558.0747	0.026490
558.3006	0.022669
558.5266	0.024274
558.7525	0.025181
558.9784	0.024696
559.2044	0.025899
559.4303	0.024569
559.6563	0.025456
559.8823	0.026300
560.1083	0.026870
560.3343	0.028580
560.5603	0.030797
560.7863	0.031388
561.0124	0.032507
561.2384	0.031852
561.4645	0.032042
561.6905	0.031008
561.9166	0.033562
562.1427	0.033478
562.3688	0.034069
562.5949	0.030944
562.8211	0.032823
563.0472	0.032844
563.2733	0.031747
563.4995	0.033055
563.7257	0.036243
563.9519	0.034533
564.1781	0.034850
564.4043	0.037932
564.6305	0.036497
564.8567	0.037531
565.0829	0.039663
565.3092	0.037256
565.5355	0.038354
565.7617	0.038185
565.9880	0.039220
566.2143	0.037932
566.4406	0.039938
566.6669	0.040339
566.8932	0.041077
567.1196	0.044856
567.3459	0.048698
567.5723	0.051949
567.7987	0.052435
568.0250	0.053300
568.2514	0.052794
568.4778	0.058304
568.7043	0.062188
568.9307	0.067677
569.1571	0.069218
569.3836	0.073946
569.6100	0.082855
569.8365	0.088850
570.0630	0.096788
570.2895	0.097865
570.5160	0.099110
570.7425	0.100609
570.9690	0.106647
571.1956	0.114964
571.4221	0.118363
571.6487	0.124548
571.8752	0.126195
572.1018	0.126723
572.3284	0.128960
572.5550	0.122416
572.7816	0.115682
573.0082	0.110890
573.2349	0.121804
573.4615	0.132317
573.6882	0.141922
573.9149	0.149543
574.1415	0.154546
574.3682	0.160647
574.5949	0.163687
574.8216	0.165862
575.0484	0.165334
575.2751	0.166558
575.5018	0.165186
575.7286	0.160626
575.9554	0.154779
576.1821	0.150979
576.4089	0.157692
576.6357	0.162653
576.8626	0.172300
577.0894	0.178021
577.3162	0.178528
577.5431	0.187880
577.7699	0.203945
577.9968	0.236349
578.2237	0.229869
578.4505	0.217540
578.6774	0.205254
578.9044	0.194487
579.1313	0.182855
579.3582	0.182877
579.5851	0.193453
579.8121	0.197126
580.0391	0.202889
580.2660	0.202446
580.4930	0.199005
580.7200	0.192440
580.9470	0.199047
581.1741	0.231473
581.4011	0.280977
581.6281	0.299702
581.8552	0.306457
582.0822	0.301285
582.3093	0.290287
582.5364	0.275910
582.7635	0.252900
582.9906	0.229172
583.2177	0.215914
583.4449	0.199469
583.6720	0.189843
583.8991	0.186888
584.1263	0.190244
584.3535	0.188935
584.5807	0.189991
584.8079	0.206014
585.0351	0.215176
585.2623	0.226153
585.4895	0.229425
585.7167	0.226216
585.9440	0.221340
586.1713	0.205085
586.3985	0.196978
586.6258	0.191764
586.8531	0.194783
587.0804	0.206985
587.3077	0.219862
587.5350	0.227652
587.7624	0.218532
587.9897	0.212706
588.2171	0.197738
588.4445	0.196155
588.6718	0.192630
588.8992	0.181167
589.1266	0.170189
589.3540	0.166368
589.5815	0.161091
589.8089	0.157438
590.0363	0.156826
590.2638	0.148277
590.4913	0.147559
590.7187	0.138967
590.9462	0.133267
591.1737	0.129742
591.4012	0.128770
591.6288	0.127799
591.8563	0.126596
592.0838	0.126174
592.3114	0.126174
592.5389	0.151380
592.7665	0.176163
592.9941	0.193537
593.2217	0.198076
593.4493	0.195480
593.6769	0.192334
593.9046	0.187605
594.1322	0.177113
594.3598	0.168564
594.5875	0.167107
594.8152	0.172490
595.0429	0.186972
595.2705	0.191152
595.4983	0.189336
595.7260	0.178887
595.9537	0.166052
596.1814	0.160901
596.4092	0.150430
596.6369	0.142260
596.8647	0.136940
597.0925	0.139516
597.3203	0.145089
597.5481	0.148108
597.7759	0.145173
598.0037	0.143083
598.2315	0.136835
598.4594	0.137911
598.6872	0.152815
598.9151	0.172237
599.1430	0.179393
599.3709	0.180153
599.5988	0.173841
599.8267	0.173862
600.0546	0.177705
600.2825	0.180217
600.5105	0.183763
600.7384	0.177135
600.9664	0.178443
601.1944	0.182539
601.4223	0.183257
601.6503	0.173314
601.8783	0.166052
602.1064	0.162315
602.3344	0.160457
602.5624	0.164363
602.7905	0.167656
603.0185	0.171667
603.2466	0.177599
603.4747	0.182771
603.7028	0.186043
603.9309	0.180850
604.1590	0.171118
604.3871	0.167297
604.6152	0.156847
604.8434	0.152963
605.0715	0.150768
605.2997	0.154842
605.5279	0.160901
605.7561	0.163729
605.9843	0.171709
606.2125	0.170844
606.4407	0.161893
606.6689	0.155032
606.8972	0.153364
607.1254	0.154483
607.3537	0.154546
607.5819	0.159486
607.8102	0.155327
608.0385	0.152541
608.2668	0.150915
608.4951	0.144266
608.7235	0.138038
608.9518	0.140613
609.1801	0.139115
609.4085	0.129045
609.6369	0.131810
609.8653	0.138925
610.0936	0.145807
610.3220	0.151929
610.5505	0.144139
610.7789	0.139853
611.0073	0.135146
611.2357	0.135716
611.4642	0.135019
611.6927	0.137848
611.9211	0.135737
612.1496	0.134871
612.3781	0.129742
612.6066	0.126026
612.8351	0.128158
613.0637	0.126680
613.2922	0.125308
613.5208	0.129910
613.7493	0.126005
613.9779	0.125245
614.2065	0.123514
614.4351	0.124211
614.6637	0.125519
614.8923	0.121741
615.1209	0.124928
615.3495	0.125055
615.5782	0.128390
615.8068	0.125646
616.0355	0.123788
616.2642	0.117054
616.4929	0.111713
616.7216	0.114141
616.9503	0.111924
617.1790	0.106562
617.4077	0.108019
617.6365	0.108758
617.8652	0.109602
618.0940	0.111565
618.3227	0.110130
618.5515	0.102826
618.7803	0.097844
619.0091	0.093959
619.2379	0.090687
619.4667	0.088112
619.6956	0.089547
619.9244	0.093854
620.1533	0.095184
620.3821	0.100081
620.6110	0.095669
620.8399	0.090772
621.0688	0.079646
621.2977	0.074010
621.5266	0.074221
621.7556	0.076564
621.9845	0.081314
622.2135	0.081272
622.4424	0.085241
622.6714	0.081462
622.9004	0.084713
623.1294	0.088914
623.3584	0.086929
623.5874	0.088175
623.8164	0.085958
624.0454	0.082602
624.2745	0.086866
624.5035	0.091046
624.7326	0.091468
624.9617	0.089505
625.1908	0.086951
625.4199	0.084502
625.6490	0.079351
625.8781	0.078633
626.1072	0.078591
626.3364	0.074833
626.5655	0.071920
626.7947	0.070484
627.0238	0.069513
627.2530	0.072342
627.4822	0.070083
627.7114	0.069218
627.9406	0.069260
628.1698	0.066642
628.3991	0.062019
628.6283	0.058240
628.8576	0.055855
629.0868	0.058599
629.3161	0.062230
629.5454	0.062547
629.7747	0.063117
630.0040	0.062230
630.2333	0.059971
630.4626	0.060668
630.6920	0.058135
630.9213	0.055601
631.1507	0.056171
631.3801	0.050788
631.6094	0.051738
631.8388	0.053047
632.0682	0.050176
632.2976	0.052435
632.5271	0.050113
632.7565	0.046967
632.9859	0.045891
633.2154	0.044730
633.4448	0.043949
633.6743	0.043484
633.9038	0.044582
634.1333	0.045067
634.3628	0.044561
634.5923	0.042682
634.8218	0.041183
635.0514	0.038861
635.2809	0.039874
635.5105	0.041626
635.7400	0.043294
635.9696	0.042703
636.1992	0.043167
636.4288	0.046735
636.6584	0.043547
636.8880	0.042999
637.1177	0.044624
637.3473	0.043653
637.5770	0.040824
637.8066	0.040782
638.0363	0.040318
638.2660	0.041901
638.4957	0.041331
638.7254	0.042323
638.9551	0.043590
639.1848	0.038333
639.4145	0.042006
639.6443	0.038971
639.8740	0.038610
640.1038	0.037660
640.3336	0.037960
640.5633	0.034917
640.7931	0.038646
641.0229	0.034069
641.2528	0.037569
641.4826	0.033215
641.7124	0.034824
641.9423	0.032245
642.1721	0.030666
642.4020	0.032392
642.6319	0.029685
642.8617	0.029625
643.0916	0.028566
643.3216	0.030270
643.5515	0.031111
643.7814	0.030077
644.0113	0.028392
644.2413	0.027554
644.4712	0.027322
644.7012	0.026268
644.9312	0.027985
645.1612	0.028215
645.3912	0.026447
645.6212	0.027009
645.8512	0.029097
646.0812	0.026519
646.3113	0.024852
646.5413	0.025363
646.7714	0.024487
647.0015	0.026546
647.2316	0.023975
647.4616	0.023502
647.6918	0.027171
647.9219	0.025972
648.1520	0.030915
648.3821	0.031033
648.6123	0.032421
648.8424	0.031316
649.0726	0.034981
649.3028	0.033012
649.5329	0.033384
649.7631	0.032263
649.9933	0.032399
650.2236	0.029414
650.4538	0.030040
650.6840	0.029239
650.9143	0.030128
651.1445	0.028453
651.3748	0.027532
651.6051	0.028743
651.8354	0.031025
652.0657	0.030841
652.2960	0.030080
652.5263	0.031591
652.7566	0.031674
652.9870	0.032156
653.2173	0.031883
653.4477	0.030682
653.6780	0.031990
653.9084	0.032117
654.1388	0.034357
654.3692	0.035788
654.5996	0.038542
654.8300	0.041734
655.0605	0.069398
655.2909	0.184277
655.5213	0.518386
655.7518	0.940444
655.9823	1.000000
656.2128	1.000000
656.4433	1.000000
656.6738	1.000000
656.9043	1.000000
657.1348	0.858398
657.3653	0.707507
657.5959	0.610921
657.8264	0.521912
658.0570	0.480085
658.2875	0.448846
658.5181	0.407984
658.7487	0.376947
658.9793	0.362619
659.2099	0.335783
659.4406	0.255005
659.6712	0.166809
659.9018	0.103278
660.1325	0.061593
660.3632	0.039473
660.5938	0.031812
660.8245	0.026780
661.0552	0.024543
661.2859	0.023100
661.5166	0.026787
661.7474	0.022658
661.9781	0.022397
662.2088	0.022896
662.4396	0.023935
662.6704	0.022759
662.9011	0.022272
663.1319	0.023428
663.3627	0.020182
663.5935	0.020808
663.8243	0.020472
664.0552	0.020326
664.2860	0.023185
664.5168	0.021302
664.7477	0.023740
664.9786	0.023806
665.2094	0.024873
665.4403	0.025148
665.6712	0.024716
665.9021	0.024124
666.1330	0.024945
666.3640	0.023446
666.5949	0.022349
666.8259	0.022842
667.0568	0.020718
667.2878	0.021044
667.5188	0.022458
667.7497	0.020790
667.9807	0.024061
668.2117	0.023157
668.4428	0.020938
668.6738	0.020790
668.9048	0.022099
669.1359	0.020305
669.3669	0.023112
669.5980	0.021972
669.8291	0.023112
670.0602	0.020094
670.2913	0.022817
670.5224	0.021677
670.7535	0.022120
670.9846	0.020706
671.2157	0.023957
671.4469	0.025793
671.6781	0.029087
671.9092	0.028770
672.1404	0.030353
672.3716	0.034597
672.6028	0.035357
672.8340	0.033984
673.0652	0.033837
673.2964	0.031303
673.5277	0.032169
673.7589	0.029002
673.9902	0.029403
674.2214	0.028728
674.4527	0.027672
674.6840	0.028496
674.9153	0.027588
675.1466	0.026321
675.3779	0.026722
675.6093	0.027440
675.8406	0.027081
676.0719	0.026891
676.3033	0.027123
676.5347	0.023598
676.7661	0.024527
676.9974	0.024358
677.2288	0.025202
677.4602	0.026659
677.6917	0.028242
677.9231	0.028918
678.1545	0.028643
678.3860	0.029340
678.6174	0.028791
678.8489	0.031071
679.0804	0.030142
679.3119	0.032169
679.5434	0.037130
679.7749	0.035441
680.0064	0.035335
680.2379	0.034301
680.4694	0.035483
680.7010	0.035378
680.9325	0.036095
681.1641	0.034808
681.3957	0.033435
681.6273	0.034955
681.8589	0.035694
682.0905	0.034174
682.3221	0.034660
682.5537	0.033224
682.7854	0.032823
683.0170	0.029108
683.2487	0.030543
683.4803	0.031367
683.7120	0.031578
683.9437	0.033435
684.1754	0.032971
684.4071	0.035462
684.6388	0.037088
684.8705	0.039811
685.1023	0.040909
685.3340	0.042999
685.5658	0.044687
685.7975	0.044244
686.0293	0.044392
686.2611	0.046038
686.4929	0.044307
686.7247	0.044518
686.9565	0.043505
687.1883	0.045004
687.4202	0.043864
687.6520	0.045764
687.8838	0.041584
688.1157	0.042407
688.3476	0.037299
688.5795	0.039135
688.8114	0.038713
689.0433	0.037256
689.2752	0.036454
689.5071	0.037278
689.7390	0.036349
689.9710	0.037299
690.2029	0.036581
690.4349	0.034892
690.6669	0.035314
690.8988	0.035525
691.1308	0.037193
691.3628	0.038460
691.5948	0.040170
691.8269	0.038143
692.0589	0.034892
692.2909	0.037784
692.5230	0.038840
692.7550	0.038671
692.9871	0.038375
693.2192	0.039156
693.4513	0.039579
693.6834	0.038945
693.9155	0.038966
694.1476	0.035145
694.3797	0.034238
694.6119	0.033478
694.8440	0.035610
695.0762	0.034048
695.3083	0.036475
695.5405	0.031979
695.7727	0.029424
696.0049	0.032401
696.2371	0.030269
696.4693	0.034259
696.7016	0.036117
696.9338	0.038523
697.1660	0.040782
697.3983	0.039220
697.6306	0.038059
697.8628	0.037742
698.0951	0.038502
698.3274	0.037383
698.5597	0.037109
698.7920	0.038164
699.0243	0.038122
699.2567	0.035779
699.4890	0.035568
699.7214	0.034132
699.9537	0.032380
700.1861	0.033457
700.4185	0.030480
700.6509	0.033583
700.8833	0.029678
701.1157	0.028348
701.3481	0.026807
701.5806	0.031662
701.8130	0.030100
702.0454	0.030670
702.2779	0.031198
702.5104	0.030881
702.7429	0.028897
702.9753	0.028517
703.2078	0.029403
703.4403	0.029762
703.6729	0.028686
703.9054	0.028327
704.1379	0.029340
704.3705	0.028221
704.6030	0.026638
704.8356	0.024548
705.0682	0.025688
705.3008	0.023070
705.5334	0.025055
705.7660	0.025287
705.9986	0.024886
706.2312	0.028116
706.4638	0.029804
706.6965	0.033710
706.9291	0.033921
707.1618	0.037362
707.3945	0.037911
707.6272	0.039346
707.8599	0.036961
708.0926	0.039199
708.3253	0.039642
708.5580	0.036138
708.7907	0.037700
709.0235	0.036264
709.2562	0.034238
709.4890	0.032422
709.7217	0.032401
709.9545	0.035673
710.1873	0.033900
710.4201	0.034977
710.6529	0.034723
710.8857	0.032464
711.1186	0.033837
711.3514	0.033140
711.5842	0.031662
711.8171	0.031852
712.0500	0.027905
712.2828	0.030163
712.5157	0.028876
712.7486	0.030501
712.9815	0.028432
713.2144	0.030628
713.4474	0.033963
713.6803	0.033288
713.9132	0.034850
714.1462	0.033942
714.3791	0.033984
714.6121	0.034259
714.8451	0.036074
715.0781	0.035378
715.3111	0.034470
715.5441	0.035441
715.7771	0.034048
716.0102	0.031958
716.2432	0.031029
716.4762	0.029572
716.7093	0.027651
716.9424	0.029171
717.1754	0.028073
717.4085	0.027166
717.6416	0.026216
717.8747	0.028517
718.1078	0.027145
718.3410	0.029572
718.5741	0.029910
718.8072	0.027883
719.0404	0.028116
719.2736	0.028749
719.5067	0.030079
719.7399	0.028031
719.9731	0.028179
720.2063	0.029952
720.4395	0.028242
720.6727	0.027145
720.9060	0.028306
721.1392	0.031008
721.3725	0.029002
721.6057	0.030881
721.8390	0.028939
722.0723	0.030269
722.3055	0.028707
722.5388	0.029488
722.7721	0.027292
723.0055	0.028939
723.2388	0.024844
723.4721	0.027229
723.7055	0.028855
723.9388	0.028749
724.1722	0.026701
724.4056	0.024886
724.6389	0.024252
724.8723	0.027546
725.1057	0.032253
725.3391	0.032844
725.5726	0.031536
725.8060	0.033435
726.0394	0.033414
726.2729	0.033984
726.5063	0.032127
726.7398	0.035230
726.9733	0.033119
727.2068	0.031662
727.4403	0.032042
727.6738	0.032190
727.9073	0.033330
728.1408	0.032908
728.3743	0.032718
728.6079	0.034132
728.8414	0.034977
729.0750	0.032823
729.3086	0.036201
729.5421	0.037066
729.7757	0.035927
730.0093	0.037362
730.2429	0.037362
730.4766	0.037341
730.7102	0.039769
730.9438	0.042281
731.1775	0.043357
731.4111	0.040634
731.6448	0.044772
731.8785	0.044328
732.1122	0.043167
732.3458	0.041584
732.5795	0.042830
732.8133	0.042745
733.0470	0.042745
733.2807	0.043569
733.5145	0.044497
733.7482	0.047052
733.9820	0.047052
734.2157	0.052160
734.4495	0.055137
734.6833	0.051042
734.9171	0.048867
735.1509	0.047959
735.3847	0.049121
735.6185	0.047896
735.8524	0.049163
736.0862	0.051316
736.3201	0.046988
736.5539	0.049944
736.7878	0.048213
737.0217	0.048867
737.2556	0.051949
737.4895	0.048382
737.7234	0.044160
737.9573	0.043379
738.1912	0.040022
738.4252	0.040909
738.6591	0.040887
738.8931	0.044033
739.1271	0.044772
739.3610	0.046271
739.5950	0.044518
739.8290	0.043970
740.0630	0.046186
740.2970	0.042619
740.5310	0.042429
740.7651	0.040951
740.9991	0.037003
741.2332	0.037256
741.4672	0.036095
741.7013	0.034618
741.9354	0.034407
742.1695	0.032844
742.4036	0.034238
742.6377	0.036686
742.8718	0.037214
743.1059	0.034597
743.3400	0.031156
743.5742	0.031810
743.8083	0.029994
744.0425	0.030797
744.2767	0.029910
744.5108	0.031789
744.7450	0.028453
744.9792	0.029657
745.2134	0.028242
745.4477	0.029636
745.6819	0.030016
745.9161	0.026828
746.1504	0.028559
746.3846	0.026891
746.6189	0.028263
746.8532	0.029171
747.0874	0.030163
747.3217	0.033309
747.5560	0.032190
747.7903	0.029931
748.0247	0.029720
748.2590	0.028770
748.4933	0.030586
748.7277	0.028833
748.9620	0.030923
749.1964	0.031071
749.4308	0.033794
749.6652	0.035821
749.8995	0.037911
750.1339	0.037446
750.3684	0.039431
750.6028	0.041289
750.8372	0.038038
751.0717	0.039769
751.3061	0.039705
751.5406	0.040128
751.7750	0.042006
752.0095	0.038819
752.2440	0.040043
752.4785	0.039536
752.7130	0.038882
752.9475	0.037489
753.1820	0.033689
753.4166	0.038101
753.6511	0.039452
753.8856	0.042070
754.1202	0.041436
754.3548	0.039684
754.5894	0.042619
754.8239	0.041204
755.0585	0.040930
755.2931	0.041837
755.5278	0.041647
755.7624	0.041859
755.9970	0.042576
756.2317	0.046271
756.4663	0.049121
756.7010	0.051211
756.9356	0.050324
757.1703	0.052519
757.4050	0.057945
757.6397	0.058029
757.8744	0.062842
758.1091	0.057713
758.3438	0.057269
758.5786	0.055243
758.8133	0.054504
759.0481	0.055411
759.2828	0.056678
759.5176	0.058557
759.7524	0.059845
759.9872	0.060457
760.2220	0.060499
760.4568	0.063560
760.6916	0.064067
760.9264	0.064088
761.1613	0.062251
761.3961	0.058451
761.6310	0.055264
761.8658	0.053469
762.1007	0.050683
762.3356	0.049754
762.5705	0.048086
762.8054	0.049142
763.0403	0.051084
763.2752	0.050662
763.5101	0.052878
763.7450	0.050155
763.9800	0.050028
764.2149	0.052160
764.4499	0.057143
764.6849	0.059887
764.9198	0.059169
765.1548	0.060731
765.3898	0.057713
765.6248	0.054483
765.8599	0.050113
766.0949	0.051253
766.3299	0.048276
766.5650	0.046292
766.8000	0.041415
767.0351	0.040085
767.2701	0.038544
767.5052	0.038312
767.7403	0.039283
767.9754	0.041352
768.2105	0.042365
768.4456	0.045321
768.6808	0.046418
768.9159	0.050324
769.1510	0.047347
769.3862	0.046735
769.6214	0.048762
769.8565	0.044350
770.0917	0.046123
770.3269	0.046123
770.5621	0.046693
770.7973	0.047981
771.0325	0.047073
771.2677	0.047136
771.5030	0.046313
771.7382	0.045405
771.9735	0.042492
772.2087	0.040972
772.4440	0.042006
772.6793	0.043041
772.9146	0.040233
773.1499	0.040909
773.3852	0.039536
773.6205	0.039579
773.8558	0.037468
774.0911	0.037510
774.3265	0.035167
774.5618	0.031536
774.7972	0.030839
775.0326	0.031240
775.2679	0.029994
775.5033	0.029678
775.7387	0.029614
775.9741	0.025688
776.2095	0.027123
776.4450	0.026258
776.6804	0.026997
776.9158	0.026089
777.1513	0.025392
777.3868	0.025224
777.6222	0.024084
777.8577	0.026152
778.0932	0.025055
778.3287	0.025962
778.5642	0.027313
778.7997	0.028833
779.0352	0.030079
779.2707	0.031873
779.5063	0.033499
779.7418	0.031852
779.9774	0.029868
780.2130	0.028390
780.4485	0.029657
780.6841	0.028770
780.9197	0.030480
781.1553	0.034027
781.3909	0.034048
781.6265	0.034407
781.8622	0.035251
782.0978	0.035399
782.3335	0.036518
782.5691	0.033541
782.8048	0.035694
783.0405	0.034069
783.2761	0.034597
783.5118	0.035884
783.7475	0.035167
783.9832	0.034892
784.2190	0.033668
784.4547	0.029910
784.6904	0.028116
784.9262	0.028939
785.1619	0.029889
785.3977	0.028559
785.6335	0.031557
785.8692	0.029256
786.1050	0.030016
786.3408	0.030670
786.5766	0.027229
786.8124	0.027145
787.0483	0.028242
787.2841	0.030058
787.5199	0.030987
787.7558	0.029256
787.9917	0.030100
788.2275	0.028876
788.4634	0.030269
788.6993	0.031156
788.9352	0.031578
789.1711	0.029087
789.4070	0.030522
789.6429	0.028559
789.8789	0.029467
790.1148	0.026469
790.3507	0.026005
790.5867	0.024590
790.8227	0.026997
791.0586	0.023619
791.2946	0.026448
791.5306	0.025561
791.7666	0.025160
792.0026	0.024084
792.2387	0.023408
792.4747	0.022648
792.7107	0.023704
792.9468	0.021044
793.1828	0.022669
793.4189	0.022184
793.6550	0.022986
793.8910	0.028517
794.1271	0.029424
794.3632	0.033245
794.5993	0.033119
794.8355	0.033731
795.0716	0.031789
795.3077	0.031852
795.5439	0.032190
795.7800	0.028496
796.0162	0.027166
796.2523	0.025055
796.4885	0.022901
796.7247	0.022542
796.9609	0.020727
797.1971	0.023007
797.4333	0.022310
797.6695	0.023450
797.9058	0.022901
798.1420	0.022374
798.3783	0.023809
798.6145	0.022627
798.8508	0.023535
799.0871	0.023704
799.3233	0.024506
799.5596	0.021867
799.7959	0.023577
800.0322	0.022247
800.2686	0.020537
800.5049	0.017117
800.7412	0.019376
800.9776	0.018384
801.2139	0.019186
801.4503	0.019840
801.6867	0.017624
801.9230	0.018405
802.1594	0.017856
802.3958	0.018278
802.6322	0.017645
802.8686	0.016906
803.1051	0.018531
803.3415	0.016864
803.5779	0.018426
803.8144	0.016885
804.0508	0.018996
804.2873	0.018109
804.5238	0.018954
804.7603	0.017835
804.9968	0.017687
805.2333	0.017603
805.4698	0.017370
805.7063	0.018700
805.9428	0.020727
806.1794	0.021677
806.4159	0.024801
806.6525	0.024675
806.8890	0.024231
807.1256	0.023619
807.3622	0.023302
807.5988	0.022120
807.8354	0.023176
808.0720	0.023429
808.3086	0.022732
808.5452	0.024337
808.7818	0.023915
809.0185	0.022838
809.2551	0.021445
809.4918	0.019545
809.7284	0.019883
809.9651	0.020009
810.2018	0.021191
810.4385	0.020030
810.6752	0.018954
810.9119	0.018278
811.1486	0.018848
811.3853	0.021086
811.6221	0.019418
811.8588	0.017413
812.0956	0.016610
812.3323	0.014795
812.5691	0.015386
812.8059	0.015724
813.0427	0.015238
813.2795	0.016104
813.5163	0.014964
813.7531	0.017455
813.9899	0.020220
814.2267	0.019861
814.4636	0.018933
814.7004	0.019038
814.9373	0.017919
815.1742	0.016463
815.4110	0.015703
815.6479	0.013929
815.8848	0.015998
816.1217	0.015323
816.3586	0.013718
816.5955	0.012705
816.8324	0.015893
817.0694	0.013254
817.3063	0.016294
817.5433	0.015682
817.7802	0.014394
818.0172	0.017307
818.2542	0.015090
818.4912	0.013866
818.7282	0.014225
818.9652	0.013929
819.2022	0.012874
819.4392	0.012895
819.6762	0.012726
819.9133	0.013043
820.1503	0.012958
820.3874	0.014858
820.6244	0.015893
820.8615	0.015513
821.0986	0.016188
821.3357	0.016230
821.5727	0.016104
821.8099	0.014879
822.0470	0.013212
822.2841	0.013908
822.5212	0.012895
822.7584	0.014162
822.9955	0.012388
823.2327	0.013233
823.4698	0.013233
823.7070	0.012409
823.9442	0.010510
824.1814	0.010214
824.4186	0.011312
824.6558	0.010235
824.8930	0.011396
825.1302	0.012156
825.3675	0.015090
825.6047	0.014225
825.8419	0.012789
826.0792	0.013296
826.3165	0.012008
826.5537	0.012473
826.7910	0.012557
827.0283	0.013507
827.2656	0.013951
827.5029	0.014837
827.7402	0.014056
827.9776	0.013191
828.2149	0.010974
828.4522	0.013824
828.6896	0.011122
828.9270	0.012832
829.1643	0.012515
829.4017	0.012557
829.6391	0.011565
829.8765	0.012853
830.1139	0.011459
830.3513	0.011839
830.5887	0.010784
830.8261	0.010678
831.0636	0.007638
831.3010	0.009327
831.5385	0.008462
831.7759	0.008420
832.0134	0.007512
832.2509	0.008145
832.4884	0.009792
832.7259	0.009940
832.9634	0.009834
833.2009	0.009771
833.4384	0.008251
833.6759	0.009264
833.9135	0.008905
834.1510	0.011016
834.3886	0.011016
834.6261	0.010214
834.8637	0.010911
835.1013	0.010362
835.3389	0.010446
835.5765	0.009834
835.8141	0.008504
836.0517	0.010425
836.2893	0.009095
836.5269	0.009032
836.7646	0.008715
837.0022	0.007744
837.2399	0.008652
837.4775	0.006984
837.7152	0.008145
837.9529	0.008356
838.1906	0.007322
838.4283	0.007385
838.6660	0.006625
838.9037	0.006055
839.1414	0.006372
839.3791	0.006097
839.6169	0.006794
839.8546	0.007913
840.0924	0.007807
840.3302	0.006245
840.5679	0.006287
840.8057	0.009496
841.0435	0.007216
841.2813	0.008061
841.5191	0.006562
841.7569	0.006815
841.9947	0.006921
842.2326	0.006414
842.4704	0.005042
842.7082	0.005781
842.9461	0.005675
843.1840	0.005232
843.4218	0.004324
843.6597	0.005337
843.8976	0.007491
844.1355	0.006625
844.3734	0.005760
844.6113	0.005485
844.8492	0.004345
845.0872	0.004810
845.3251	0.004852
845.5631	0.006942
845.8010	0.006583
846.0390	0.004852
846.2770	0.006140
846.5149	0.005802
846.7529	0.005696
846.9909	0.004620
847.2289	0.005169
847.4669	0.005739
847.7050	0.004387
847.9430	0.005696
848.1810	0.006372
848.4191	0.004767
848.6571	0.002889
848.8952	0.006182
849.1333	0.004683
849.3713	0.005844
849.6094	0.005401
849.8475	0.004873
850.0856	0.004472
850.3237	0.003817
850.5619	0.004387
850.8000	0.005844
851.0381	0.004746
851.2763	0.004197
851.5144	0.004915
851.7526	0.005527
851.9908	0.005147
852.2289	0.006646
852.4671	0.006731
852.7053	0.008293
852.9435	0.008377
853.1817	0.012283
853.4200	0.013718
853.6582	0.012895
853.8964	0.015407
854.1347	0.011839
854.3729	0.012557
854.6112	0.014689
854.8495	0.014943
855.0877	0.014056
855.3260	0.011122
855.5643	0.014753
855.8026	0.011755
856.0409	0.013507
856.2792	0.012937
856.5176	0.013169
856.7559	0.012219
856.9942	0.012515
857.2326	0.010235
857.4710	0.009686
857.7093	0.010742
857.9477	0.011565
858.1861	0.011544
858.4245	0.011122
858.6629	0.009560
858.9013	0.009560
859.1397	0.007681
859.3781	0.011333
859.6166	0.008673
859.8550	0.010699
860.0935	0.008356
860.3319	0.007533
860.5704	0.008863
860.8089	0.007955
861.0473	0.007448
861.2858	0.006435
861.5243	0.007364
861.7628	0.008208
862.0013	0.007448
862.2399	0.006857
862.4784	0.005865
862.7169	0.006520
862.9555	0.006752
863.1940	0.005929
863.4326	0.007111
863.6712	0.007955
863.9098	0.007660
864.1483	0.008800
864.3869	0.006625
864.6255	0.007364
864.8642	0.004662
865.1028	0.006667
865.3414	0.005169
865.5800	0.006161
865.8187	0.005527
866.0573	0.004050
866.2960	0.005105
866.5347	0.003332
866.7733	0.004493
867.0120	0.006351
867.2507	0.006583
867.4894	0.005739
867.7281	0.003965
867.9669	0.006456
868.2056	0.005042
868.4443	0.007533
868.6831	0.005633
868.9218	0.005591
869.1606	0.005739
869.3993	0.006351
869.6381	0.005042
869.8769	0.004577
870.1157	0.004979
870.3545	0.005190
870.5933	0.004261
870.8321	0.004789
871.0709	0.005549
871.3097	0.005042
871.5486	0.004789
871.7874	0.005464
872.0263	0.004662
872.2651	0.006435
872.5040	0.005295
872.7429	0.004324
872.9818	0.005274
873.2207	0.005274
873.4596	0.004409
873.6985	0.006667
873.9374	0.006013
874.1763	0.005865
874.4153	0.006942
874.6542	0.005147
874.8932	0.005126
875.1321	0.005549
875.3711	0.006287
875.6101	0.005211
875.8491	0.006287
876.0880	0.006330
876.3270	0.005169
876.5661	0.005675
876.8051	0.004873
877.0441	0.005675
877.2831	0.005950
877.5222	0.006456
877.7612	0.006287
878.0003	0.008398
878.2393	0.007258
878.4784	0.006034
878.7175	0.006182
878.9566	0.007111
879.1957	0.006330
879.4348	0.008947
879.6739	0.006583
879.9130	0.008757
880.1521	0.008757
880.3913	0.007828
880.6304	0.007786
880.8696	0.007828
881.1087	0.008715
881.3479	0.006330
881.5871	0.007237
881.8262	0.008208
882.0654	0.006266
882.3046	0.005717
882.5438	0.006921
882.7831	0.007237
883.0223	0.005232
883.2615	0.005760
883.5007	0.005717
883.7400	0.006203
883.9792	0.005654
884.2185	0.004894
884.4578	0.005654
884.6971	0.005739
884.9363	0.006097
885.1756	0.005316
885.4149	0.005549
885.6542	0.007322
885.8936	0.005527
886.1329	0.006984
886.3722	0.006815
886.6116	0.006646
886.8509	0.007575
887.0903	0.007280
887.3296	0.006245
887.5690	0.004831
887.8084	0.005422
888.0478	0.006625
888.2872	0.006646
888.5266	0.005696
888.7660	0.005591
889.0054	0.004894
889.2448	0.006287
889.4843	0.005169
889.7237	0.004303
889.9632	0.002952
890.2026	0.004662
890.4421	0.005147
890.6816	0.006499
890.9211	0.003543
891.1606	0.005971
891.4001	0.004789
891.6396	0.006499
891.8791	0.004894
892.1186	0.005485
892.3581	0.004683
892.5977	0.004873
892.8372	0.005654
893.0768	0.006119
893.3163	0.005886
893.5559	0.007068
893.7955	0.004873
894.0351	0.005464
894.2747	0.005886
894.5143	0.004430
894.7539	0.004345
894.9935	0.003606
895.2331	0.004620
895.4727	0.005717
895.7124	0.004704
895.9520	0.005886
896.1917	0.004725
896.4314	0.005337
896.6710	0.005464
896.9107	0.004852
897.1504	0.003839
897.3901	0.006076
897.6298	0.004767
897.8695	0.006097
898.1092	0.004366
898.3489	0.003860
898.5887	0.004451
898.8284	0.005316
899.0682	0.005042
899.3079	0.006013
899.5477	0.003986
899.7875	0.005021
900.0272	0.004979
900.2670	0.004599
900.5068	0.002783
900.7466	0.005675
900.9864	0.002656
901.2263	0.005380
901.4661	0.003627
901.7059	0.005929
901.9458	0.005105
902.1856	0.006182
902.4255	0.004324
902.6654	0.005253
902.9052	0.004767
903.1451	0.004873
903.3850	0.003649
903.6249	0.003036
903.8648	0.004050
904.1047	0.003775
904.3446	0.004704
904.5846	0.004493
904.8245	0.004240
905.0644	0.005021
905.3044	0.005190
905.5444	0.005506
905.7843	0.004704
906.0243	0.005506
906.2643	0.006266
906.5043	0.005316
906.7443	0.005253
906.9843	0.004789
907.2243	0.004915
907.4643	0.004387
907.7043	0.003606
907.9444	0.004071
908.1844	0.003374
908.4245	0.004050
908.6645	0.005190
908.9046	0.004282
909.1447	0.004240
909.3847	0.003184
909.6248	0.003332
909.8649	0.004240
910.1050	0.003944
910.3452	0.004155
910.5853	0.003269
910.8254	0.004451
911.0655	0.004197
911.3057	0.004535
911.5458	0.004683
911.7860	0.004577
912.0262	0.003986
912.2663	0.004641
912.5065	0.003290
912.7467	0.003754
912.9869	0.004894
913.2271	0.004345
913.4673	0.002868
913.7075	0.002783
913.9478	0.004113
914.1880	0.003353
914.4283	0.002361
914.6685	0.003290
914.9088	0.002466
915.1490	0.003860
915.3893	0.002509
915.6296	0.003079
915.8699	0.004029
916.1102	0.002530
916.3505	0.004176
916.5908	0.002910
916.8311	0.003649
917.0714	0.005401
917.3118	0.003269
917.5521	0.004620
917.7925	0.004556
918.0328	0.003944
918.2732	0.003522
918.5136	0.004683
918.7539	0.004113
918.9943	0.003670
919.2347	0.002424
919.4751	0.004155
919.7155	0.004957
919.9560	0.003480
920.1964	0.004620
920.4368	0.003480
920.6773	0.004577
920.9177	0.003627
921.1582	0.003754
921.3986	0.003480
921.6391	0.003058
921.8796	0.004767
922.1201	0.003480
922.3606	0.002952
922.6011	0.003290
922.8416	0.003459
923.0821	0.002551
923.3226	0.003923
923.5631	0.003585
923.8037	0.004092
924.0442	0.003522
924.2848	0.003416
924.5254	0.003226
924.7659	0.003374
925.0065	0.002108
925.2471	0.004197
925.4877	0.001833
925.7283	0.002762
925.9689	0.002699
926.2095	0.002973
926.4501	0.002129
926.6908	0.003691
926.9314	0.001896
927.1720	0.003817
927.4127	0.001854
927.6533	0.003184
927.8940	0.001453
928.1347	0.003142
928.3754	0.001749
928.6161	0.002952
928.8568	0.002741
929.0975	0.002382
929.3382	0.003036
929.5789	0.002846
929.8196	0.003226
930.0604	0.001622
930.3011	0.000714
930.5419	0.002804
930.7826	0.001411
931.0234	0.003649
931.2642	0.001706
931.5049	0.002150
931.7457	0.002572
931.9865	0.002445
932.2273	0.001516
932.4681	0.002868
932.7089	0.002086
932.9498	0.002783
933.1906	0.002002
933.4314	0.002466
933.6723	0.000588
933.9131	0.004240
934.1540	0.002086
934.3949	0.001685
934.6358	0.002910
934.8766	0.001918
935.1175	0.002255
935.3584	0.002530
935.5993	0.002741
935.8403	0.000651
936.0812	0.001242
936.3221	0.002023
936.5630	-0.000025
936.8040	0.001580
937.0449	0.002614
937.2859	0.001685
937.5269	0.002213
937.7678	0.002340
938.0088	0.002298
938.2498	0.000841
938.4908	0.001432
938.7318	0.002720
938.9728	0.000081
939.2138	0.002403
939.4549	0.002298
939.6959	0.002065
939.9369	0.001580
940.1780	0.002023
940.4190	0.002889
940.6601	-0.000004
940.9012	0.001770
941.1422	0.002298
941.3833	0.001854
941.6244	0.001516
941.8655	0.000503
942.1066	0.001812
942.3477	0.001432
942.5889	0.001179
942.8300	0.002361
943.0711	0.002086
943.3123	0.000946
943.5534	0.001221
943.7946	0.000862
944.0357	0.001031
944.2769	0.002382
944.5181	0.001453
944.7593	0.001812
945.0005	0.000123
945.2417	0.001369
945.4829	0.000693
945.7241	0.001833
945.9653	0.001495
946.2066	0.000862
946.4478	0.001918
946.6891	0.001432
946.9303	0.001326
947.1716	0.000503
947.4128	0.002551
947.6541	0.001516
947.8954	0.000693
948.1367	0.000883
948.3780	0.001200
948.6193	0.000904
948.8606	0.001073
949.1019	0.001326
949.3433	0.001326
949.5846	0.001221
949.8259	0.000334
950.0673	0.001094
950.3086	0.002340
950.5500	0.000186
950.7914	0.001432
951.0327	0.002994
951.2741	0.000250
951.5155	0.001179
951.7569	0.002171
951.9983	0.002150
952.2398	0.001432
952.4812	0.001242
952.7226	0.001981
952.9640	0.002445
953.2055	0.000904
953.4469	0.001896
953.6884	0.001685
953.9299	0.001495
954.1713	0.000925
954.4128	0.001263
954.6543	0.001896
954.8958	0.002065
955.1373	0.001348
955.3788	0.001538
955.6203	0.001875
955.8618	0.001601
956.1034	-0.000088
956.3449	0.000968
956.5865	0.001305
956.8280	0.001411
957.0696	0.001495
957.3111	0.000883
957.5527	0.001939
957.7943	0.001939
958.0359	0.001981
958.2775	0.001580
958.5191	-0.000088
958.7607	0.000524
959.0023	-0.000130
959.2439	0.000925
959.4856	0.001812
959.7272	0.001728
959.9688	0.002108
960.2105	0.000271
960.4522	0.002804
960.6938	0.001791
960.9355	0.001643
961.1772	0.000081
961.4189	0.001136
961.6606	0.002023
961.9023	0.000208
962.1440	-0.000552
962.3857	-0.000046
962.6274	0.001221
962.8692	0.001369
963.1109	0.000672
963.3527	0.001369
963.5944	0.002846
963.8362	0.000524
964.0779	0.001981
964.3197	0.000714
964.5615	0.002108
964.8033	0.001200
965.0451	0.000778
965.2869	-0.000067
965.5287	0.001432
965.7705	0.002530
966.0123	0.001200
966.2542	0.000292
966.4960	0.002825
966.7379	-0.000025
966.9797	0.001538
967.2216	0.000714
967.4634	0.000566
967.7053	0.000693
967.9472	0.000989
968.1891	0.000419
968.4310	0.001770
968.6729	0.001200
968.9148	0.001200
969.1567	0.001495
969.3987	0.001348
969.6406	0.000419
969.8825	0.001516
970.1245	0.001115
970.3664	0.002192
970.6084	0.002002
970.8504	0.002635
971.0923	0.001284
971.3343	0.001390
971.5763	0.001094
971.8183	0.001812
972.0603	0.002234
972.3023	0.002192
972.5443	-0.000510
972.7864	0.001833
973.0284	0.000018
973.2704	0.000545
973.5125	0.000925
973.7545	0.001115
973.9966	-0.000384
974.2387	0.000334
974.4807	0.000799
974.7228	0.001390
974.9649	0.001094
975.2070	0.002192
975.4491	0.000904
975.6912	0.001136
975.9333	0.002741
976.1755	0.002720
976.4176	0.001622
976.6597	0.000524
976.9019	-0.000151
977.1440	0.001918
977.3862	0.000376
977.6283	0.000820
977.8705	0.001073
978.1127	0.000799
978.3549	0.000018
978.5971	0.001390
978.8393	0.000778
979.0815	0.002023
979.3237	-0.000848
979.5659	0.001643
979.8082	0.000693
980.0504	0.002234
980.2926	-0.000489
980.5349	-0.000869
980.7771	0.001453
981.0194	0.000904
981.2617	0.001200
981.5040	0.001580
981.7462	0.000672
981.9885	0.000693
982.2308	0.000081
982.4731	0.000334
982.7155	0.000862
982.9578	-0.000257
983.2001	-0.000172
983.4424	0.000778
983.6848	0.000693
983.9271	0.000968
984.1695	0.001896
984.4118	0.001242
984.6542	0.000672
984.8966	0.000250
985.1390	0.001960
985.3814	0.000630
985.6238	-0.000996
985.8662	0.002509
986.1086	0.000714
986.3510	-0.000215
986.5934	0.001052
986.8358	0.001115
987.0783	-0.000320
987.3207	-0.000025
987.5632	0.000398
987.8056	0.000566
988.0481	0.000820
988.2906	-0.000531
988.5331	0.000398
988.7756	0.000883
989.0180	0.000503
989.2605	0.003374
989.5031	0.000334
989.7456	0.001200
989.9881	-0.000552
990.2306	0.000524
990.4732	0.000060
990.7157	0.000778
990.9582	-0.000489
991.2008	0.000735
991.4434	0.002298
991.6859	0.001664
991.9285	-0.000700
992.1711	0.001812
992.4137	0.001242
992.6563	-0.000257
992.8989	0.000123
993.1415	-0.000130
993.3841	0.000651
993.6267	0.001263
993.8694	0.000630
994.1120	0.000313
994.3547	0.000735
994.5973	0.001918
994.8400	0.001622
995.0826	0.001538
995.3253	0.000968
995.5680	0.002445
995.8107	0.000123
996.0534	0.000545
996.2961	0.000651
996.5388	0.001390
996.7815	0.000989
997.0242	0.000609
997.2670	0.001538
997.5097	0.001263
997.7524	-0.000341
997.9952	0.001326
998.2379	0.000144
998.4807	0.001664
998.7235	-0.000194
998.9662	0.002382
999.2090	0.000165
999.4518	0.001685
999.6946	-0.001397
999.9374	-0.001186
1000.1802	0.001136
1000.4230	0.000102
1000.6659	0.000693
1000.9087	-0.000405
1001.1515	0.000102
1001.3944	0.000440
1001.6372	0.000820
1001.8801	-0.000109
1002.1230	0.000482
1002.3658	-0.001143
1002.6087	0.000376
1002.8516	0.001115
1003.0945	0.000925
1003.3374	-0.000320
1003.5803	0.000186
1003.8232	0.000524
1004.0661	0.001031
1004.3091	-0.000236
1004.5520	0.001326
1004.7949	0.000018
1005.0379	-0.000257
1005.2808	0.000461
1005.5238	0.000440
1005.7667	-0.000067
1006.0097	0.000376
1006.2527	0.000440
1006.4957	0.000862
1006.7387	0.000566
1006.9817	0.000292
1007.2247	-0.000489
1007.4677	0.001031
1007.7107	-0.000067
1007.9538	-0.000151
1008.1968	0.000102
1008.4398	0.000566
1008.6829	0.000144
1008.9259	0.000946
1009.1690	-0.000827
1009.4121	0.000440
1009.6551	-0.000574
1009.8982	0.002234
1010.1413	0.001770
1010.3844	0.000250
1010.6275	0.001432
1010.8706	-0.000637
1011.1137	0.000968
1011.3568	0.000165
1011.6000	0.001094
1011.8431	0.000482
1012.0863	0.000651
1012.3294	0.000060
1012.5726	-0.000088
1012.8157	0.000609
1013.0589	0.001390
1013.3021	0.000735
1013.5452	-0.000489
1013.7884	0.000756
1014.0316	0.000799
1014.2748	0.000989
1014.5180	0.000883
1014.7613	0.001812
1015.0045	-0.000130
1015.2477	-0.000320
1015.4909	-0.000109
1015.7342	0.000672
1015.9774	0.000018
1016.2207	0.000355
1016.4640	0.000123
1016.7072	0.000186
1016.9505	-0.000531
1017.1938	-0.000004
1017.4371	0.002213
1017.6804	0.000186
1017.9237	0.000440
1018.1670	0.000208
1018.4103	-0.000341
1018.6536	0.000883
1018.8969	-0.000320
1019.1403	0.000313
1019.3836	0.000060
1019.6270	0.000735
1019.8703	0.000904
1020.1137	0.000229
1020.3571	0.000862
1020.6004	0.000820
1020.8438	0.002086
1021.0872	-0.000763
1021.3306	-0.000384
1021.5740	0.000482
1021.8174	0.000102
1022.0608	-0.000046
1022.3042	-0.001122
1022.5477	-0.000468
1022.7911	-0.000827
1023.0345	0.000756
