# Wavelength (nm)	Intensity (a.u.)
197.7802	0.001175
197.9842	-0.000345
198.1882	-0.000007
198.3922	0.000162
198.5963	0.002273
198.8003	0.000246
199.0044	0.000584
199.2085	0.000584
199.4126	0.001661
199.6168	-0.000239
199.8209	0.000500
200.0251	0.000141
200.2292	0.000246
200.4334	-0.000134
200.6376	0.000183
200.8418	0.000141
201.0461	-0.000809
201.2503	-0.000366
201.4546	0.000901
201.6589	0.001112
201.8631	0.000943
202.0674	-0.000999
202.2718	0.000120
202.4761	-0.000514
202.6805	0.001302
202.8848	0.000500
203.0892	-0.000746
203.2936	-0.000704
203.4980	-0.000091
203.7024	-0.001168
203.9069	0.000099
204.1113	0.000457
204.3158	0.000500
204.5203	-0.000873
204.7248	-0.000324
204.9293	-0.000028
205.1338	0.001112
205.3384	0.000669
205.5430	0.000035
205.7475	0.000584
205.9521	0.000542
206.1567	-0.000809
206.3614	0.000711
206.5660	-0.000282
206.7706	-0.000767
206.9753	-0.000197
207.1800	0.000626
207.3847	0.000099
207.5894	0.000922
207.7941	0.001450
207.9989	-0.000007
208.2036	-0.001506
208.4084	0.001323
208.6132	-0.000113
208.8180	0.000183
209.0228	0.000901
209.2276	0.001386
209.4325	-0.001379
209.6373	0.001281
209.8422	0.001239
210.0471	0.000246
210.2520	0.000225
210.4569	-0.000472
210.6618	-0.000767
210.8668	0.000162
211.0718	0.000647
211.2767	-0.000577
211.4817	0.000753
211.6867	-0.000176
211.8918	0.000120
212.0968	0.000584
212.3018	-0.000472
212.5069	0.000774
212.7120	-0.000324
212.9171	0.000120
213.1222	-0.000873
213.3273	-0.000155
213.5325	0.000162
213.7376	0.001492
213.9428	0.001534
214.1480	0.001006
214.3532	0.000141
214.5584	0.000626
214.7636	-0.000260
214.9689	0.000056
215.1741	-0.000830
215.3794	0.001893
215.5847	-0.000514
215.7900	0.001281
215.9953	-0.000218
216.2007	0.000880
216.4060	0.000415
216.6114	-0.000345
216.8168	-0.000830
217.0222	0.000436
217.2276	0.001175
217.4330	0.000563
217.6384	-0.000091
217.8439	-0.000282
218.0494	-0.000197
218.2548	-0.000007
218.4603	0.001365
218.6659	0.000457
218.8714	0.001112
219.0769	0.000077
219.2825	-0.001232
219.4881	0.000859
219.6936	-0.000830
219.8992	0.000605
220.1049	0.001239
220.3105	-0.000640
220.5161	-0.000662
220.7218	0.000099
220.9275	0.000859
221.1332	-0.001020
221.3389	0.000331
221.5446	0.000964
221.7503	-0.000260
221.9561	0.000162
222.1618	-0.000387
222.3676	0.000647
222.5734	0.001112
222.7792	0.001471
222.9850	-0.001506
223.1909	0.001555
223.3967	0.000985
223.6026	-0.000830
223.8085	0.001555
224.0144	0.000753
224.2203	-0.001337
224.4262	-0.000155
224.6322	0.000035
224.8381	0.001344
225.0441	-0.000472
225.2501	0.000943
225.4561	0.002273
225.6621	0.000373
225.8681	0.000120
226.0742	-0.000155
226.2802	0.000056
226.4863	-0.000704
226.6924	-0.000873
226.8985	-0.000472
227.1046	0.000183
227.3107	0.000352
227.5169	-0.000366
227.7230	-0.000704
227.9292	0.000711
228.1354	0.000795
228.3416	0.000626
228.5478	0.000626
228.7541	-0.000239
228.9603	0.000774
229.1666	0.000922
229.3729	0.001450
229.5791	0.000014
229.7855	-0.000493
229.9918	0.000310
230.1981	0.001049
230.4045	0.000521
230.6108	0.000584
230.8172	-0.000408
231.0236	0.002020
231.2300	-0.001295
231.4364	-0.000788
231.6429	-0.001147
231.8493	0.000099
232.0558	0.000584
232.2623	-0.000049
232.4688	0.001049
232.6753	0.000816
232.8818	0.000500
233.0884	0.000542
233.2949	0.000964
233.5015	0.000267
233.7081	-0.000556
233.9147	0.001703
234.1213	0.000753
234.3279	0.000120
234.5346	-0.000070
234.7413	0.001429
234.9479	-0.000915
235.1546	0.000352
235.3613	0.001513
235.5680	-0.000767
235.7748	-0.000450
235.9815	-0.000218
236.1883	0.000880
236.3951	0.000141
236.6018	0.000521
236.8087	0.000774
237.0155	0.000162
237.2223	0.001006
237.4292	0.001196
237.6360	-0.000746
237.8429	-0.000303
238.0498	0.000204
238.2567	0.000436
238.4636	-0.000197
238.6706	-0.000049
238.8775	0.000394
239.0845	-0.000239
239.2915	-0.000556
239.4985	-0.000683
239.7055	0.000711
239.9125	-0.000324
240.1195	0.001703
240.3266	0.000669
240.5337	0.000753
240.7407	-0.000873
240.9478	0.000605
241.1549	0.000711
241.3621	0.000436
241.5692	-0.000007
241.7764	-0.000493
241.9835	-0.000028
242.1907	-0.000472
242.3979	-0.000493
242.6051	-0.000007
242.8124	-0.000113
243.0196	0.000225
243.2269	-0.000282
243.4341	0.000880
243.6414	-0.001084
243.8487	-0.000070
244.0560	0.000985
244.2634	0.000056
244.4707	0.001091
244.6781	-0.001147
244.8854	0.000289
245.0928	-0.000028
245.3002	0.000246
245.5076	0.001386
245.7151	-0.000493
245.9225	-0.000936
246.1300	0.000267
246.3375	0.000310
246.5449	0.000626
246.7524	-0.001759
246.9600	0.000436
247.1675	0.000816
247.3750	0.000542
247.5826	0.001027
247.7902	-0.000577
247.9978	0.000436
248.2054	0.000225
248.4130	0.000056
248.6206	-0.000683
248.8283	0.001513
249.0359	-0.000535
249.2436	-0.000366
249.4513	0.000436
249.6590	0.001112
249.8667	0.000521
250.0745	0.000331
250.2822	0.000859
250.4900	0.000859
250.6978	0.000584
250.9056	0.000880
251.1134	-0.000091
251.3212	-0.000070
251.5290	-0.000070
251.7369	-0.000239
251.9447	0.002104
252.1526	0.000647
252.3605	0.000183
252.5684	0.000436
252.7763	0.000077
252.9843	0.000922
253.1922	0.000056
253.4002	0.001154
253.6082	-0.000957
253.8162	0.002358
254.0242	-0.000218
254.2322	0.000964
254.4402	-0.000894
254.6483	0.000669
254.8564	0.000859
255.0644	-0.000514
255.2725	0.001091
255.4806	0.000732
255.6888	-0.000134
255.8969	-0.000493
256.1051	-0.000387
256.3132	0.000647
256.5214	-0.000345
256.7296	-0.000767
256.9378	0.000310
257.1460	0.000626
257.3543	-0.000640
257.5625	0.000816
257.7708	-0.000134
257.9791	0.000605
258.1874	0.001323
258.3957	0.000056
258.6040	-0.000472
258.8124	0.001576
259.0207	-0.000387
259.2291	0.001302
259.4375	0.000436
259.6459	0.000479
259.8543	0.001365
260.0627	-0.000556
260.2711	0.000753
260.4796	0.001935
260.6881	0.000120
260.8965	0.000056
261.1050	0.000500
261.3135	-0.000429
261.5221	0.001323
261.7306	0.000120
261.9392	-0.000873
262.1477	0.000647
262.3563	0.001935
262.5649	-0.001147
262.7735	0.002125
262.9822	0.000584
263.1908	0.001429
263.3995	0.001471
263.6081	-0.001020
263.8168	0.001492
264.0255	-0.000091
264.2342	-0.000324
264.4429	-0.001422
264.6517	0.001978
264.8604	-0.000704
265.0692	-0.000788
265.2780	0.000289
265.4868	0.002252
265.6956	-0.001063
265.9044	0.000943
266.1133	0.000246
266.3221	0.000394
266.5310	0.000626
266.7399	0.001429
266.9488	0.000436
267.1577	0.000162
267.3666	0.000141
267.5755	0.001429
267.7845	0.000352
267.9935	0.000310
268.2024	0.000077
268.4114	0.001070
268.6205	0.000162
268.8295	0.001513
269.0385	0.000352
269.2476	0.000289
269.4566	-0.000429
269.6657	0.000035
269.8748	-0.000472
270.0839	0.000267
270.2931	0.001070
270.5022	0.000922
270.7114	-0.000303
270.9205	0.000500
271.1297	-0.000429
271.3389	0.001070
271.5481	-0.000282
271.7573	-0.000176
271.9666	-0.000429
272.1758	0.000120
272.3851	0.001112
272.5944	0.000457
272.8037	0.001133
273.0130	0.000690
273.2223	-0.000662
273.4316	0.001513
273.6410	0.000077
273.8504	0.000901
274.0597	-0.000218
274.2691	-0.000345
274.4785	0.002189
274.6880	0.000584
274.8974	-0.000303
275.1069	-0.000155
275.3163	0.001049
275.5258	-0.000049
275.7353	0.000246
275.9448	-0.001274
276.1543	0.001006
276.3639	0.000035
276.5734	-0.000408
276.7830	0.001450
276.9926	0.000267
277.2022	0.000077
277.4118	-0.001084
277.6214	0.000289
277.8310	0.000669
278.0407	-0.000619
278.2503	0.000331
278.4600	0.000289
278.6697	0.000225
278.8794	0.001450
279.0891	-0.000345
279.2989	-0.000070
279.5086	0.001703
279.7184	-0.000070
279.9281	0.000077
280.1379	0.001956
280.3477	0.000162
280.5576	-0.000218
280.7674	0.000267
280.9772	0.000246
281.1871	0.000183
281.3970	-0.000218
281.6069	0.000711
281.8168	0.000816
282.0267	0.000415
282.2366	-0.000134
282.4466	0.000753
282.6565	0.000141
282.8665	0.000943
283.0765	0.000985
283.2865	0.000310
283.4965	0.000331
283.7065	-0.001485
283.9166	0.001027
284.1266	0.001133
284.3367	0.001218
284.5468	0.001429
284.7569	0.000964
284.9670	-0.000598
285.1771	0.000162
285.3873	-0.001189
285.5974	0.001365
285.8076	0.001386
286.0178	0.000120
286.2280	0.001133
286.4382	0.000479
286.6484	0.000880
286.8587	0.000035
287.0689	0.000310
287.2792	0.001049
287.4895	-0.000007
287.6998	0.000457
287.9101	0.000162
288.1204	0.000816
288.3308	-0.000535
288.5411	0.000753
288.7515	0.000985
288.9619	-0.001084
289.1723	-0.000535
289.3827	0.000690
289.5931	0.001027
289.8035	-0.000282
290.0140	0.000711
290.2245	0.000331
290.4349	-0.000239
290.6454	0.000753
290.8559	0.000816
291.0665	0.001365
291.2770	0.000183
291.4875	0.000183
291.6981	0.000141
291.9087	0.000669
292.1193	-0.000852
292.3299	0.000837
292.5405	0.000500
292.7511	-0.000493
292.9618	0.000035
293.1724	0.000310
293.3831	0.000837
293.5938	0.000415
293.8045	0.000246
294.0152	0.001619
294.2260	-0.000429
294.4367	0.000120
294.6475	-0.000852
294.8582	0.000331
295.0690	-0.000978
295.2798	0.000246
295.4906	-0.000514
295.7015	0.000584
295.9123	-0.000852
296.1232	0.000436
296.3340	-0.001147
296.5449	0.000225
296.7558	-0.000176
296.9667	0.001175
297.1777	0.000120
297.3886	0.002294
297.5995	0.000753
297.8105	0.000922
298.0215	0.001429
298.2325	0.001281
298.4435	0.000373
298.6545	0.000690
298.8656	-0.000535
299.0766	-0.000070
299.2877	-0.000662
299.4988	0.001239
299.7099	-0.000683
299.9210	0.001323
300.1321	0.000690
300.3432	0.000922
300.5544	0.000289
300.7655	0.000521
300.9767	0.001175
301.1879	0.000964
301.3991	0.000246
301.6103	0.000837
301.8215	-0.000028
302.0328	-0.000070
302.2441	0.001091
302.4553	0.000521
302.6666	-0.000894
302.8779	0.000521
303.0892	0.001154
303.3006	0.000352
303.5119	0.000331
303.7233	0.000415
303.9346	-0.000091
304.1460	0.001027
304.3574	0.000415
304.5688	0.001070
304.7803	0.001112
304.9917	0.000267
305.2031	0.000394
305.4146	0.000162
305.6261	-0.000725
305.8376	0.001133
306.0491	0.000605
306.2606	0.001344
306.4722	-0.000873
306.6837	0.000225
306.8953	-0.000472
307.1069	0.000753
307.3184	0.000859
307.5301	0.001091
307.7417	0.000099
307.9533	-0.000282
308.1650	-0.000218
308.3766	0.000056
308.5883	0.000711
308.8000	0.000816
309.0117	0.000690
309.2234	0.001809
309.4351	-0.000936
309.6469	-0.000282
309.8586	-0.000514
310.0704	0.000922
310.2822	0.000436
310.4940	0.001133
310.7058	0.001471
310.9176	0.001640
311.1295	-0.000345
311.3413	0.001091
311.5532	-0.001063
311.7651	0.000859
311.9770	-0.000514
312.1889	-0.000028
312.4008	0.001070
312.6127	-0.000007
312.8247	0.000922
313.0366	0.001809
313.2486	0.000099
313.4606	0.001534
313.6726	0.000859
313.8846	0.001576
314.0967	-0.000704
314.3087	0.000922
314.5208	0.000605
314.7328	0.000795
314.9449	-0.001105
315.1570	0.001175
315.3692	0.000500
315.5813	0.001534
315.7934	0.000162
316.0056	-0.000387
316.2177	0.000774
316.4299	-0.000936
316.6421	-0.000514
316.8543	0.000880
317.0666	-0.000598
317.2788	0.001555
317.4911	0.000120
317.7033	0.000880
317.9156	-0.001232
318.1279	0.002379
318.3402	-0.000662
318.5525	0.000837
318.7649	-0.000134
318.9772	-0.000366
319.1896	0.001218
319.4019	0.001851
319.6143	0.000267
319.8267	0.001450
320.0392	0.001534
320.2516	0.001196
320.4640	0.000795
320.6765	0.001006
320.8890	0.000859
321.1014	0.000204
321.3139	0.000500
321.5265	0.000711
321.7390	-0.000239
321.9515	-0.000683
322.1641	0.000837
322.3766	0.001006
322.5892	0.000310
322.8018	0.001555
323.0144	-0.000746
323.2270	0.000289
323.4397	0.000331
323.6523	0.001281
323.8650	0.000816
324.0777	0.001049
324.2904	0.000352
324.5031	-0.001422
324.7158	-0.001084
324.9285	0.000014
325.1412	-0.000345
325.3540	-0.000387
325.5668	-0.000662
325.7796	-0.000197
325.9924	0.001006
326.2052	0.001619
326.4180	0.000521
326.6308	-0.000155
326.8437	-0.001084
327.0566	0.000669
327.2694	0.000204
327.4823	-0.000218
327.6952	-0.000387
327.9082	0.001260
328.1211	-0.000303
328.3340	0.000985
328.5470	0.000500
328.7600	0.000690
328.9730	-0.000704
329.1860	-0.000091
329.3990	0.000500
329.6120	0.000795
329.8251	0.001175
330.0381	0.000436
330.2512	0.000436
330.4643	0.001112
330.6774	-0.000028
330.8905	0.000099
331.1036	-0.000852
331.3167	-0.000324
331.5299	-0.000113
331.7431	-0.000303
331.9562	0.000500
332.1694	0.001788
332.3826	0.000584
332.5959	0.001640
332.8091	0.000774
333.0223	0.001006
333.2356	-0.001042
333.4489	-0.000303
333.6622	-0.000577
333.8755	-0.001020
334.0888	-0.000070
334.3021	0.001323
334.5154	-0.000282
334.7288	0.000394
334.9422	-0.000197
335.1555	0.000246
335.3689	0.000289
335.5823	-0.000767
335.7958	-0.000556
336.0092	-0.000683
336.2227	-0.001020
336.4361	0.000542
336.6496	-0.000345
336.8631	0.000500
337.0766	0.000077
337.2901	0.000690
337.5036	-0.000788
337.7172	0.000584
337.9307	0.001196
338.1443	0.000457
338.3579	0.001196
338.5715	0.000985
338.7851	-0.000345
338.9987	0.001302
339.2124	0.000183
339.4260	0.000204
339.6397	-0.000725
339.8533	-0.000070
340.0670	0.000077
340.2807	0.001302
340.4945	-0.000176
340.7082	0.000035
340.9219	-0.001274
341.1357	0.000669
341.3495	0.002674
341.5633	0.000267
341.7771	-0.000303
341.9909	0.001703
342.2047	-0.000556
342.4185	-0.000640
342.6324	-0.000472
342.8463	0.000584
343.0601	0.002505
343.2740	0.001070
343.4879	-0.000683
343.7019	-0.000113
343.9158	0.000563
344.1297	0.001344
344.3437	-0.000852
344.5577	0.001112
344.7717	0.000816
344.9857	0.000162
345.1997	-0.001210
345.4137	0.001027
345.6277	-0.001147
345.8418	0.000964
346.0559	0.000141
346.2699	0.000880
346.4840	0.000141
346.6981	-0.000493
346.9123	-0.000429
347.1264	0.000183
347.3406	-0.000239
347.5547	-0.000197
347.7689	-0.000640
347.9831	0.000246
348.1973	-0.000007
348.4115	0.000711
348.6257	-0.000387
348.8400	0.001682
349.0542	0.000436
349.2685	0.000289
349.4828	0.001386
349.6971	0.001112
349.9114	0.000626
350.1257	0.000289
350.3400	-0.000239
350.5544	-0.000134
350.7687	0.000880
350.9831	0.000373
351.1975	0.000457
351.4119	0.000479
351.6263	0.000711
351.8407	0.000500
352.0552	0.000837
352.2696	0.000035
352.4841	0.000120
352.6986	-0.000429
352.9131	0.001175
353.1276	0.001492
353.3421	-0.000725
353.5566	-0.000134
353.7712	0.000415
353.9858	0.000077
354.2003	-0.000429
354.4149	0.000880
354.6295	0.000542
354.8441	0.000584
355.0588	0.000099
355.2734	-0.000556
355.4881	-0.000493
355.7027	0.000289
355.9174	0.001872
356.1321	-0.000345
356.3468	0.001661
356.5615	0.000183
356.7763	0.000901
356.9910	0.000753
357.2058	-0.000155
357.4206	-0.000113
357.6353	0.000711
357.8501	0.000457
358.0650	-0.000387
358.2798	0.001640
358.4946	0.000267
358.7095	0.000141
358.9243	0.001302
359.1392	0.000542
359.3541	-0.000239
359.5690	0.000310
359.7839	-0.000366
359.9989	0.000837
360.2138	-0.000450
360.4288	0.001154
360.6438	0.000922
360.8587	0.001724
361.0737	0.000605
361.2888	0.001534
361.5038	-0.000282
361.7188	-0.001232
361.9339	0.000943
362.1489	0.001006
362.3640	0.000056
362.5791	0.001239
362.7942	0.001091
363.0093	0.001682
363.2245	0.000837
363.4396	0.001471
363.6548	-0.000260
363.8699	0.000394
364.0851	0.000837
364.3003	0.000753
364.5155	0.000732
364.7308	0.001598
364.9460	0.000584
365.1612	0.001598
365.3765	-0.000915
365.5918	-0.000260
365.8071	-0.000978
366.0224	0.000436
366.2377	0.000077
366.4530	-0.000218
366.6684	0.000289
366.8837	0.000859
367.0991	0.000056
367.3145	-0.000366
367.5299	-0.000282
367.7453	-0.000387
367.9607	0.000162
368.1761	0.000880
368.3916	0.001175
368.6070	0.001070
368.8225	0.001133
369.0380	0.001872
369.2535	0.000584
369.4690	0.001471
369.6845	-0.000070
369.9001	0.000922
370.1156	0.000014
370.3312	0.002062
370.5468	0.001914
370.7624	0.000500
370.9780	0.000331
371.1936	0.000289
371.4092	0.000837
371.6249	-0.000429
371.8405	0.000584
372.0562	0.000289
372.2719	-0.001105
372.4876	0.000120
372.7033	-0.000028
372.9190	0.000859
373.1348	0.000690
373.3505	0.000837
373.5663	-0.000746
373.7820	0.000563
373.9978	0.000056
374.2136	-0.000282
374.4294	-0.000408
374.6453	0.001555
374.8611	0.000647
375.0770	0.001154
375.2928	0.000035
375.5087	0.001598
375.7246	0.000647
375.9405	0.000035
376.1564	-0.000978
376.3724	0.000626
376.5883	0.000690
376.8043	0.000479
377.0203	0.000267
377.2362	0.000500
377.4522	0.000056
377.6682	-0.000767
377.8843	0.001260
378.1003	0.000331
378.3164	0.000267
378.5324	0.000077
378.7485	-0.000303
378.9646	0.001661
379.1807	-0.000007
379.3968	0.000099
379.6129	0.001175
379.8291	0.000563
380.0452	0.000120
380.2614	0.000711
380.4776	-0.000767
380.6938	0.000056
380.9100	0.001682
381.1262	0.000795
381.3424	0.000457
381.5587	-0.000387
381.7749	-0.000704
381.9912	-0.000640
382.2075	-0.001337
382.4238	0.001323
382.6401	0.000605
382.8564	-0.001168
383.0728	-0.000873
383.2891	0.000711
383.5055	-0.000619
383.7219	-0.000556
383.9382	-0.000640
384.1546	0.000331
384.3711	-0.000260
384.5875	0.000204
384.8039	0.000457
385.0204	-0.000176
385.2368	-0.000514
385.4533	0.001027
385.6698	0.001386
385.8863	0.000120
386.1028	0.000500
386.3194	0.000795
386.5359	-0.000472
386.7525	0.000099
386.9690	0.000584
387.1856	-0.000176
387.4022	0.000246
387.6188	0.001619
387.8355	0.000120
388.0521	0.001323
388.2687	0.001027
388.4854	0.000267
388.7021	0.000289
388.9188	0.000943
389.1355	0.000014
389.3522	-0.000070
389.5689	0.002020
389.7856	0.002358
390.0024	0.000077
390.2192	0.002252
390.4359	0.000457
390.6527	0.000774
390.8695	0.000690
391.0863	0.003498
391.3032	0.000732
391.5200	0.001239
391.7369	0.001154
391.9537	0.003139
392.1706	0.002041
392.3875	0.001956
392.6044	0.002611
392.8213	0.002294
393.0383	0.002801
393.2552	0.004131
393.4722	0.003139
393.6891	0.003139
393.9061	0.001766
394.1231	0.004279
394.3401	0.002548
394.5572	0.004216
394.7742	0.002928
394.9912	0.003054
395.2083	0.003983
395.4254	0.003835
395.6425	0.001534
395.8596	0.003835
396.0767	0.002843
396.2938	0.004300
396.5109	0.003793
396.7281	0.004764
396.9453	0.005166
397.1624	0.003371
397.3796	0.005482
397.5968	0.004131
397.8140	0.004384
398.0313	0.006263
398.2485	0.006010
398.4658	0.006116
398.6830	0.006052
398.9003	0.006242
399.1176	0.004786
399.3349	0.006369
399.5522	0.005672
399.7696	0.006475
399.9869	0.004722
400.2043	0.007762
400.4216	0.007235
400.6390	0.006221
400.8564	0.007784
401.0738	0.006876
401.2912	0.005841
401.5087	0.007024
401.7261	0.007952
401.9436	0.008544
402.1610	0.007952
402.3785	0.007699
402.5960	0.008037
402.8135	0.008860
403.0310	0.008607
403.2486	0.007467
403.4661	0.007678
403.6837	0.007657
403.9013	0.008734
404.1189	0.009114
404.3365	0.008164
404.5541	0.008628
404.7717	0.007340
404.9893	0.010043
405.2070	0.010064
405.4246	0.010866
405.6423	0.010043
405.8600	0.010296
406.0777	0.009114
406.2954	0.011225
406.5131	0.011141
406.7309	0.011162
406.9486	0.010127
407.1664	0.010043
407.3842	0.009536
407.6020	0.009874
407.8198	0.010085
408.0376	0.010169
408.2554	0.010549
408.4733	0.010190
408.6911	0.011352
408.9090	0.010212
409.1269	0.012048
409.3448	0.012808
409.5627	0.012935
409.7806	0.011563
409.9985	0.011457
410.2165	0.010845
410.4344	0.010950
410.6524	0.012196
410.8704	0.013421
411.0884	0.013273
411.3064	0.012238
411.5244	0.012112
411.7424	0.012661
411.9605	0.013210
412.1785	0.013927
412.3966	0.014350
412.6147	0.014540
412.8328	0.014561
413.0509	0.014983
413.2690	0.012450
413.4871	0.014772
413.7053	0.014983
413.9234	0.013210
414.1416	0.015785
414.3598	0.015279
414.5780	0.015025
414.7962	0.014687
415.0144	0.015300
415.2326	0.015870
415.4509	0.014751
415.6692	0.014519
415.8874	0.013801
416.1057	0.016989
416.3240	0.013083
416.5423	0.016609
416.7606	0.015321
416.9790	0.015405
417.1973	0.016123
417.4157	0.015954
417.6341	0.016208
417.8524	0.016503
418.0708	0.016186
418.2893	0.017284
418.5077	0.015806
418.7261	0.016186
418.9446	0.014983
419.1630	0.017158
419.3815	0.015659
419.6000	0.016081
419.8185	0.017474
420.0370	0.018699
420.2555	0.018087
420.4741	0.018551
420.6926	0.018277
420.9112	0.019733
421.1298	0.020198
421.3483	0.020958
421.5669	0.019290
421.7856	0.022626
422.0042	0.022710
422.2228	0.022816
422.4415	0.022837
422.6601	0.021845
422.8788	0.021021
423.0975	0.021549
423.3162	0.020367
423.5349	0.022204
423.7536	0.021444
423.9724	0.021802
424.1911	0.020050
424.4099	0.020451
424.6287	0.022668
424.8475	0.019755
425.0663	0.020895
425.2851	0.021148
425.5039	0.020683
425.7228	0.020916
425.9416	0.020705
426.1605	0.020113
426.3793	0.018424
426.5982	0.020071
426.8171	0.020388
427.0361	0.020536
427.2550	0.020599
427.4739	0.022668
427.6929	0.020789
427.9118	0.020451
428.1308	0.021465
428.3498	0.020705
428.5688	0.019776
428.7878	0.022351
429.0068	0.022267
429.2259	0.022647
429.4449	0.023027
429.6640	0.024252
429.8831	0.024399
430.1022	0.026046
430.3213	0.024610
430.5404	0.024843
430.7595	0.024885
430.9787	0.023386
431.1978	0.024800
431.4170	0.022689
431.6362	0.022394
431.8553	0.022077
432.0745	0.020008
432.2938	0.020789
432.5130	0.019438
432.7322	0.020346
432.9515	0.020683
433.1707	0.021739
433.3900	0.021000
433.6093	0.022668
433.8286	0.026468
434.0479	0.026764
434.2673	0.023133
434.4866	0.022499
434.7059	0.021275
434.9253	0.020705
435.1447	0.022288
435.3641	0.024610
435.5835	0.024040
435.8029	0.023935
436.0223	0.019543
436.2418	0.025729
436.4612	0.022795
436.6807	0.023977
436.9001	0.025265
437.1196	0.024800
437.3391	0.023914
437.5586	0.022541
437.7782	0.022689
437.9977	0.022499
438.2173	0.023301
438.4368	0.023597
438.6564	0.022140
438.8760	0.023597
439.0956	0.024336
439.3152	0.024442
439.5348	0.023048
439.7545	0.023090
439.9741	0.022161
440.1938	0.023491
440.4135	0.022267
440.6331	0.024040
440.8528	0.023133
441.0725	0.025603
441.2923	0.027228
441.5120	0.029319
441.7318	0.028812
441.9515	0.029276
442.1713	0.028390
442.3911	0.026384
442.6109	0.027123
442.8307	0.028136
443.0505	0.025603
443.2703	0.028115
443.4902	0.025202
443.7101	0.026004
443.9299	0.027081
444.1498	0.026278
444.3697	0.025877
444.5896	0.027144
444.8095	0.027102
445.0295	0.026426
445.2494	0.025898
445.4694	0.025371
445.6894	0.021486
445.9093	0.023555
446.1293	0.026215
446.3493	0.027440
446.5694	0.027376
446.7894	0.025497
447.0094	0.026511
447.2295	0.024906
447.4496	0.024927
447.6696	0.025202
447.8897	0.024906
448.1098	0.024864
448.3300	0.023259
448.5501	0.023196
448.7702	0.022816
448.9904	0.025919
449.2106	0.023196
449.4307	0.024125
449.6509	0.023914
449.8711	0.024336
450.0914	0.023470
450.3116	0.022626
450.5318	0.023217
450.7521	0.022668
450.9724	0.024125
451.1926	0.022182
451.4129	0.019522
451.6332	0.021211
451.8535	0.021908
452.0739	0.021866
452.2942	0.019987
452.5146	0.019396
452.7349	0.022457
452.9553	0.020599
453.1757	0.018446
453.3961	0.022035
453.6165	0.019163
453.8369	0.018973
454.0574	0.018044
454.2778	0.017263
454.4983	0.018952
454.7188	0.017263
454.9393	0.019206
455.1597	0.020303
455.3803	0.019417
455.6008	0.020135
455.8213	0.018509
456.0419	0.017179
456.2624	0.020156
456.4830	0.018234
456.7036	0.016355
456.9242	0.016968
457.1448	0.017601
457.3654	0.018952
457.5860	0.018150
457.8067	0.018826
458.0274	0.018699
458.2480	0.018277
458.4687	0.018804
458.6894	0.019248
458.9101	0.018002
459.1308	0.017791
459.3516	0.018424
459.5723	0.017517
459.7931	0.017327
460.0138	0.018636
460.2346	0.016630
460.4554	0.017031
460.6762	0.015701
460.8970	0.016757
461.1178	0.015553
461.3387	0.016714
461.5595	0.015912
461.7804	0.017643
462.0013	0.014497
462.2222	0.014265
462.4431	0.014307
462.6640	0.014434
462.8849	0.014772
463.1059	0.014434
463.3268	0.015025
463.5478	0.015004
463.7687	0.014983
463.9897	0.015574
464.2107	0.013949
464.4317	0.014793
464.6528	0.015405
464.8738	0.016060
465.0948	0.015595
465.3159	0.015426
465.5370	0.015680
465.7581	0.016186
465.9792	0.015806
466.2003	0.014582
466.4214	0.015912
466.6425	0.012745
466.8637	0.014286
467.0848	0.012428
467.3060	0.013146
467.5272	0.011457
467.7484	0.012956
467.9696	0.012154
468.1908	0.011858
468.4120	0.011478
468.6333	0.013146
468.8545	0.012661
469.0758	0.011711
469.2970	0.011668
469.5183	0.009029
469.7396	0.008881
469.9610	0.008164
470.1823	0.009071
470.4036	0.010233
470.6250	0.009283
470.8463	0.009747
471.0677	0.009388
471.2891	0.010148
471.5105	0.007847
471.7319	0.009367
471.9533	0.008691
472.1748	0.008860
472.3962	0.008966
472.6177	0.008544
472.8391	0.008734
473.0606	0.009325
473.2821	0.009135
473.5036	0.010043
473.7251	0.009515
473.9467	0.007974
474.1682	0.008269
474.3898	0.008185
474.6113	0.007171
474.8329	0.008839
475.0545	0.009261
475.2761	0.009789
475.4977	0.008100
475.7193	0.009283
475.9410	0.007087
476.1626	0.008480
476.3843	0.009599
476.6060	0.009451
476.8277	0.009304
477.0494	0.009029
477.2711	0.006327
477.4928	0.008797
477.7145	0.008565
477.9363	0.008058
478.1580	0.007678
478.3798	0.006707
478.6016	0.007382
478.8234	0.007530
479.0452	0.008269
479.2670	0.008290
479.4888	0.007446
479.7107	0.007235
479.9325	0.006876
480.1544	0.007995
480.3763	0.008037
480.5982	0.005862
480.8201	0.007404
481.0420	0.007066
481.2639	0.006728
481.4859	0.006981
481.7078	0.007235
481.9298	0.007192
482.1517	0.006855
482.3737	0.008586
482.5957	0.006665
482.8177	0.006665
483.0398	0.004659
483.2618	0.007488
483.4838	0.005947
483.7059	0.006137
483.9280	0.005398
484.1501	0.006517
484.3721	0.006855
484.5943	0.007129
484.8164	0.005546
485.0385	0.007002
485.2606	0.006390
485.4828	0.009494
485.7050	0.012428
485.9271	0.017707
486.1493	0.019987
486.3715	0.015279
486.5937	0.013041
486.8160	0.013568
487.0382	0.010507
487.2605	0.009979
487.4827	0.009684
487.7050	0.007594
487.9273	0.005503
488.1496	0.005862
488.3719	0.004596
488.5942	0.005292
488.8165	0.004427
489.0389	0.005820
489.2612	0.003857
489.4836	0.004532
489.7060	0.005926
489.9284	0.005060
490.1508	0.004237
490.3732	0.004427
490.5956	0.004384
490.8180	0.004237
491.0405	0.005419
491.2630	0.005546
491.4854	0.003202
491.7079	0.003498
491.9304	0.003413
492.1529	0.004342
492.3755	0.004384
492.5980	0.002653
492.8205	0.004448
493.0431	0.004237
493.2657	0.005482
493.4882	0.005187
493.7108	0.004152
493.9334	0.003054
494.1561	0.005144
494.3787	0.004448
494.6013	0.003624
494.8240	0.002569
495.0466	0.004089
495.2693	0.003371
495.4920	0.003371
495.7147	0.003075
495.9374	0.003139
496.1601	0.004722
496.3829	0.004638
496.6056	0.005356
496.8284	0.003455
497.0511	0.003582
497.2739	0.003413
497.4967	0.003899
497.7195	0.001619
497.9423	0.003983
498.1652	0.003983
498.3880	0.002949
498.6109	0.004532
498.8337	0.003751
499.0566	0.003519
499.2795	0.003223
499.5024	0.004511
499.7253	0.002104
499.9482	0.001935
500.1712	0.003603
500.3941	0.003033
500.6171	0.004047
500.8400	0.002273
501.0630	0.003308
501.2860	0.004047
501.5090	0.003519
501.7320	0.001112
501.9551	0.004279
502.1781	0.003878
502.4012	0.003287
502.6242	0.002336
502.8473	0.002928
503.0704	0.002632
503.2935	0.004722
503.5166	0.003498
503.7397	0.003835
503.9628	0.002526
504.1860	0.003772
504.4092	0.002062
504.6323	0.004596
504.8555	0.002146
505.0787	0.003287
505.3019	0.003329
505.5251	0.002442
505.7483	0.002907
505.9716	0.002125
506.1948	0.001956
506.4181	0.003561
506.6414	0.002062
506.8647	0.003329
507.0880	0.003392
507.3113	0.004089
507.5346	0.001682
507.7579	0.003329
507.9813	0.003920
508.2046	0.003413
508.4280	0.003223
508.6514	0.003730
508.8748	0.002843
509.0982	0.003054
509.3216	0.003413
509.5450	0.002907
509.7685	0.001154
509.9919	0.003160
510.2154	0.001682
510.4388	0.003983
510.6623	0.002885
510.8858	0.003983
511.1093	0.003603
511.3329	0.003793
511.5564	0.003857
511.7799	0.003371
512.0035	0.002864
512.2270	0.004764
512.4506	0.002146
512.6742	0.004131
512.8978	0.002315
513.1214	0.003202
513.3451	0.003878
513.5687	0.002991
513.7923	0.002210
514.0160	0.004173
514.2397	0.003603
514.4634	0.003645
514.6871	0.004026
514.9108	0.003878
515.1345	0.002780
515.3582	0.004194
515.5819	0.002379
515.8057	0.002484
516.0295	0.003223
516.2532	0.004764
516.4770	0.004680
516.7008	0.004216
516.9246	0.003751
517.1485	0.003118
517.3723	0.002991
517.5961	0.003793
517.8200	0.002928
518.0439	0.003772
518.2677	0.002928
518.4916	0.004638
518.7155	0.001956
518.9395	0.004722
519.1634	0.002864
519.3873	0.003498
519.6113	0.002463
519.8352	0.003878
520.0592	0.004152
520.2832	0.002611
520.5072	0.003202
520.7312	0.003223
520.9552	0.002949
521.1792	0.002632
521.4033	0.004026
521.6273	0.003751
521.8514	0.003223
522.0755	0.003371
522.2996	0.002379
522.5237	0.003455
522.7478	0.002104
522.9719	0.004216
523.1960	0.004891
523.4202	0.003033
523.6443	0.003962
523.8685	0.003793
524.0927	0.003477
524.3169	0.003455
524.5411	0.003477
524.7653	0.003667
524.9895	0.002907
525.2138	0.003857
525.4380	0.003012
525.6623	0.003118
525.8865	0.004722
526.1108	0.003751
526.3351	0.003983
526.5594	0.004680
526.7837	0.004342
527.0081	0.004089
527.2324	0.004722
527.4568	0.005482
527.6811	0.004406
527.9055	0.005039
528.1299	0.005060
528.3543	0.001956
528.5787	0.004511
528.8031	0.005229
529.0276	0.005820
529.2520	0.004574
529.4765	0.004954
529.7009	0.005841
529.9254	0.004216
530.1499	0.004194
530.3744	0.004870
530.5989	0.004722
530.8234	0.006369
531.0480	0.004216
531.2725	0.005567
531.4971	0.004300
531.7217	0.004406
531.9462	0.003709
532.1708	0.004743
532.3954	0.004912
532.6200	0.004026
532.8447	0.005926
533.0693	0.006137
533.2940	0.007678
533.5186	0.006411
533.7433	0.005862
533.9680	0.007066
534.1927	0.005081
534.4174	0.009029
534.6421	0.007024
534.8668	0.006411
535.0916	0.007129
535.3163	0.008016
535.5411	0.007024
535.7659	0.006643
535.9907	0.007087
536.2155	0.008607
536.4403	0.007066
536.6651	0.008438
536.8899	0.008206
537.1148	0.008354
537.3396	0.005482
537.5645	0.009177
537.7894	0.007741
538.0143	0.006496
538.2392	0.008100
538.4641	0.007910
538.6890	0.009515
538.9139	0.009832
539.1389	0.008544
539.3638	0.011309
539.5888	0.009620
539.8138	0.010803
540.0388	0.009093
540.2638	0.008966
540.4888	0.009705
540.7138	0.010317
540.9389	0.012133
541.1639	0.010549
541.3890	0.010570
541.6140	0.012998
541.8391	0.011499
542.0642	0.013864
542.2893	0.012006
542.5144	0.010233
542.7396	0.012112
542.9647	0.012323
543.1899	0.014265
543.4150	0.013104
543.6402	0.012027
543.8654	0.014793
544.0906	0.015680
544.3158	0.014645
544.5410	0.015469
544.7662	0.015215
544.9915	0.014603
545.2167	0.015405
545.4420	0.014244
545.6673	0.013949
545.8926	0.013695
546.1179	0.013737
546.3432	0.013970
546.5685	0.014687
546.7938	0.013822
547.0192	0.015616
547.2445	0.014519
547.4699	0.016651
547.6953	0.018931
547.9206	0.019543
548.1460	0.019142
548.3715	0.019016
548.5969	0.019459
548.8223	0.018614
549.0478	0.017960
549.2732	0.018636
549.4987	0.017052
549.7242	0.018614
549.9496	0.017158
550.1751	0.018889
550.4007	0.018108
550.6262	0.018044
550.8517	0.017960
551.0773	0.018657
551.3028	0.016440
551.5284	0.016651
551.7540	0.017812
551.9796	0.020303
552.2052	0.019797
552.4308	0.022943
552.6564	0.021359
552.8820	0.022056
553.1077	0.021929
553.3333	0.021296
553.5590	0.022520
553.7847	0.021465
554.0104	0.020705
554.2361	0.021634
554.4618	0.021929
554.6875	0.021359
554.9132	0.021739
555.1390	0.022943
555.3648	0.022056
555.5905	0.024399
555.8163	0.025328
556.0421	0.027798
556.2679	0.025561
556.4937	0.026257
556.7195	0.025265
556.9454	0.025497
557.1712	0.023724
557.3971	0.024843
557.6230	0.024800
557.8488	0.024230
558.0747	0.025138
558.3006	0.026426
558.5266	0.025181
558.7525	0.026152
558.9784	0.024948
559.2044	0.024062
559.4303	0.023069
559.6563	0.026321
559.8823	0.025054
560.1083	0.029319
560.3343	0.030248
560.5603	0.030860
560.7863	0.031388
561.0124	0.030712
561.2384	0.032676
561.4645	0.033478
561.6905	0.034787
561.9166	0.033457
562.1427	0.033795
562.3688	0.032971
562.5949	0.032401
562.8211	0.031683
563.0472	0.034956
563.2733	0.034470
563.4995	0.035040
563.7257	0.034048
563.9519	0.035758
564.1781	0.036666
564.4043	0.035610
564.6305	0.038840
564.8567	0.038186
565.0829	0.038270
565.3092	0.038777
565.5355	0.039094
565.7617	0.039157
565.9880	0.041965
566.2143	0.039305
566.4406	0.040952
566.6669	0.041163
566.8932	0.041627
567.1196	0.043084
567.3459	0.049840
567.5723	0.050453
567.7987	0.053239
568.0250	0.053472
568.2514	0.058539
568.4778	0.057589
568.7043	0.065970
568.9307	0.066097
569.1571	0.069180
569.3836	0.073719
569.6100	0.086809
569.8365	0.091897
570.0630	0.098336
570.2895	0.102517
570.5160	0.099498
570.7425	0.100321
570.9690	0.109146
571.1956	0.115733
571.4221	0.122278
571.6487	0.119724
571.8752	0.129309
572.1018	0.135073
572.3284	0.134270
572.5550	0.129203
572.7816	0.118288
573.0082	0.114720
573.2349	0.119449
573.4615	0.132813
573.6882	0.144489
573.9149	0.150506
574.1415	0.153462
574.3682	0.161442
574.5949	0.165602
574.8216	0.168410
575.0484	0.169402
575.2751	0.171513
575.5018	0.171344
575.7286	0.162414
575.9554	0.159036
576.1821	0.152089
576.4089	0.158972
576.6357	0.166953
576.8626	0.179156
577.0894	0.181837
577.3162	0.183189
577.5431	0.191233
577.7699	0.212366
577.9968	0.242537
578.2237	0.232149
578.4505	0.222036
578.6774	0.210551
578.9044	0.198432
579.1313	0.187158
579.3582	0.187390
579.5851	0.201177
579.8121	0.202422
580.0391	0.203541
580.2660	0.204808
580.4930	0.204344
580.7200	0.197946
580.9470	0.200332
581.1741	0.236900
581.4011	0.283052
581.6281	0.314172
581.8552	0.311153
582.0822	0.307100
582.3093	0.299478
582.5364	0.277879
582.7635	0.258498
582.9906	0.231431
583.2177	0.215702
583.4449	0.206223
583.6720	0.195012
583.8991	0.189966
584.1263	0.189734
584.3535	0.196637
584.5807	0.200079
584.8079	0.207025
585.0351	0.218700
585.2623	0.230249
585.4895	0.232571
585.7167	0.229721
585.9440	0.221086
586.1713	0.213697
586.3985	0.200987
586.6258	0.192900
586.8531	0.201768
587.0804	0.206117
587.3077	0.222543
587.5350	0.225351
587.7624	0.223556
587.9897	0.213697
588.2171	0.202085
588.4445	0.198474
588.6718	0.190515
588.8992	0.184075
589.1266	0.174638
589.3540	0.162667
589.5815	0.164419
589.8089	0.162393
590.0363	0.159585
590.2638	0.154137
590.4913	0.145017
590.7187	0.143117
590.9462	0.134566
591.1737	0.129098
591.4012	0.126986
591.6288	0.129541
591.8563	0.132096
592.0838	0.127050
592.3114	0.128865
592.5389	0.152448
592.7665	0.178860
592.9941	0.196511
593.2217	0.202633
593.4493	0.198263
593.6769	0.194822
593.9046	0.188783
594.1322	0.180064
594.3598	0.175715
594.5875	0.167037
594.8152	0.179621
595.0429	0.190451
595.2705	0.195307
595.4983	0.188171
595.7260	0.183231
595.9537	0.173054
596.1814	0.163195
596.4092	0.152385
596.6369	0.142483
596.8647	0.141322
597.0925	0.142589
597.3203	0.149281
597.5481	0.152448
597.7759	0.145333
598.0037	0.142821
598.2315	0.139506
598.4594	0.140773
598.6872	0.151477
598.9151	0.175145
599.1430	0.181542
599.3709	0.178227
599.5988	0.178607
599.8267	0.176411
600.0546	0.179515
600.2825	0.183379
600.5105	0.183294
600.7384	0.178185
600.9664	0.183590
601.1944	0.184139
601.4223	0.182492
601.6503	0.177720
601.8783	0.167375
602.1064	0.165771
602.3344	0.166129
602.5624	0.168135
602.7905	0.169149
603.0185	0.175947
603.2466	0.181837
603.4747	0.187390
603.7028	0.185870
603.9309	0.182597
604.1590	0.170500
604.3871	0.165876
604.6152	0.160872
604.8434	0.157220
605.0715	0.153525
605.2997	0.157748
605.5279	0.163680
605.7561	0.171809
605.9843	0.175905
606.2125	0.170859
606.4407	0.162857
606.6689	0.158276
606.8972	0.156945
607.1254	0.152617
607.3537	0.154011
607.5819	0.158191
607.8102	0.154686
608.0385	0.155299
608.2668	0.149260
608.4951	0.145080
608.7235	0.142990
608.9518	0.139105
609.1801	0.137923
609.4085	0.132201
609.6369	0.132096
609.8653	0.139232
610.0936	0.145312
610.3220	0.149007
610.5505	0.146431
610.7789	0.141090
611.0073	0.140013
611.2357	0.132391
611.4642	0.132623
611.6927	0.133996
611.9211	0.135896
612.1496	0.131399
612.3781	0.128021
612.6066	0.128232
612.8351	0.128443
613.0637	0.126606
613.2922	0.126311
613.5208	0.124221
613.7493	0.127176
613.9779	0.126733
614.2065	0.129837
614.4351	0.127831
614.6637	0.125192
614.8923	0.126902
615.1209	0.127599
615.3495	0.124368
615.5782	0.129752
615.8068	0.132075
616.0355	0.125846
616.2642	0.119428
616.4929	0.113305
616.7216	0.112524
616.9503	0.110202
617.1790	0.110455
617.4077	0.110561
617.6365	0.111447
617.8652	0.109019
618.0940	0.112017
618.3227	0.107309
618.5515	0.105557
618.7803	0.093966
619.0091	0.093227
619.2379	0.090187
619.4667	0.091960
619.6956	0.092974
619.9244	0.092488
620.1533	0.094177
620.3821	0.097724
620.6110	0.093882
620.8399	0.091454
621.0688	0.080137
621.2977	0.075936
621.5266	0.073740
621.7556	0.075450
621.9845	0.080686
622.2135	0.084254
622.4424	0.083959
622.6714	0.083177
622.9004	0.084423
623.1294	0.087421
623.3584	0.092594
623.5874	0.090567
623.8164	0.087168
624.0454	0.083557
624.2745	0.086429
624.5035	0.091095
624.7326	0.090651
624.9617	0.089532
625.1908	0.089026
625.4199	0.083937
625.6490	0.081151
625.8781	0.074986
626.1072	0.078300
626.3364	0.077181
626.5655	0.070721
626.7947	0.070109
627.0238	0.070256
627.2530	0.072621
627.4822	0.070277
627.7114	0.073487
627.9406	0.069180
628.1698	0.066435
628.3991	0.060566
628.6283	0.058116
628.8576	0.059827
629.0868	0.060544
629.3161	0.061727
629.5454	0.064091
629.7747	0.062930
630.0040	0.063057
630.2333	0.059531
630.4626	0.058095
630.6920	0.056259
630.9213	0.055857
631.1507	0.053915
631.3801	0.054760
631.6094	0.051888
631.8388	0.052268
632.0682	0.051973
632.2976	0.051318
632.5271	0.049249
632.7565	0.051297
632.9859	0.046040
633.2154	0.045575
633.4448	0.043422
633.6743	0.044351
633.9038	0.044098
634.1333	0.043169
634.3628	0.042746
634.5923	0.042577
634.8218	0.041902
635.0514	0.040276
635.2809	0.041480
635.5105	0.040741
635.7400	0.040339
635.9696	0.041184
636.1992	0.044288
636.4288	0.044773
636.6584	0.045111
636.8880	0.046251
637.1177	0.043295
637.3473	0.040783
637.5770	0.041564
637.8066	0.042029
638.0363	0.042007
638.2660	0.041226
638.4957	0.042641
638.7254	0.041670
638.9551	0.042430
639.1848	0.039411
639.4145	0.039389
639.6443	0.037454
639.8740	0.038632
640.1038	0.039502
640.3336	0.037381
640.5633	0.036875
640.7931	0.037646
641.0229	0.034216
641.2528	0.033467
641.4826	0.034021
641.7124	0.032826
641.9423	0.030208
642.1721	0.032029
642.4020	0.031096
642.6319	0.030844
642.8617	0.031227
643.0916	0.028418
643.3216	0.030119
643.5515	0.029910
643.7814	0.028339
644.0113	0.029834
644.2413	0.028829
644.4712	0.028703
644.7012	0.028991
644.9312	0.027560
645.1612	0.027137
645.3912	0.026850
645.6212	0.024649
645.8512	0.028130
646.0812	0.026875
646.3113	0.026233
646.5413	0.028109
646.7714	0.024553
647.0015	0.024344
647.2316	0.025258
647.4616	0.024278
647.6918	0.027949
647.9219	0.026038
648.1520	0.030146
648.3821	0.028317
648.6123	0.031981
648.8424	0.032144
649.0726	0.033428
649.3028	0.032969
649.5329	0.033983
649.7631	0.034481
649.9933	0.032931
650.2236	0.032192
650.4538	0.030734
650.6840	0.029133
650.9143	0.029958
651.1445	0.027898
651.3748	0.029663
651.6051	0.028064
651.8354	0.030494
652.0657	0.030862
652.2960	0.030566
652.5263	0.030608
652.7566	0.031717
652.9870	0.031026
653.2173	0.032958
653.4477	0.032149
653.6780	0.030145
653.9084	0.034602
654.1388	0.033056
654.3692	0.033819
654.5996	0.035788
654.8300	0.038488
655.0605	0.067161
655.2909	0.195433
655.5213	0.523257
655.7518	0.956617
655.9823	1.000000
656.2128	1.000000
656.4433	1.000000
656.6738	1.000000
656.9043	1.000000
657.1348	0.867292
657.3653	0.701074
657.5959	0.600168
657.8264	0.529585
658.0570	0.477965
658.2875	0.447369
658.5181	0.406972
658.7487	0.381824
658.9793	0.368488
659.2099	0.330865
659.4406	0.256051
659.6712	0.167510
659.9018	0.097066
660.1325	0.061299
660.3632	0.041333
660.5938	0.032550
660.8245	0.025106
661.0552	0.025576
661.2859	0.023585
661.5166	0.023732
661.7474	0.021874
661.9781	0.022312
662.2088	0.022959
662.4396	0.021343
662.6704	0.021739
662.9011	0.023139
663.1319	0.020584
663.3627	0.021172
663.5935	0.021267
663.8243	0.020743
664.0552	0.020304
664.2860	0.023516
664.5168	0.020879
664.7477	0.020191
664.9786	0.022348
665.2094	0.022981
665.4403	0.024376
665.6712	0.023710
665.9021	0.023310
666.1330	0.021941
666.3640	0.023045
666.5949	0.022960
666.8259	0.021515
667.0568	0.021331
667.2878	0.020938
667.5188	0.022857
667.7497	0.021147
667.9807	0.021239
668.2117	0.020978
668.4428	0.021465
668.6738	0.019353
668.9048	0.022351
669.1359	0.020177
669.3669	0.020261
669.5980	0.021042
669.8291	0.021655
670.0602	0.021486
670.2913	0.021908
670.5224	0.020472
670.7535	0.022161
670.9846	0.020958
671.2157	0.023703
671.4469	0.026342
671.6781	0.028115
671.9092	0.029846
672.1404	0.031725
672.3716	0.033816
672.6028	0.034702
672.8340	0.033393
673.0652	0.032063
673.2964	0.031155
673.5277	0.032359
673.7589	0.028516
673.9902	0.031092
674.2214	0.028854
674.4527	0.027651
674.6840	0.026299
674.9153	0.026236
675.1466	0.026194
675.3779	0.026975
675.6093	0.026088
675.8406	0.026321
676.0719	0.024843
676.3033	0.025244
676.5347	0.026553
676.7661	0.024294
676.9974	0.024442
677.2288	0.021169
677.4602	0.025561
677.6917	0.027545
677.9231	0.028854
678.1545	0.029593
678.3860	0.030079
678.6174	0.029741
678.8489	0.030058
679.0804	0.033224
679.3119	0.032380
679.5434	0.031345
679.7749	0.035589
680.0064	0.034027
680.2379	0.034829
680.4694	0.035167
680.7010	0.031599
680.9325	0.035336
681.1641	0.034048
681.3957	0.034343
681.6273	0.032844
681.8589	0.034365
682.0905	0.033879
682.3221	0.033689
682.5537	0.031873
682.7854	0.030311
683.0170	0.030311
683.2487	0.030395
683.4803	0.031092
683.7120	0.032380
683.9437	0.032781
684.1754	0.033985
684.4071	0.037299
684.6388	0.035040
684.8705	0.037848
685.1023	0.040825
685.3340	0.042366
685.5658	0.045575
685.7975	0.049101
686.0293	0.044182
686.2611	0.044414
686.4929	0.043718
686.7247	0.044858
686.9565	0.041712
687.1883	0.043316
687.4202	0.044752
687.6520	0.043232
687.8838	0.041775
688.1157	0.040107
688.3476	0.038840
688.5795	0.040107
688.8114	0.038482
689.0433	0.038144
689.2752	0.038228
689.5071	0.036455
689.7390	0.038102
689.9710	0.034829
690.2029	0.032950
690.4349	0.033182
690.6669	0.035441
690.8988	0.035652
691.1308	0.037405
691.3628	0.040255
691.5948	0.037785
691.8269	0.037257
692.0589	0.038334
692.2909	0.037109
692.5230	0.034175
692.7550	0.038144
692.9871	0.038144
693.2192	0.037785
693.4513	0.040487
693.6834	0.038798
693.9155	0.036497
694.1476	0.033288
694.3797	0.033942
694.6119	0.032802
694.8440	0.033816
695.0762	0.035779
695.3083	0.035842
695.5405	0.029825
695.7727	0.032021
696.0049	0.029424
696.2371	0.028221
696.4693	0.030311
696.7016	0.034027
696.9338	0.040466
697.1660	0.038397
697.3983	0.038482
697.6306	0.037912
697.8628	0.037510
698.0951	0.039242
698.3274	0.037869
698.5597	0.035294
698.7920	0.037067
699.0243	0.036265
699.2567	0.034153
699.4890	0.034871
699.7214	0.032148
699.9537	0.033182
700.1861	0.032718
700.4185	0.031535
700.6509	0.032591
700.8833	0.032190
701.1157	0.029635
701.3481	0.027820
701.5806	0.028917
701.8130	0.029572
702.0454	0.027418
702.2779	0.032063
702.5104	0.032106
702.7429	0.030649
702.9753	0.030058
703.2078	0.029403
703.4403	0.030163
703.6729	0.027440
703.9054	0.028791
704.1379	0.028284
704.3705	0.027102
704.6030	0.027756
704.8356	0.024716
705.0682	0.023935
705.3008	0.022837
705.5334	0.024653
705.7660	0.023745
705.9986	0.024315
706.2312	0.028411
706.4638	0.028390
706.6965	0.034935
706.9291	0.034470
707.1618	0.037025
707.3945	0.040044
707.6272	0.039896
707.8599	0.036983
708.0926	0.038482
708.3253	0.037531
708.5580	0.036370
708.7907	0.036455
709.0235	0.034153
709.2562	0.032929
709.4890	0.035188
709.7217	0.033013
709.9545	0.031451
710.1873	0.033457
710.4201	0.035336
710.6529	0.036434
710.8857	0.033963
711.1186	0.032739
711.3514	0.033077
711.5842	0.032253
711.8171	0.031324
712.0500	0.030269
712.2828	0.027418
712.5157	0.029699
712.7486	0.027925
712.9815	0.030163
713.2144	0.030226
713.4474	0.030543
713.6803	0.031535
713.9132	0.031599
714.1462	0.035104
714.3791	0.034512
714.6121	0.034935
714.8451	0.032844
715.0781	0.032971
715.3111	0.036476
715.5441	0.033605
715.7771	0.031261
716.0102	0.031852
716.2432	0.031113
716.4762	0.029107
716.7093	0.027989
716.9424	0.028136
717.1754	0.026278
717.4085	0.026870
717.6416	0.026996
717.8747	0.028136
718.1078	0.028094
718.3410	0.028179
718.5741	0.028369
718.8072	0.027292
719.0404	0.029255
719.2736	0.031789
719.5067	0.029171
719.7399	0.030670
719.9731	0.027946
720.2063	0.028559
720.4395	0.028284
720.6727	0.028981
720.9060	0.028559
721.1392	0.031810
721.3725	0.029530
721.6057	0.029192
721.8390	0.029234
722.0723	0.029298
722.3055	0.028347
722.5388	0.028284
722.7721	0.026891
723.0055	0.030163
723.2388	0.026468
723.4721	0.028010
723.7055	0.027482
723.9388	0.028643
724.1722	0.028326
724.4056	0.026363
724.6389	0.029255
724.8723	0.028453
725.1057	0.029424
725.3391	0.031535
725.5726	0.031599
725.8060	0.032317
726.0394	0.032887
726.2729	0.033773
726.5063	0.035695
726.7398	0.031155
726.9733	0.030818
727.2068	0.031958
727.4403	0.030775
727.6738	0.032296
727.9073	0.033098
728.1408	0.035272
728.3743	0.035568
728.6079	0.034618
728.8414	0.034069
729.0750	0.035040
729.3086	0.036518
729.5421	0.036919
729.7757	0.038038
730.0093	0.036666
730.2429	0.034935
730.4766	0.035779
730.7102	0.038439
730.9438	0.044013
731.1775	0.040783
731.4111	0.043485
731.6448	0.042409
731.8785	0.043190
732.1122	0.041648
732.3458	0.042409
732.5795	0.041290
732.8133	0.044119
733.0470	0.042852
733.2807	0.044921
733.5145	0.043633
733.7482	0.043739
733.9820	0.046019
734.2157	0.050157
734.4495	0.050643
734.6833	0.051318
734.9171	0.048405
735.1509	0.045533
735.3847	0.047645
735.6185	0.046821
735.8524	0.048426
736.0862	0.048869
736.3201	0.050199
736.5539	0.046610
736.7878	0.047455
737.0217	0.048890
737.2556	0.050706
737.4895	0.048172
737.7234	0.045343
737.9573	0.042240
738.1912	0.041881
738.4252	0.040128
738.6591	0.041817
738.8931	0.042789
739.1271	0.043274
739.3610	0.046652
739.5950	0.048447
739.8290	0.045132
740.0630	0.042577
740.2970	0.044435
740.5310	0.038904
740.7651	0.040297
740.9991	0.037130
741.2332	0.037173
741.4672	0.033879
741.7013	0.034597
741.9354	0.033942
742.1695	0.033752
742.4036	0.032697
742.6377	0.033098
742.8718	0.032908
743.1059	0.033985
743.3400	0.030205
743.5742	0.031008
743.8083	0.032169
744.0425	0.030353
744.2767	0.029572
744.5108	0.029044
744.7450	0.030248
744.9792	0.030290
745.2134	0.027060
745.4477	0.026511
745.6819	0.027397
745.9161	0.026658
746.1504	0.028664
746.3846	0.029424
746.6189	0.028516
746.8532	0.027313
747.0874	0.029002
747.3217	0.029044
747.5560	0.032612
747.7903	0.030205
748.0247	0.029699
748.2590	0.029403
748.4933	0.029255
748.7277	0.028453
748.9620	0.028559
749.1964	0.031050
749.4308	0.035209
749.6652	0.034006
749.8995	0.036518
750.1339	0.037806
750.3684	0.041121
750.6028	0.039136
750.8372	0.038735
751.0717	0.037215
751.3061	0.037848
751.5406	0.038629
751.7750	0.041121
752.0095	0.039833
752.2440	0.038925
752.4785	0.039199
752.7130	0.037236
752.9475	0.036138
753.1820	0.038566
753.4166	0.037405
753.6511	0.039959
753.8856	0.043739
754.1202	0.041353
754.3548	0.038355
754.5894	0.039917
754.8239	0.041015
755.0585	0.040128
755.2931	0.042915
755.5278	0.042176
755.7624	0.042219
755.9970	0.044478
756.2317	0.043971
756.4663	0.049249
756.7010	0.049756
756.9356	0.051930
757.1703	0.052163
757.4050	0.055498
757.6397	0.057230
757.8744	0.058982
758.1091	0.057673
758.3438	0.057694
758.5786	0.052712
758.8133	0.054886
759.0481	0.055097
759.2828	0.058264
759.5176	0.060671
759.7524	0.059468
759.9872	0.060734
760.2220	0.060376
760.4568	0.063289
760.6916	0.063458
760.9264	0.063585
761.1613	0.061136
761.3961	0.058475
761.6310	0.055815
761.8658	0.054021
762.1007	0.049756
762.3356	0.046737
762.5705	0.047201
762.8054	0.047328
763.0403	0.049270
763.2752	0.050537
763.5101	0.050410
763.7450	0.048172
763.9800	0.047053
764.2149	0.052690
764.4499	0.057948
764.6849	0.056892
764.9198	0.057631
765.1548	0.059531
765.3898	0.055477
765.6248	0.054886
765.8599	0.052522
766.0949	0.049312
766.3299	0.046610
766.5650	0.043105
766.8000	0.040973
767.0351	0.042409
767.2701	0.039115
767.5052	0.038587
767.7403	0.038102
767.9754	0.041100
768.2105	0.043316
768.4456	0.043929
768.6808	0.046673
768.9159	0.048025
769.1510	0.047518
769.3862	0.046188
769.6214	0.046526
769.8565	0.046526
770.0917	0.045069
770.3269	0.044963
770.5621	0.044900
770.7973	0.046779
771.0325	0.047243
771.2677	0.046314
771.5030	0.047074
771.7382	0.044710
771.9735	0.045639
772.2087	0.041374
772.4440	0.038545
772.6793	0.038376
772.9146	0.042282
773.1499	0.039094
773.3852	0.037489
773.6205	0.038038
773.8558	0.036856
774.0911	0.036729
774.3265	0.034491
774.5618	0.033309
774.7972	0.033351
775.0326	0.031831
775.2679	0.029192
775.5033	0.029466
775.7387	0.028875
775.9741	0.026553
776.2095	0.026574
776.4450	0.024885
776.6804	0.025941
776.9158	0.023386
777.1513	0.025075
777.3868	0.025307
777.6222	0.024062
777.8577	0.025286
778.0932	0.027017
778.3287	0.025983
778.5642	0.027883
778.7997	0.026933
779.0352	0.030416
779.2707	0.030987
779.5063	0.031725
779.7418	0.030987
779.9774	0.027524
780.2130	0.027841
780.4485	0.028474
780.6841	0.029255
780.9197	0.030944
781.1553	0.033330
781.3909	0.034681
781.6265	0.035357
781.8622	0.033710
782.0978	0.034597
782.3335	0.034196
782.5691	0.035948
782.8048	0.034322
783.0405	0.033879
783.2761	0.032929
783.5118	0.033963
783.7475	0.033098
783.9832	0.034723
784.2190	0.032338
784.4547	0.031578
784.6904	0.028791
784.9262	0.029783
785.1619	0.029973
785.3977	0.028073
785.6335	0.028960
785.8692	0.027862
786.1050	0.030543
786.3408	0.029424
786.5766	0.026321
786.8124	0.026848
787.0483	0.027313
787.2841	0.027693
787.5199	0.028305
787.7558	0.029994
787.9917	0.029952
788.2275	0.028284
788.4634	0.031240
788.6993	0.030775
788.9352	0.032000
789.1711	0.030248
789.4070	0.029952
789.6429	0.026616
789.8789	0.027841
790.1148	0.024969
790.3507	0.026722
790.5867	0.024864
790.8227	0.024758
791.0586	0.022753
791.2946	0.024906
791.5306	0.026321
791.7666	0.024399
792.0026	0.023829
792.2387	0.022816
792.4747	0.022140
792.7107	0.024315
792.9468	0.021802
793.1828	0.022415
793.4189	0.020705
793.6550	0.023133
793.8910	0.026215
794.1271	0.029424
794.3632	0.031050
794.5993	0.029678
794.8355	0.032042
795.0716	0.031873
795.3077	0.032570
795.5439	0.032929
795.7800	0.029488
796.0162	0.028664
796.2523	0.024167
796.4885	0.021528
796.7247	0.021908
796.9609	0.021232
797.1971	0.020008
797.4333	0.023238
797.6695	0.023259
797.9058	0.025265
798.1420	0.021718
798.3783	0.023407
798.6145	0.021190
798.8508	0.022499
799.0871	0.023259
799.3233	0.021887
799.5596	0.023323
799.7959	0.019586
800.0322	0.020156
800.2686	0.021359
800.5049	0.020240
800.7412	0.019100
800.9776	0.019438
801.2139	0.017875
801.4503	0.017875
801.6867	0.020282
801.9230	0.018783
802.1594	0.017685
802.3958	0.017200
802.6322	0.016482
802.8686	0.019100
803.1051	0.017390
803.3415	0.018171
803.5779	0.015595
803.8144	0.019227
804.0508	0.018002
804.2873	0.015764
804.5238	0.017200
804.7603	0.017031
804.9968	0.017664
805.2333	0.017073
805.4698	0.015996
805.7063	0.017791
805.9428	0.019501
806.1794	0.022668
806.4159	0.025054
806.6525	0.024357
806.8890	0.023090
807.1256	0.023977
807.3622	0.020705
807.5988	0.022605
807.8354	0.023386
808.0720	0.022288
808.3086	0.022605
808.5452	0.021422
808.7818	0.023069
809.0185	0.021929
809.2551	0.023428
809.4918	0.020219
809.7284	0.020008
809.9651	0.019860
810.2018	0.019269
810.4385	0.017918
810.6752	0.018044
810.9119	0.020008
811.1486	0.017517
811.3853	0.018868
811.6221	0.019016
811.8588	0.017474
812.0956	0.014814
812.3323	0.015574
812.5691	0.015680
812.8059	0.015616
813.0427	0.012830
813.2795	0.014033
813.5163	0.017052
813.7531	0.016292
813.9899	0.018192
814.2267	0.019248
814.4636	0.017327
814.7004	0.017305
814.9373	0.017327
815.1742	0.014519
815.4110	0.016799
815.6479	0.013568
815.8848	0.014603
816.1217	0.015046
816.3586	0.013927
816.5955	0.013547
816.8324	0.014244
817.0694	0.016693
817.3063	0.014582
817.5433	0.014160
817.7802	0.014265
818.0172	0.014012
818.2542	0.014455
818.4912	0.011879
818.7282	0.013400
818.9652	0.013547
819.2022	0.012365
819.4392	0.011858
819.6762	0.013758
819.9133	0.013336
820.1503	0.012450
820.3874	0.015490
820.6244	0.015258
820.8615	0.016820
821.0986	0.015490
821.3357	0.014962
821.5727	0.015638
821.8099	0.014307
822.0470	0.014645
822.2841	0.014181
822.5212	0.012112
822.7584	0.011499
822.9955	0.012259
823.2327	0.012112
823.4698	0.012154
823.7070	0.010739
823.9442	0.012576
824.1814	0.010507
824.4186	0.010507
824.6558	0.011267
824.8930	0.010148
825.1302	0.012450
825.3675	0.012407
825.6047	0.013020
825.8419	0.014181
826.0792	0.014540
826.3165	0.011858
826.5537	0.014413
826.7910	0.014181
827.0283	0.013167
827.2656	0.012133
827.5029	0.013611
827.7402	0.012703
827.9776	0.015574
828.2149	0.011521
828.4522	0.013252
828.6896	0.012640
828.9270	0.013716
829.1643	0.014202
829.4017	0.014392
829.6391	0.012154
829.8765	0.011162
830.1139	0.011816
830.3513	0.011246
830.5887	0.009916
830.8261	0.009283
831.0636	0.008523
831.3010	0.011837
831.5385	0.008121
831.7759	0.007952
832.0134	0.007488
832.2509	0.008206
832.4884	0.007847
832.7259	0.007636
832.9634	0.009578
833.2009	0.009050
833.4384	0.007488
833.6759	0.009642
833.9135	0.008924
834.1510	0.010993
834.3886	0.010697
834.6261	0.010908
834.8637	0.010317
835.1013	0.009367
835.3389	0.010866
835.5765	0.010402
835.8141	0.008459
836.0517	0.008016
836.2893	0.009747
836.5269	0.008354
836.7646	0.007910
837.0022	0.008691
837.2399	0.007826
837.4775	0.007171
837.7152	0.007615
837.9529	0.006411
838.1906	0.005715
838.4283	0.007594
838.6660	0.005820
838.9037	0.006918
839.1414	0.006411
839.3791	0.007467
839.6169	0.008586
839.8546	0.008079
840.0924	0.007192
840.3302	0.007150
840.5679	0.007467
840.8057	0.007762
841.0435	0.005461
841.2813	0.007425
841.5191	0.006686
841.7569	0.006538
841.9947	0.005503
842.2326	0.006580
842.4704	0.006981
842.7082	0.006749
842.9461	0.005883
843.1840	0.005905
843.4218	0.006242
843.6597	0.004743
843.8976	0.005693
844.1355	0.006158
844.3734	0.003624
844.6113	0.005440
844.8492	0.005250
845.0872	0.004849
845.3251	0.005313
845.5631	0.006010
845.8010	0.005862
846.0390	0.006116
846.2770	0.005271
846.5149	0.006242
846.7529	0.003603
846.9909	0.006348
847.2289	0.004469
847.4669	0.004532
847.7050	0.004849
847.9430	0.005018
848.1810	0.005060
848.4191	0.006834
848.6571	0.005208
848.8952	0.003983
849.1333	0.004574
849.3713	0.004849
849.6094	0.005503
849.8475	0.005229
850.0856	0.005503
850.3237	0.003392
850.5619	0.005672
850.8000	0.004786
851.0381	0.005567
851.2763	0.004743
851.5144	0.004786
851.7526	0.005883
851.9908	0.004680
852.2289	0.006876
852.4671	0.006855
852.7053	0.009388
852.9435	0.008924
853.1817	0.011204
853.4200	0.014202
853.6582	0.013210
853.8964	0.013970
854.1347	0.015025
854.3729	0.014603
854.6112	0.014814
854.8495	0.012893
855.0877	0.013210
855.3260	0.012281
855.5643	0.012597
855.8026	0.012597
856.0409	0.011309
856.2792	0.012006
856.5176	0.012808
856.7559	0.011584
856.9942	0.011542
857.2326	0.010676
857.4710	0.010613
857.7093	0.009832
857.9477	0.009261
858.1861	0.010866
858.4245	0.011879
858.6629	0.010908
858.9013	0.009283
859.1397	0.009240
859.3781	0.009008
859.6166	0.008797
859.8550	0.009620
860.0935	0.008607
860.3319	0.007509
860.5704	0.008100
860.8089	0.005905
861.0473	0.007192
861.2858	0.006158
861.5243	0.006601
861.7628	0.007319
862.0013	0.006052
862.2399	0.006010
862.4784	0.006453
862.7169	0.006010
862.9555	0.006031
863.1940	0.006601
863.4326	0.006855
863.6712	0.007256
863.9098	0.006876
864.1483	0.007192
864.3869	0.005503
864.6255	0.006031
864.8642	0.004870
865.1028	0.006918
865.3414	0.003835
865.5800	0.006179
865.8187	0.004342
866.0573	0.005989
866.2960	0.004110
866.5347	0.004617
866.7733	0.004216
867.0120	0.005651
867.2507	0.005609
867.4894	0.005588
867.7281	0.005862
867.9669	0.006643
868.2056	0.003287
868.4443	0.005356
868.6831	0.006327
868.9218	0.005440
869.1606	0.005609
869.3993	0.004026
869.6381	0.004596
869.8769	0.005102
870.1157	0.004722
870.3545	0.004828
870.5933	0.006242
870.8321	0.005989
871.0709	0.004954
871.3097	0.005672
871.5486	0.005482
871.7874	0.006327
872.0263	0.004068
872.2651	0.005630
872.5040	0.004089
872.7429	0.004997
872.9818	0.004300
873.2207	0.005144
873.4596	0.004722
873.6985	0.004511
873.9374	0.004638
874.1763	0.003498
874.4153	0.005208
874.6542	0.006791
874.8932	0.004384
875.1321	0.004490
875.3711	0.007784
875.6101	0.004997
875.8491	0.006918
876.0880	0.006306
876.3270	0.006221
876.5661	0.004553
876.8051	0.004638
877.0441	0.005081
877.2831	0.006010
877.5222	0.006496
877.7612	0.005736
878.0003	0.007129
878.2393	0.006855
878.4784	0.005968
878.7175	0.006812
878.9566	0.007024
879.1957	0.007847
879.4348	0.007720
879.6739	0.006285
879.9130	0.007340
880.1521	0.008290
880.3913	0.008290
880.6304	0.009810
880.8696	0.007931
881.1087	0.008565
881.3479	0.006327
881.5871	0.007657
881.8262	0.007256
882.0654	0.007192
882.3046	0.004342
882.5438	0.006517
882.7831	0.005313
883.0223	0.005799
883.2615	0.007382
883.5007	0.004574
883.7400	0.005546
883.9792	0.005799
884.2185	0.005715
884.4578	0.005271
884.6971	0.006242
884.9363	0.006981
885.1756	0.006432
885.4149	0.005609
885.6542	0.006517
885.8936	0.006601
886.1329	0.006939
886.3722	0.007024
886.6116	0.006601
886.8509	0.006876
887.0903	0.006622
887.3296	0.006601
887.5690	0.005799
887.8084	0.005905
888.0478	0.005715
888.2872	0.004954
888.5266	0.004722
888.7660	0.007425
889.0054	0.005123
889.2448	0.004321
889.4843	0.004828
889.7237	0.005440
889.9632	0.003645
890.2026	0.003329
890.4421	0.003498
890.6816	0.004511
890.9211	0.004764
891.1606	0.004131
891.4001	0.003835
891.6396	0.004574
891.8791	0.005503
892.1186	0.004596
892.3581	0.005440
892.5977	0.005630
892.8372	0.005208
893.0768	0.006221
893.3163	0.005144
893.5559	0.003751
893.7955	0.005250
894.0351	0.004617
894.2747	0.004828
894.5143	0.005356
894.7539	0.004638
894.9935	0.003878
895.2331	0.004068
895.4727	0.004490
895.7124	0.005313
895.9520	0.005398
896.1917	0.004722
896.4314	0.004026
896.6710	0.003920
896.9107	0.004384
897.1504	0.005356
897.3901	0.004089
897.6298	0.005841
897.8695	0.004912
898.1092	0.004807
898.3489	0.005102
898.5887	0.004321
898.8284	0.005356
899.0682	0.003962
899.3079	0.005060
899.5477	0.004764
899.7875	0.004152
900.0272	0.003793
900.2670	0.004131
900.5068	0.003772
900.7466	0.005609
900.9864	0.005525
901.2263	0.004068
901.4661	0.004954
901.7059	0.005039
901.9458	0.005187
902.1856	0.004596
902.4255	0.004933
902.6654	0.005356
902.9052	0.002822
903.1451	0.004511
903.3850	0.004047
903.6249	0.003835
903.8648	0.005567
904.1047	0.004026
904.3446	0.004659
904.5846	0.006137
904.8245	0.003075
905.0644	0.003941
905.3044	0.004279
905.5444	0.005018
905.7843	0.007277
906.0243	0.003603
906.2643	0.006432
906.5043	0.005250
906.7443	0.004997
906.9843	0.003645
907.2243	0.003878
907.4643	0.005778
907.7043	0.003540
907.9444	0.004743
908.1844	0.004807
908.4245	0.003878
908.6645	0.003962
908.9046	0.004068
909.1447	0.003667
909.3847	0.002379
909.6248	0.002864
909.8649	0.003688
910.1050	0.004954
910.3452	0.003835
910.5853	0.002949
910.8254	0.003983
911.0655	0.002273
911.3057	0.002674
911.5458	0.002885
911.7860	0.004110
912.0262	0.005018
912.2663	0.002717
912.5065	0.004912
912.7467	0.005208
912.9869	0.004406
913.2271	0.002020
913.4673	0.002400
913.7075	0.003540
913.9478	0.003118
914.1880	0.002949
914.4283	0.003265
914.6685	0.003223
914.9088	0.002400
915.1490	0.003350
915.3893	0.002168
915.6296	0.003498
915.8699	0.003624
916.1102	0.002548
916.3505	0.002738
916.5908	0.003603
916.8311	0.003603
917.0714	0.004448
917.3118	0.003308
917.5521	0.004701
917.7925	0.005525
918.0328	0.004279
918.2732	0.003561
918.5136	0.004638
918.7539	0.004026
918.9943	0.003645
919.2347	0.002104
919.4751	0.004047
919.7155	0.004216
919.9560	0.003751
920.1964	0.003624
920.4368	0.003202
920.6773	0.002083
920.9177	0.004659
921.1582	0.004152
921.3986	0.003413
921.6391	0.003730
921.8796	0.003688
922.1201	0.003308
922.3606	0.003287
922.6011	0.002907
922.8416	0.003793
923.0821	0.003455
923.3226	0.004448
923.5631	0.002590
923.8037	0.003392
924.0442	0.003962
924.2848	0.003983
924.5254	0.002294
924.7659	0.003941
925.0065	0.003920
925.2471	0.002717
925.4877	0.003878
925.7283	0.002864
925.9689	0.001872
926.2095	0.001682
926.4501	0.002611
926.6908	0.002548
926.9314	0.003835
927.1720	0.003709
927.4127	0.002590
927.6533	0.002358
927.8940	0.002970
928.1347	0.002991
928.3754	0.003033
928.6161	0.003244
928.8568	0.001978
929.0975	0.003075
929.3382	0.001703
929.5789	0.001619
929.8196	0.003371
930.0604	0.002590
930.3011	0.001703
930.5419	0.002780
930.7826	0.002083
931.0234	0.003772
931.2642	0.002104
931.5049	0.002421
931.7457	0.002463
931.9865	0.002991
932.2273	0.002062
932.4681	0.002041
932.7089	0.002210
932.9498	0.001830
933.1906	0.003223
933.4314	0.002062
933.6723	0.002379
933.9131	0.002759
934.1540	0.002526
934.3949	0.002843
934.6358	0.002252
934.8766	0.002421
935.1175	0.001935
935.3584	0.002146
935.5993	0.001956
935.8403	0.002780
936.0812	0.001049
936.3221	0.001766
936.5630	0.002336
936.8040	-0.000007
937.0449	0.000943
937.2859	0.002463
937.5269	0.000859
937.7678	0.001893
938.0088	0.003603
938.2498	0.001429
938.4908	0.002020
938.7318	0.002231
938.9728	0.001598
939.2138	0.001788
939.4549	0.002336
939.6959	0.001154
939.9369	0.001999
940.1780	0.002062
940.4190	0.004321
940.6601	0.001471
940.9012	0.001471
941.1422	-0.000091
941.3833	0.001408
941.6244	0.002062
941.8655	0.000943
942.1066	0.001450
942.3477	0.002020
942.5889	0.000626
942.8300	0.002062
943.0711	0.002780
943.3123	0.002104
943.5534	0.000542
943.7946	0.001260
944.0357	0.000267
944.2769	0.000669
944.5181	0.000500
944.7593	0.000542
945.0005	0.001978
945.2417	0.001513
945.4829	0.001133
945.7241	0.000647
945.9653	0.000352
946.2066	0.000753
946.4478	0.000837
946.6891	0.000859
946.9303	0.000964
947.1716	0.000563
947.4128	0.000816
947.6541	0.001112
947.8954	0.000901
948.1367	0.000542
948.3780	0.000837
948.6193	-0.000514
948.8606	0.002210
949.1019	0.000647
949.3433	0.001450
949.5846	0.001133
949.8259	0.001661
950.0673	-0.000472
950.3086	0.001914
950.5500	0.001239
950.7914	0.000246
951.0327	0.002526
951.2741	0.000605
951.5155	0.001872
951.7569	0.001809
951.9983	0.002062
952.2398	0.000035
952.4812	0.001175
952.7226	0.000289
952.9640	0.002336
953.2055	0.001239
953.4469	0.000922
953.6884	0.001619
953.9299	0.000204
954.1713	0.001218
954.4128	0.000901
954.6543	0.000880
954.8958	0.000922
955.1373	-0.000197
955.3788	0.001724
955.6203	-0.000324
955.8618	0.003265
956.1034	0.000837
956.3449	0.000077
956.5865	0.002125
956.8280	0.000901
957.0696	0.000162
957.3111	0.000690
957.5527	0.000521
957.7943	0.001935
958.0359	0.000521
958.2775	0.001344
958.5191	0.000099
958.7607	0.001260
959.0023	0.000880
959.2439	0.000943
959.4856	0.000795
959.7272	0.001133
959.9688	-0.000134
960.2105	0.000141
960.4522	0.000605
960.6938	0.002231
960.9355	0.001175
961.1772	0.001429
961.4189	0.000795
961.6606	0.000711
961.9023	0.000289
962.1440	0.001766
962.3857	-0.000598
962.6274	0.000479
962.8692	0.000521
963.1109	0.002210
963.3527	0.000584
963.5944	-0.000091
963.8362	0.001049
964.0779	0.000225
964.3197	0.001175
964.5615	0.001323
964.8033	0.000415
965.0451	0.000457
965.2869	0.000500
965.5287	-0.000260
965.7705	0.001788
966.0123	0.000816
966.2542	0.000605
966.4960	0.000669
966.7379	-0.001358
966.9797	-0.001189
967.2216	0.000711
967.4634	0.001914
967.7053	0.001218
967.9472	0.001112
968.1891	0.001281
968.4310	0.001788
968.6729	0.001893
968.9148	0.001576
969.1567	-0.000239
969.3987	0.000690
969.6406	0.000922
969.8825	0.000859
970.1245	0.000626
970.3664	0.002104
970.6084	0.001091
970.8504	0.000077
971.0923	0.001724
971.3343	-0.000070
971.5763	0.000267
971.8183	0.001196
972.0603	0.001049
972.3023	0.001386
972.5443	-0.000450
972.7864	0.000331
973.0284	0.000985
973.2704	0.001661
973.5125	-0.000514
973.7545	0.001450
973.9966	0.001471
974.2387	0.002189
974.4807	0.000711
974.7228	0.000246
974.9649	0.000415
975.2070	0.000331
975.4491	0.000500
975.6912	0.000141
975.9333	0.001344
976.1755	-0.000303
976.4176	0.001302
976.6597	-0.000746
976.9019	0.000584
977.1440	0.001154
977.3862	0.000859
977.6283	0.001492
977.8705	-0.000218
978.1127	0.001175
978.3549	0.001978
978.5971	0.001260
978.8393	0.001239
979.0815	0.001766
979.3237	-0.000260
979.5659	-0.000493
979.8082	-0.000408
980.0504	-0.000535
980.2926	0.000521
980.5349	0.000183
980.7771	0.001196
981.0194	-0.000303
981.2617	-0.000746
981.5040	0.000753
981.7462	0.000542
981.9885	0.001344
982.2308	0.001091
982.4731	0.000267
982.7155	0.000183
982.9578	0.000922
983.2001	-0.000493
983.4424	0.000690
983.6848	-0.000028
983.9271	0.000099
984.1695	0.001091
984.4118	0.000077
984.6542	-0.000028
984.8966	-0.000746
985.1390	0.000901
985.3814	0.001049
985.6238	0.000183
985.8662	0.000901
986.1086	0.000120
986.3510	-0.000197
986.5934	0.000415
986.8358	0.001260
987.0783	-0.000852
987.3207	0.001070
987.5632	0.000035
987.8056	-0.000514
988.0481	0.001027
988.2906	0.001070
988.5331	0.000837
988.7756	-0.000176
989.0180	0.000246
989.2605	-0.001569
989.5031	0.001788
989.7456	0.000626
989.9881	-0.000450
990.2306	-0.000852
990.4732	0.000035
990.7157	0.001070
990.9582	-0.000556
991.2008	0.000584
991.4434	0.000880
991.6859	-0.000028
991.9285	0.000141
992.1711	0.000690
992.4137	0.000246
992.6563	0.001682
992.8989	0.001260
993.1415	0.000162
993.3841	0.000246
993.6267	-0.000387
993.8694	-0.000514
994.1120	0.001281
994.3547	0.000310
994.5973	0.000310
994.8400	-0.000598
995.0826	0.001196
995.3253	-0.000683
995.5680	0.001661
995.8107	0.000964
996.0534	-0.000999
996.2961	0.000162
996.5388	0.000690
996.7815	0.001429
997.0242	-0.000640
997.2670	0.001956
997.5097	0.000837
997.7524	-0.000007
997.9952	-0.000049
998.2379	-0.000408
998.4807	0.000204
998.7235	0.000394
998.9662	0.001049
999.2090	0.000267
999.4518	0.002632
999.6946	0.001049
999.9374	-0.001042
1000.1802	-0.000091
1000.4230	0.000584
1000.6659	0.000394
1000.9087	-0.001168
1001.1515	0.001323
1001.3944	0.000056
1001.6372	0.000753
1001.8801	-0.000725
1002.1230	-0.000134
1002.3658	-0.000176
1002.6087	0.000183
1002.8516	-0.000788
1003.0945	0.001323
1003.3374	0.001070
1003.5803	-0.001042
1003.8232	-0.000493
1004.0661	-0.000091
1004.3091	-0.000429
1004.5520	0.000099
1004.7949	0.001978
1005.0379	0.000331
1005.2808	0.000204
1005.5238	0.000711
1005.7667	0.000246
1006.0097	-0.000345
1006.2527	-0.000197
1006.4957	0.001049
1006.7387	0.000605
1006.9817	-0.000598
1007.2247	0.001471
1007.4677	0.000436
1007.7107	-0.000007
1007.9538	0.000964
1008.1968	-0.000345
1008.4398	-0.000091
1008.6829	0.000077
1008.9259	-0.000683
1009.1690	-0.000535
1009.4121	0.001788
1009.6551	-0.000049
1009.8982	0.001344
1010.1413	-0.000429
1010.3844	0.001619
1010.6275	-0.001612
1010.8706	0.001513
1011.1137	0.000563
1011.3568	0.000394
1011.6000	-0.000070
1011.8431	0.000056
1012.0863	-0.000936
1012.3294	0.000880
1012.5726	0.001935
1012.8157	-0.000049
1013.0589	0.000584
1013.3021	0.000120
1013.5452	0.000542
1013.7884	0.000711
1014.0316	-0.001063
1014.2748	-0.000007
1014.5180	0.000436
1014.7613	0.000415
1015.0045	-0.000113
1015.2477	0.000415
1015.4909	0.000246
1015.7342	0.000289
1015.9774	0.000880
1016.2207	-0.000218
1016.4640	0.000267
1016.7072	0.000943
1016.9505	0.000415
1017.1938	-0.000134
1017.4371	0.001070
1017.6804	0.000563
1017.9237	0.000246
1018.1670	0.001175
1018.4103	-0.000007
1018.6536	0.000225
1018.8969	0.000500
1019.1403	0.000246
1019.3836	0.000246
1019.6270	-0.000049
1019.8703	0.000225
1020.1137	-0.001063
1020.3571	-0.000239
1020.6004	0.001133
1020.8438	-0.000472
1021.0872	0.000457
1021.3306	0.000605
1021.5740	0.000964
1021.8174	0.000035
1022.0608	0.001049
1022.3042	-0.000028
1022.5477	0.000732
1022.7911	-0.001422
1023.0345	-0.000197
