# Wavelength (nm)	Intensity (a.u.)
197.7802	0.000816
197.9842	-0.001063
198.1882	0.000711
198.3922	-0.000239
198.5963	0.000711
198.8003	-0.000260
199.0044	-0.000598
199.2085	0.000331
199.4126	0.000056
199.6168	-0.000915
199.8209	0.000922
200.0251	-0.001379
200.2292	-0.000640
200.4334	0.000964
200.6376	0.000162
200.8418	-0.000429
201.0461	0.002294
201.2503	0.000584
201.4546	0.000774
201.6589	0.000647
201.8631	0.000816
202.0674	0.001429
202.2718	0.001218
202.4761	-0.000450
202.6805	-0.000746
202.8848	-0.000767
203.0892	0.000204
203.2936	-0.000535
203.4980	0.000014
203.7024	0.000141
203.9069	0.002020
204.1113	0.000690
204.3158	0.000816
204.5203	-0.000218
204.7248	0.001429
204.9293	0.000014
205.1338	0.001049
205.3384	-0.000176
205.5430	0.000035
205.7475	0.000690
205.9521	0.000584
206.1567	-0.000134
206.3614	-0.000408
206.5660	-0.000767
206.7706	0.000457
206.9753	0.000014
207.1800	0.000500
207.3847	-0.000662
207.5894	0.001049
207.7941	-0.001147
207.9989	-0.000683
208.2036	0.000711
208.4084	0.000880
208.6132	-0.001042
208.8180	0.000816
209.0228	0.000120
209.2276	0.000500
209.4325	0.000035
209.6373	0.001745
209.8422	-0.001527
210.0471	-0.000535
210.2520	0.000099
210.4569	0.002020
210.6618	0.002611
210.8668	0.000753
211.0718	0.000436
211.2767	-0.000387
211.4817	0.000183
211.6867	0.001281
211.8918	-0.000070
212.0968	-0.000830
212.3018	-0.000852
212.5069	0.001893
212.7120	0.000162
212.9171	0.000816
213.1222	0.000479
213.3273	0.000077
213.5325	-0.000450
213.7376	0.000521
213.9428	-0.000493
214.1480	0.000183
214.3532	-0.000007
214.5584	0.000373
214.7636	0.000542
214.9689	-0.000007
215.1741	0.000605
215.3794	0.000246
215.5847	-0.000704
215.7900	0.000267
215.9953	-0.000345
216.2007	0.002062
216.4060	-0.001422
216.6114	0.000162
216.8168	0.000077
217.0222	0.001576
217.2276	0.000310
217.4330	0.001534
217.6384	-0.000746
217.8439	0.000605
218.0494	-0.000493
218.2548	0.000964
218.4603	-0.000218
218.6659	-0.000472
218.8714	0.000626
219.0769	-0.000260
219.2825	0.001175
219.4881	-0.000809
219.6936	0.001175
219.8992	0.000605
220.1049	0.000077
220.3105	0.001027
220.5161	-0.000493
220.7218	-0.000282
220.9275	0.001091
221.1332	-0.000007
221.3389	0.000753
221.5446	0.000162
221.7503	-0.000873
221.9561	-0.000387
222.1618	0.000373
222.3676	0.000669
222.5734	-0.000767
222.7792	0.001344
222.9850	0.000816
223.1909	-0.000725
223.3967	0.001006
223.6026	0.000289
223.8085	0.001239
224.0144	0.000162
224.2203	0.000457
224.4262	0.001196
224.6322	0.000943
224.8381	0.001218
225.0441	-0.000176
225.2501	-0.000577
225.4561	0.000732
225.6621	0.001112
225.8681	-0.000028
226.0742	0.000753
226.2802	0.000985
226.4863	0.000542
226.6924	0.001049
226.8985	0.000626
227.1046	-0.001274
227.3107	0.001133
227.5169	0.001788
227.7230	0.000331
227.9292	0.001513
228.1354	0.000605
228.3416	0.000859
228.5478	0.000141
228.7541	0.000267
228.9603	-0.000155
229.1666	0.000373
229.3729	-0.000028
229.5791	-0.000619
229.7855	-0.000577
229.9918	0.000099
230.1981	0.000246
230.4045	0.000373
230.6108	0.001112
230.8172	-0.000007
231.0236	-0.000640
231.2300	0.000605
231.4364	0.000183
231.6429	0.000690
231.8493	0.001661
232.0558	-0.000830
232.2623	0.000816
232.4688	-0.000472
232.6753	0.000837
232.8818	0.000162
233.0884	0.000246
233.2949	0.000837
233.5015	-0.001569
233.7081	0.000584
233.9147	0.000901
234.1213	0.000774
234.3279	-0.000070
234.5346	0.001302
234.7413	-0.000345
234.9479	0.000521
235.1546	0.000753
235.3613	-0.001781
235.5680	0.000985
235.7748	-0.001527
235.9815	-0.000619
236.1883	0.001239
236.3951	0.000837
236.6018	-0.000387
236.8087	0.000943
237.0155	-0.000535
237.2223	-0.000176
237.4292	0.000584
237.6360	0.000479
237.8429	-0.000028
238.0498	0.000500
238.2567	-0.000155
238.4636	0.000014
238.6706	0.000901
238.8775	0.000837
239.0845	0.001218
239.2915	0.001724
239.4985	0.000774
239.7055	0.001598
239.9125	-0.000450
240.1195	0.000500
240.3266	-0.000577
240.5337	-0.000239
240.7407	0.001006
240.9478	0.000436
241.1549	0.000795
241.3621	-0.000028
241.5692	0.000141
241.7764	-0.000683
241.9835	0.000162
242.1907	0.000500
242.3979	0.000162
242.6051	0.000901
242.8124	0.000183
243.0196	0.000246
243.2269	0.000647
243.4341	0.000014
243.6414	-0.001168
243.8487	-0.000028
244.0560	0.000500
244.2634	0.000373
244.4707	0.001091
244.6781	0.001914
244.8854	-0.000176
245.0928	0.000204
245.3002	0.000183
245.5076	-0.000028
245.7151	-0.000915
245.9225	0.001091
246.1300	-0.000535
246.3375	0.000500
246.5449	0.000457
246.7524	0.001091
246.9600	0.000183
247.1675	0.000077
247.3750	-0.000282
247.5826	-0.000282
247.7902	-0.000472
247.9978	-0.000197
248.2054	-0.000619
248.4130	0.000521
248.6206	-0.000134
248.8283	0.000500
249.0359	0.000331
249.2436	0.001175
249.4513	0.000141
249.6590	0.001619
249.8667	-0.000535
250.0745	0.001260
250.2822	0.000542
250.4900	0.000711
250.6978	0.000289
250.9056	0.000310
251.1134	0.000225
251.3212	0.001893
251.5290	0.000711
251.7369	0.000605
251.9447	0.000647
252.1526	0.000605
252.3605	0.000457
252.5684	0.000500
252.7763	-0.001020
252.9843	0.000267
253.1922	0.000352
253.4002	-0.000514
253.6082	-0.000345
253.8162	0.000859
254.0242	0.000605
254.2322	0.000542
254.4402	0.001386
254.6483	0.000077
254.8564	-0.001168
255.0644	0.001091
255.2725	0.000816
255.4806	0.000289
255.6888	0.001027
255.8969	0.000310
256.1051	0.000394
256.3132	-0.000070
256.5214	-0.000345
256.7296	-0.000577
256.9378	-0.001084
257.1460	0.000099
257.3543	-0.000873
257.5625	0.000880
257.7708	-0.000598
257.9791	0.001239
258.1874	-0.000767
258.3957	0.000373
258.6040	0.000289
258.8124	0.000415
259.0207	0.000267
259.2291	0.000141
259.4375	0.000141
259.6459	0.000711
259.8543	-0.000556
260.0627	0.000289
260.2711	-0.000134
260.4796	0.001703
260.6881	0.000563
260.8965	0.001091
261.1050	0.001049
261.3135	0.001682
261.5221	-0.000535
261.7306	0.001133
261.9392	-0.000535
262.1477	-0.000260
262.3563	0.000880
262.5649	0.000542
262.7735	0.000795
262.9822	0.001344
263.1908	-0.001295
263.3995	0.001154
263.6081	0.000795
263.8168	0.000289
264.0255	-0.000387
264.2342	0.000669
264.4429	-0.000429
264.6517	-0.000282
264.8604	-0.000915
265.0692	0.000352
265.2780	-0.001971
265.4868	0.000162
265.6956	0.001344
265.9044	-0.000556
266.1133	-0.000556
266.3221	-0.000282
266.5310	0.001809
266.7399	0.001492
266.9488	-0.000134
267.1577	0.000880
267.3666	0.000859
267.5755	0.000394
267.7845	0.001661
267.9935	0.000753
268.2024	-0.000493
268.4114	-0.000134
268.6205	-0.000387
268.8295	-0.000091
269.0385	0.000183
269.2476	0.001112
269.4566	-0.000239
269.6657	0.000352
269.8748	0.000415
270.0839	0.000521
270.2931	-0.001337
270.5022	-0.000049
270.7114	-0.001020
270.9205	-0.000134
271.1297	-0.000091
271.3389	-0.000113
271.5481	0.000521
271.7573	0.000267
271.9666	-0.000577
272.1758	0.001006
272.3851	-0.001063
272.5944	0.000711
272.8037	0.000563
273.0130	0.001281
273.2223	0.001006
273.4316	0.001534
273.6410	0.000267
273.8504	0.001450
274.0597	0.001851
274.2691	0.001112
274.4785	-0.000852
274.6880	0.000901
274.8974	0.000500
275.1069	0.000077
275.3163	0.001091
275.5258	-0.000429
275.7353	0.001006
275.9448	0.002104
276.1543	-0.001527
276.3639	0.002400
276.5734	-0.000070
276.7830	0.000352
276.9926	0.000162
277.2022	0.002125
277.4118	-0.000704
277.6214	0.000837
277.8310	0.000647
278.0407	0.001302
278.2503	0.000310
278.4600	-0.000725
278.6697	-0.000873
278.8794	0.000626
279.0891	-0.000007
279.2989	0.000352
279.5086	0.001534
279.7184	0.000880
279.9281	0.001344
280.1379	0.000732
280.3477	-0.000239
280.5576	0.000373
280.7674	0.000056
280.9772	0.000563
281.1871	-0.000007
281.3970	0.001598
281.6069	0.000246
281.8168	0.000774
282.0267	0.000246
282.2366	-0.001105
282.4466	0.000922
282.6565	-0.000282
282.8665	-0.000662
283.0765	0.001049
283.2865	-0.000640
283.4965	0.001260
283.7065	0.000204
283.9166	0.001661
284.1266	-0.000809
284.3367	0.000162
284.5468	0.000436
284.7569	0.000795
284.9670	0.000056
285.1771	0.001598
285.3873	0.000690
285.5974	0.001386
285.8076	0.000162
286.0178	0.000352
286.2280	-0.000239
286.4382	0.001070
286.6484	0.000373
286.8587	0.000690
287.0689	-0.000450
287.2792	0.001323
287.4895	-0.000324
287.6998	0.001640
287.9101	-0.000493
288.1204	0.001365
288.3308	0.000901
288.5411	0.000500
288.7515	0.000014
288.9619	0.002062
289.1723	-0.000535
289.3827	0.000120
289.5931	0.000183
289.8035	0.000774
290.0140	-0.000683
290.2245	0.000267
290.4349	0.000204
290.6454	0.000415
290.8559	-0.000472
291.0665	0.002231
291.2770	-0.000007
291.4875	0.001027
291.6981	0.001302
291.9087	0.001281
292.1193	0.000753
292.3299	0.000985
292.5405	0.000204
292.7511	0.001281
292.9618	-0.000218
293.1724	0.000077
293.3831	-0.000683
293.5938	-0.000704
293.8045	0.001323
294.0152	0.000563
294.2260	0.000521
294.4367	0.001196
294.6475	0.000626
294.8582	0.000901
295.0690	0.001724
295.2798	0.001049
295.4906	-0.000598
295.7015	0.000436
295.9123	-0.001126
296.1232	0.001598
296.3340	-0.000345
296.5449	0.001513
296.7558	-0.001084
296.9667	0.000901
297.1777	0.000669
297.3886	0.001492
297.5995	-0.000683
297.8105	0.000816
298.0215	0.000267
298.2325	-0.000239
298.4435	-0.000683
298.6545	0.000711
298.8656	0.001049
299.0766	-0.000239
299.2877	0.000436
299.4988	0.000457
299.7099	-0.000155
299.9210	0.000331
300.1321	0.000035
300.3432	0.000711
300.5544	-0.000957
300.7655	-0.000978
300.9767	0.001323
301.1879	0.000141
301.3991	-0.000619
301.6103	0.000542
301.8215	-0.002245
302.0328	0.000479
302.2441	0.000077
302.4553	0.000943
302.6666	0.000985
302.8779	0.000120
303.0892	0.000584
303.3006	0.001534
303.5119	0.000436
303.7233	0.001788
303.9346	0.001809
304.1460	0.001218
304.3574	0.000373
304.5688	0.000521
304.7803	-0.000113
304.9917	0.000605
305.2031	-0.000113
305.4146	0.000373
305.6261	0.000479
305.8376	0.000753
306.0491	-0.001147
306.2606	0.001766
306.4722	-0.000345
306.6837	0.000584
306.8953	0.000310
307.1069	0.000584
307.3184	0.000373
307.5301	0.001809
307.7417	-0.000345
307.9533	-0.000049
308.1650	-0.000345
308.3766	0.001661
308.5883	-0.000746
308.8000	0.001429
309.0117	-0.000936
309.2234	0.002104
309.4351	-0.001232
309.6469	0.000457
309.8586	-0.000345
310.0704	0.000584
310.2822	0.000626
310.4940	0.001661
310.7058	0.001302
310.9176	-0.000239
311.1295	-0.000493
311.3413	0.000373
311.5532	0.001112
311.7651	0.000056
311.9770	-0.000619
312.1889	0.000753
312.4008	0.000120
312.6127	-0.000197
312.8247	0.000521
313.0366	0.000943
313.2486	-0.000028
313.4606	0.000647
313.6726	-0.001590
313.8846	0.000690
314.0967	0.001006
314.3087	0.000183
314.5208	0.001239
314.7328	0.000669
314.9449	0.000690
315.1570	0.001091
315.3692	-0.000577
315.5813	0.000479
315.7934	0.000267
316.0056	0.002189
316.2177	0.000352
316.4299	-0.000303
316.6421	0.000415
316.8543	0.001344
317.0666	0.001027
317.2788	-0.000514
317.4911	0.000394
317.7033	0.001027
317.9156	0.000120
318.1279	0.000373
318.3402	-0.000028
318.5525	-0.000345
318.7649	0.000225
318.9772	-0.000345
319.1896	0.000310
319.4019	0.000964
319.6143	0.001070
319.8267	0.000267
320.0392	0.000331
320.2516	0.000669
320.4640	0.000500
320.6765	0.000394
320.8890	0.000141
321.1014	0.001049
321.3139	0.000415
321.5265	0.001429
321.7390	0.000352
321.9515	-0.000683
322.1641	0.000436
322.3766	0.000964
322.5892	0.000289
322.8018	0.001534
323.0144	0.001450
323.2270	-0.000007
323.4397	-0.000619
323.6523	0.000816
323.8650	-0.001506
324.0777	0.000394
324.2904	0.000267
324.5031	-0.000345
324.7158	0.000204
324.9285	-0.000049
325.1412	-0.002266
325.3540	0.001555
325.5668	0.000141
325.7796	-0.000091
325.9924	0.000099
326.2052	0.000267
326.4180	0.000500
326.6308	0.000774
326.8437	-0.000788
327.0566	0.000289
327.2694	-0.000493
327.4823	0.000690
327.6952	0.000373
327.9082	0.000141
328.1211	-0.000197
328.3340	-0.000028
328.5470	0.000141
328.7600	0.000669
328.9730	0.001281
329.1860	-0.000113
329.3990	0.000669
329.6120	0.000795
329.8251	0.001218
330.0381	0.001027
330.2512	0.001175
330.4643	0.000605
330.6774	0.000985
330.8905	0.000795
331.1036	0.000816
331.3167	0.000922
331.5299	-0.000345
331.7431	-0.000091
331.9562	0.000035
332.1694	-0.000260
332.3826	-0.001422
332.5959	0.001513
332.8091	0.001619
333.0223	-0.000282
333.2356	0.000500
333.4489	0.000880
333.6622	-0.000070
333.8755	0.000521
334.0888	0.000732
334.3021	0.001344
334.5154	0.000267
334.7288	0.001640
334.9422	0.000246
335.1555	0.000626
335.3689	0.000415
335.5823	0.001133
335.7958	0.000099
336.0092	0.001471
336.2227	-0.000408
336.4361	-0.000746
336.6496	0.000521
336.8631	-0.000007
337.0766	0.001133
337.2901	0.000394
337.5036	-0.000535
337.7172	0.000922
337.9307	0.000077
338.1443	0.000521
338.3579	-0.000472
338.5715	0.001218
338.7851	-0.000260
338.9987	0.002231
339.2124	-0.000049
339.4260	0.001154
339.6397	0.000331
339.8533	0.000331
340.0670	0.000837
340.2807	0.001344
340.4945	0.000542
340.7082	0.001429
340.9219	-0.000007
341.1357	-0.000260
341.3495	0.000922
341.5633	0.001218
341.7771	0.000436
341.9909	0.000753
342.2047	-0.001020
342.4185	0.001956
342.6324	-0.000472
342.8463	0.000922
343.0601	0.001365
343.2740	0.000457
343.4879	-0.000514
343.7019	0.000669
343.9158	0.000289
344.1297	0.000204
344.3437	0.002189
344.5577	0.000120
344.7717	-0.000894
344.9857	0.000521
345.1997	-0.000007
345.4137	-0.000450
345.6277	-0.000472
345.8418	0.001091
346.0559	-0.000028
346.2699	0.000352
346.4840	-0.000239
346.6981	-0.000239
346.9123	0.000859
347.1264	0.000732
347.3406	0.001239
347.5547	-0.000134
347.7689	-0.000282
347.9831	0.001471
348.1973	-0.000450
348.4115	0.000626
348.6257	-0.000429
348.8400	0.000816
349.0542	0.000922
349.2685	0.001344
349.4828	-0.000450
349.6971	-0.000113
349.9114	-0.000957
350.1257	0.001070
350.3400	-0.000387
350.5544	0.000457
350.7687	-0.000387
350.9831	0.001239
351.1975	0.000626
351.4119	0.000225
351.6263	0.000331
351.8407	0.000605
352.0552	-0.000113
352.2696	-0.000049
352.4841	-0.001358
352.6986	0.000964
352.9131	-0.000070
353.1276	0.000373
353.3421	0.001555
353.5566	0.000077
353.7712	0.000267
353.9858	0.000457
354.2003	0.000985
354.4149	-0.000514
354.6295	0.001302
354.8441	0.000014
355.0588	0.001788
355.2734	-0.000007
355.4881	-0.000345
355.7027	0.000373
355.9174	-0.000852
356.1321	0.001386
356.3468	-0.000028
356.5615	0.002062
356.7763	0.000669
356.9910	0.000816
357.2058	0.000584
357.4206	-0.001569
357.6353	0.000711
357.8501	0.000542
358.0650	-0.000197
358.2798	0.000457
358.4946	0.000415
358.7095	0.000436
358.9243	0.000774
359.1392	0.000626
359.3541	0.001386
359.5690	0.000035
359.7839	0.000753
359.9989	0.001471
360.2138	-0.000830
360.4288	0.000922
360.6438	-0.000556
360.8587	0.000035
361.0737	0.000077
361.2888	0.000985
361.5038	0.000077
361.7188	0.001112
361.9339	-0.000873
362.1489	0.001450
362.3640	-0.001316
362.5791	0.001049
362.7942	0.001218
363.0093	0.000626
363.2245	-0.000303
363.4396	0.000816
363.6548	0.000605
363.8699	0.001175
364.0851	-0.000218
364.3003	0.001365
364.5155	0.000077
364.7308	0.001492
364.9460	0.000014
365.1612	-0.000155
365.3765	0.000605
365.5918	-0.000028
365.8071	-0.000091
366.0224	0.000584
366.2377	0.001344
366.4530	0.000014
366.6684	0.000816
366.8837	0.000373
367.0991	0.000837
367.3145	0.000035
367.5299	0.000141
367.7453	0.000626
367.9607	0.001049
368.1761	0.001070
368.3916	-0.001316
368.6070	0.001091
368.8225	-0.000725
369.0380	0.002358
369.2535	0.000964
369.4690	0.000774
369.6845	0.000415
369.9001	-0.001738
370.1156	0.000711
370.3312	0.000035
370.5468	0.001049
370.7624	0.000500
370.9780	-0.000007
371.1936	0.001935
371.4092	0.000605
371.6249	0.000943
371.8405	0.000204
372.0562	0.000246
372.2719	0.000605
372.4876	-0.000767
372.7033	0.000521
372.9190	0.000647
373.1348	0.000521
373.3505	0.000099
373.5663	0.000943
373.7820	0.000077
373.9978	-0.000091
374.2136	0.000035
374.4294	0.000415
374.6453	0.000479
374.8611	0.001281
375.0770	0.001027
375.2928	-0.000598
375.5087	0.001154
375.7246	0.000352
375.9405	0.000647
376.1564	-0.000345
376.3724	0.001513
376.5883	0.001133
376.8043	-0.000429
377.0203	-0.001232
377.2362	0.000605
377.4522	0.000331
377.6682	-0.000260
377.8843	0.000901
378.1003	-0.000176
378.3164	0.000500
378.5324	0.000183
378.7485	-0.000260
378.9646	0.001851
379.1807	0.000394
379.3968	0.000310
379.6129	0.000014
379.8291	0.000457
380.0452	0.001408
380.2614	-0.000303
380.4776	0.000584
380.6938	0.000289
380.9100	0.000521
381.1262	0.000077
381.3424	-0.000070
381.5587	0.000985
381.7749	-0.000197
381.9912	0.000479
382.2075	-0.000556
382.4238	0.000331
382.6401	0.000035
382.8564	0.000479
383.0728	0.001260
383.2891	0.000436
383.5055	-0.000978
383.7219	-0.000999
383.9382	0.000141
384.1546	0.000985
384.3711	0.000415
384.5875	0.002104
384.8039	0.001408
385.0204	-0.000514
385.2368	-0.000197
385.4533	0.000880
385.6698	0.000204
385.8863	0.001661
386.1028	0.000880
386.3194	0.000077
386.5359	-0.000873
386.7525	0.000690
386.9690	0.000246
387.1856	0.001766
387.4022	0.000500
387.6188	-0.000134
387.8355	0.001788
388.0521	0.001344
388.2687	-0.000767
388.4854	0.001978
388.7021	0.000099
388.9188	0.003540
389.1355	0.001112
389.3522	0.000479
389.5689	0.000584
389.7856	0.001344
390.0024	0.001555
390.2192	0.001408
390.4359	0.000901
390.6527	0.000732
390.8695	0.001935
391.0863	0.001682
391.3032	0.000267
391.5200	0.001619
391.7369	0.002104
391.9537	0.001091
392.1706	-0.000197
392.3875	0.001682
392.6044	0.001661
392.8213	0.002442
393.0383	0.001956
393.2552	0.001070
393.4722	0.001935
393.6891	0.002928
393.9061	0.001196
394.1231	0.003118
394.3401	0.002252
394.5572	0.002379
394.7742	0.000964
394.9912	0.002991
395.2083	0.002168
395.4254	0.002949
395.6425	0.003455
395.8596	0.001218
396.0767	0.002336
396.2938	0.002590
396.5109	0.003202
396.7281	0.003413
396.9453	0.003033
397.1624	0.002780
397.3796	0.003223
397.5968	0.002062
397.8140	0.002463
398.0313	0.003181
398.2485	0.003181
398.4658	0.003814
398.6830	0.003139
398.9003	0.005102
399.1176	0.003730
399.3349	0.003962
399.5522	0.003181
399.7696	0.003730
399.9869	0.005166
400.2043	0.002885
400.4216	0.003730
400.6390	0.005102
400.8564	0.004828
401.0738	0.006876
401.2912	0.004194
401.5087	0.004617
401.7261	0.004026
401.9436	0.006052
402.1610	0.004870
402.3785	0.005102
402.5960	0.003561
402.8135	0.005609
403.0310	0.004891
403.2486	0.005736
403.4661	0.005736
403.6837	0.005947
403.9013	0.006095
404.1189	0.005567
404.3365	0.004849
404.5541	0.006601
404.7717	0.006517
404.9893	0.008016
405.2070	0.006095
405.4246	0.006601
405.6423	0.005905
405.8600	0.006643
406.0777	0.008311
406.2954	0.008079
406.5131	0.007192
406.7309	0.007192
406.9486	0.005905
407.1664	0.007298
407.3842	0.007784
407.6020	0.006095
407.8198	0.008523
408.0376	0.005883
408.2554	0.007931
408.4733	0.008924
408.6911	0.009135
408.9090	0.007572
409.1269	0.009029
409.3448	0.007868
409.5627	0.008945
409.7806	0.009071
409.9985	0.008924
410.2165	0.008311
410.4344	0.008776
410.6524	0.006960
410.8704	0.008945
411.0884	0.007509
411.3064	0.008311
411.5244	0.010402
411.7424	0.011267
411.9605	0.008290
412.1785	0.007805
412.3966	0.010275
412.6147	0.010043
412.8328	0.009451
413.0509	0.010845
413.2690	0.010655
413.4871	0.009325
413.7053	0.011478
413.9234	0.010254
414.1416	0.009642
414.3598	0.011373
414.5780	0.010380
414.7962	0.010465
415.0144	0.010380
415.2326	0.012872
415.4509	0.010613
415.6692	0.012428
415.8874	0.009937
416.1057	0.014117
416.3240	0.011774
416.5423	0.012576
416.7606	0.010760
416.9790	0.013526
417.1973	0.012492
417.4157	0.010845
417.6341	0.012492
417.8524	0.012048
418.0708	0.012196
418.2893	0.013505
418.5077	0.011394
418.7261	0.014223
418.9446	0.012851
419.1630	0.012998
419.3815	0.012661
419.6000	0.014265
419.8185	0.012745
420.0370	0.014139
420.2555	0.012977
420.4741	0.015448
420.6926	0.015553
420.9112	0.014519
421.1298	0.016102
421.3483	0.016039
421.5669	0.016039
421.7856	0.018910
422.0042	0.016968
422.2228	0.017601
422.4415	0.017495
422.6601	0.016292
422.8788	0.016904
423.0975	0.017369
423.3162	0.017559
423.5349	0.017369
423.7536	0.015553
423.9724	0.017052
424.1911	0.015448
424.4099	0.016883
424.6287	0.016039
424.8475	0.017369
425.0663	0.017981
425.2851	0.016566
425.5039	0.017707
425.7228	0.016735
425.9416	0.016144
426.1605	0.018023
426.3793	0.014814
426.5982	0.015152
426.8171	0.015532
427.0361	0.015448
427.2550	0.019037
427.4739	0.021085
427.6929	0.017643
427.9118	0.017137
428.1308	0.016165
428.3498	0.018488
428.5688	0.016292
428.7878	0.016566
429.0068	0.016714
429.2259	0.020092
429.4449	0.019037
429.6640	0.021211
429.8831	0.023660
430.1022	0.019881
430.3213	0.021169
430.5404	0.021824
430.7595	0.021380
430.9787	0.023365
431.1978	0.019353
431.4170	0.019691
431.6362	0.018762
431.8553	0.018361
432.0745	0.018762
432.2938	0.016989
432.5130	0.018150
432.7322	0.016419
432.9515	0.019543
433.1707	0.018066
433.3900	0.017875
433.6093	0.020240
433.8286	0.021422
434.0479	0.023576
434.2673	0.022035
434.4866	0.021380
434.7059	0.022098
434.9253	0.021148
435.1447	0.019206
435.3641	0.018931
435.5835	0.020451
435.8029	0.021064
436.0223	0.019945
436.2418	0.020557
436.4612	0.020515
436.6807	0.021845
436.9001	0.019227
437.1196	0.020409
437.3391	0.019396
437.5586	0.020557
437.7782	0.018973
437.9977	0.020430
438.2173	0.020388
438.4368	0.021845
438.6564	0.020282
438.8760	0.021169
439.0956	0.019987
439.3152	0.021465
439.5348	0.021992
439.7545	0.019987
439.9741	0.021824
440.1938	0.019818
440.4135	0.020346
440.6331	0.019332
440.8528	0.019438
441.0725	0.025117
441.2923	0.020789
441.5120	0.026342
441.7318	0.026067
441.9515	0.024209
442.1713	0.023682
442.3911	0.024167
442.6109	0.022647
442.8307	0.025814
443.0505	0.023238
443.2703	0.023196
443.4902	0.022795
443.7101	0.025645
443.9299	0.022520
444.1498	0.025561
444.3697	0.023597
444.5896	0.023998
444.8095	0.022837
445.0295	0.025202
445.2494	0.024589
445.4694	0.022478
445.6894	0.022731
445.9093	0.022668
446.1293	0.021866
446.3493	0.024547
446.5694	0.023787
446.7894	0.022499
447.0094	0.022161
447.2295	0.023133
447.4496	0.022140
447.6696	0.022225
447.8897	0.023386
448.1098	0.021359
448.3300	0.019142
448.5501	0.022837
448.7702	0.021190
448.9904	0.021486
449.2106	0.021064
449.4307	0.022774
449.6509	0.018657
449.8711	0.020156
450.0914	0.022436
450.3116	0.020219
450.5318	0.020747
450.7521	0.021570
450.9724	0.019058
451.1926	0.020789
451.4129	0.018720
451.6332	0.019332
451.8535	0.021317
452.0739	0.019142
452.2942	0.020092
452.5146	0.019206
452.7349	0.018108
452.9553	0.020472
453.1757	0.017622
453.3961	0.019712
453.6165	0.017221
453.8369	0.018002
454.0574	0.015722
454.2778	0.017749
454.4983	0.016461
454.7188	0.016757
454.9393	0.016376
455.1597	0.019206
455.3803	0.017559
455.6008	0.017728
455.8213	0.016355
456.0419	0.018699
456.2624	0.017643
456.4830	0.016398
456.7036	0.016778
456.9242	0.016503
457.1448	0.016461
457.3654	0.020092
457.5860	0.016186
457.8067	0.017854
458.0274	0.017601
458.2480	0.015743
458.4687	0.016862
458.6894	0.016672
458.9101	0.018129
459.1308	0.017200
459.3516	0.017812
459.5723	0.018234
459.7931	0.016693
460.0138	0.015490
460.2346	0.015785
460.4554	0.017327
460.6762	0.016039
460.8970	0.015870
461.1178	0.016039
461.3387	0.014603
461.5595	0.016144
461.7804	0.016018
462.0013	0.014350
462.2222	0.014603
462.4431	0.013695
462.6640	0.015363
462.8849	0.014413
463.1059	0.013484
463.3268	0.013611
463.5478	0.015363
463.7687	0.014941
463.9897	0.014962
464.2107	0.013463
464.4317	0.013315
464.6528	0.014899
464.8738	0.014265
465.0948	0.015089
465.3159	0.014012
465.5370	0.015089
465.7581	0.015870
465.9792	0.014392
466.2003	0.014455
466.4214	0.014012
466.6425	0.011774
466.8637	0.011943
467.0848	0.012323
467.3060	0.012196
467.5272	0.011352
467.7484	0.012323
467.9696	0.010866
468.1908	0.011225
468.4120	0.011035
468.6333	0.011542
468.8545	0.008206
469.0758	0.010908
469.2970	0.008607
469.5183	0.010402
469.7396	0.008501
469.9610	0.008691
470.1823	0.009810
470.4036	0.011542
470.6250	0.009642
470.8463	0.010127
471.0677	0.009536
471.2891	0.008945
471.5105	0.008459
471.7319	0.008734
471.9533	0.008565
472.1748	0.007931
472.3962	0.008016
472.6177	0.009642
472.8391	0.008691
473.0606	0.009494
473.2821	0.008649
473.5036	0.008734
473.7251	0.008670
473.9467	0.009874
474.1682	0.008924
474.3898	0.008755
474.6113	0.007952
474.8329	0.008818
475.0545	0.007467
475.2761	0.009029
475.4977	0.007488
475.7193	0.008966
475.9410	0.008839
476.1626	0.007826
476.3843	0.008544
476.6060	0.008248
476.8277	0.006939
477.0494	0.007361
477.2711	0.008691
477.4928	0.007551
477.7145	0.007974
477.9363	0.009430
478.1580	0.008079
478.3798	0.007847
478.6016	0.007847
478.8234	0.009219
479.0452	0.007594
479.2670	0.006179
479.4888	0.004849
479.7107	0.007826
479.9325	0.007868
480.1544	0.007931
480.3763	0.006728
480.5982	0.006749
480.8201	0.007002
481.0420	0.008142
481.2639	0.005841
481.4859	0.006897
481.7078	0.007615
481.9298	0.006707
482.1517	0.007298
482.3737	0.007425
482.5957	0.006791
482.8177	0.006496
483.0398	0.006221
483.2618	0.006897
483.4838	0.006707
483.7059	0.007066
483.9280	0.006158
484.1501	0.007087
484.3721	0.006686
484.5943	0.007298
484.8164	0.006665
485.0385	0.006538
485.2606	0.005419
485.4828	0.009177
485.7050	0.012830
485.9271	0.019628
486.1493	0.018994
486.3715	0.014624
486.5937	0.010782
486.8160	0.011605
487.0382	0.010760
487.2605	0.010760
487.4827	0.008945
487.7050	0.007931
487.9273	0.007129
488.1496	0.004722
488.3719	0.006327
488.5942	0.004701
488.8165	0.005250
489.0389	0.005862
489.2612	0.004891
489.4836	0.005292
489.7060	0.006453
489.9284	0.004891
490.1508	0.004912
490.3732	0.005060
490.5956	0.004511
490.8180	0.005905
491.0405	0.006137
491.2630	0.004743
491.4854	0.003561
491.7079	0.004933
491.9304	0.004237
492.1529	0.004068
492.3755	0.004828
492.5980	0.003814
492.8205	0.005229
493.0431	0.003329
493.2657	0.003793
493.4882	0.004131
493.7108	0.003329
493.9334	0.004933
494.1561	0.002252
494.3787	0.005271
494.6013	0.002801
494.8240	0.003455
495.0466	0.004490
495.2693	0.004406
495.4920	0.003519
495.7147	0.003962
495.9374	0.002738
496.1601	0.002569
496.3829	0.003667
496.6056	0.005651
496.8284	0.003920
497.0511	0.004469
497.2739	0.002526
497.4967	0.003899
497.7195	0.003054
497.9423	0.003519
498.1652	0.004216
498.3880	0.004004
498.6109	0.002801
498.8337	0.004596
499.0566	0.002548
499.2795	0.003962
499.5024	0.003899
499.7253	0.003878
499.9482	0.003455
500.1712	0.003603
500.3941	0.002991
500.6171	0.004342
500.8400	0.002062
501.0630	0.004300
501.2860	0.002653
501.5090	0.003582
501.7320	0.002231
501.9551	0.004680
502.1781	0.003857
502.4012	0.003075
502.6242	0.004258
502.8473	0.004173
503.0704	0.003814
503.2935	0.003540
503.5166	0.004279
503.7397	0.005440
503.9628	0.003455
504.1860	0.003814
504.4092	0.004047
504.6323	0.003603
504.8555	0.003878
505.0787	0.003244
505.3019	0.004807
505.5251	0.003582
505.7483	0.002442
505.9716	0.002548
506.1948	0.003751
506.4181	0.002569
506.6414	0.002738
506.8647	0.004173
507.0880	0.002273
507.3113	0.002864
507.5346	0.003202
507.7579	0.003097
507.9813	0.003371
508.2046	0.003814
508.4280	0.003540
508.6514	0.003603
508.8748	0.004659
509.0982	0.002104
509.3216	0.003054
509.5450	0.003498
509.7685	0.003835
509.9919	0.002653
510.2154	0.002653
510.4388	0.003160
510.6623	0.003413
510.8858	0.004258
511.1093	0.004004
511.3329	0.003012
511.5564	0.003540
511.7799	0.001619
512.0035	0.004004
512.2270	0.002885
512.4506	0.001788
512.6742	0.004110
512.8978	0.004173
513.1214	0.004279
513.3451	0.002569
513.5687	0.003920
513.7923	0.002125
514.0160	0.001724
514.2397	0.002294
514.4634	0.002653
514.6871	0.001661
514.9108	0.004490
515.1345	0.002907
515.3582	0.003814
515.5819	0.003223
515.8057	0.004659
516.0295	0.002717
516.2532	0.002252
516.4770	0.003097
516.7008	0.002801
516.9246	0.002358
517.1485	0.004047
517.3723	0.003223
517.5961	0.004089
517.8200	0.001745
518.0439	0.003603
518.2677	0.002864
518.4916	0.003751
518.7155	0.002569
518.9395	0.004216
519.1634	0.002738
519.3873	0.003920
519.6113	0.004258
519.8352	0.003160
520.0592	0.003603
520.2832	0.003603
520.5072	0.002526
520.7312	0.002294
520.9552	0.002717
521.1792	0.002843
521.4033	0.004026
521.6273	0.003392
521.8514	0.002358
522.0755	0.003983
522.2996	0.004089
522.5237	0.003498
522.7478	0.003308
522.9719	0.004680
523.1960	0.002168
523.4202	0.002189
523.6443	0.004004
523.8685	0.002780
524.0927	0.005334
524.3169	0.002463
524.5411	0.003244
524.7653	0.004342
524.9895	0.002885
525.2138	0.004469
525.4380	0.003688
525.6623	0.003097
525.8865	0.002801
526.1108	0.004828
526.3351	0.004976
526.5594	0.003730
526.7837	0.003645
527.0081	0.004659
527.2324	0.005947
527.4568	0.003118
527.6811	0.004976
527.9055	0.005123
528.1299	0.003899
528.3543	0.005693
528.5787	0.004532
528.8031	0.004427
529.0276	0.003603
529.2520	0.006390
529.4765	0.005292
529.7009	0.002780
529.9254	0.005166
530.1499	0.003498
530.3744	0.004722
530.5989	0.005018
530.8234	0.005440
531.0480	0.006369
531.2725	0.005989
531.4971	0.004237
531.7217	0.005778
531.9462	0.005546
532.1708	0.006348
532.3954	0.005947
532.6200	0.004469
532.8447	0.004997
533.0693	0.006453
533.2940	0.007277
533.5186	0.007826
533.7433	0.007530
533.9680	0.006960
534.1927	0.006348
534.4174	0.006538
534.6421	0.007699
534.8668	0.007657
535.0916	0.007192
535.3163	0.010507
535.5411	0.008480
535.7659	0.007952
535.9907	0.006791
536.2155	0.007192
536.4403	0.007805
536.6651	0.008776
536.8899	0.008269
537.1148	0.008375
537.3396	0.005356
537.5645	0.008713
537.7894	0.009557
538.0143	0.009177
538.2392	0.009135
538.4641	0.008417
538.6890	0.007572
538.9139	0.009515
539.1389	0.011267
539.3638	0.010296
539.5888	0.009747
539.8138	0.010338
540.0388	0.010676
540.2638	0.009663
540.4888	0.008945
540.7138	0.010254
540.9389	0.010570
541.1639	0.009114
541.3890	0.010570
541.6140	0.011077
541.8391	0.010275
542.0642	0.012365
542.2893	0.011922
542.5144	0.011922
542.7396	0.010908
542.9647	0.014920
543.1899	0.013167
543.4150	0.011774
543.6402	0.012534
543.8654	0.014899
544.0906	0.013083
544.3158	0.014751
544.5410	0.014329
544.7662	0.015363
544.9915	0.014392
545.2167	0.015996
545.4420	0.015215
545.6673	0.013484
545.8926	0.013822
546.1179	0.013611
546.3432	0.013949
546.5685	0.013885
546.7938	0.013421
547.0192	0.013547
547.2445	0.015300
547.4699	0.015448
547.6953	0.016714
547.9206	0.018213
548.1460	0.019501
548.3715	0.019586
548.5969	0.019733
548.8223	0.018044
549.0478	0.018488
549.2732	0.019860
549.4987	0.016566
549.7242	0.018150
549.9496	0.018213
550.1751	0.017158
550.4007	0.017664
550.6262	0.017474
550.8517	0.017094
551.0773	0.017390
551.3028	0.016735
551.5284	0.018382
551.7540	0.018783
551.9796	0.019353
552.2052	0.022161
552.4308	0.021254
552.6564	0.021021
552.8820	0.023154
553.1077	0.021781
553.3333	0.020325
553.5590	0.021359
553.7847	0.022753
554.0104	0.023259
554.2361	0.024125
554.4618	0.021845
554.6875	0.021612
554.9132	0.021591
555.1390	0.021064
555.3648	0.022816
555.5905	0.023407
555.8163	0.023724
556.0421	0.025624
556.2679	0.025476
556.4937	0.025012
556.7195	0.024653
556.9454	0.023344
557.1712	0.024230
557.3971	0.023491
557.6230	0.025729
557.8488	0.025117
558.0747	0.026870
558.3006	0.025244
558.5266	0.026701
558.7525	0.024526
558.9784	0.025096
559.2044	0.024526
559.4303	0.022710
559.6563	0.024083
559.8823	0.025033
560.1083	0.027862
560.3343	0.029171
560.5603	0.031198
560.7863	0.030395
561.0124	0.031725
561.2384	0.032338
561.4645	0.034681
561.6905	0.033963
561.9166	0.034491
562.1427	0.032507
562.3688	0.032338
562.5949	0.030184
562.8211	0.030902
563.0472	0.032591
563.2733	0.032950
563.4995	0.032950
563.7257	0.033605
563.9519	0.035315
564.1781	0.034365
564.4043	0.036645
564.6305	0.036159
564.8567	0.036539
565.0829	0.038608
565.3092	0.037743
565.5355	0.037954
565.7617	0.037405
565.9880	0.037700
566.2143	0.039136
566.4406	0.040213
566.6669	0.039537
566.8932	0.040656
567.1196	0.042704
567.3459	0.048911
567.5723	0.050558
567.7987	0.051487
568.0250	0.051719
568.2514	0.055097
568.4778	0.055794
568.7043	0.059172
568.9307	0.063711
569.1571	0.068673
569.3836	0.073571
569.6100	0.082713
569.8365	0.089300
570.0630	0.094494
570.2895	0.095022
570.5160	0.099582
570.7425	0.098822
570.9690	0.101820
571.1956	0.113918
571.4221	0.116071
571.6487	0.119639
571.8752	0.125720
572.1018	0.128148
572.3284	0.130174
572.5550	0.122996
572.7816	0.113348
573.0082	0.109167
573.2349	0.119006
573.4615	0.132518
573.6882	0.140034
573.9149	0.144320
574.1415	0.149852
574.3682	0.157579
574.5949	0.158149
574.8216	0.162202
575.0484	0.165644
575.2751	0.163490
575.5018	0.165496
575.7286	0.160978
575.9554	0.151013
576.1821	0.150506
576.4089	0.158001
576.6357	0.164462
576.8626	0.169866
577.0894	0.170436
577.3162	0.177340
577.5431	0.183357
577.7699	0.202676
577.9968	0.233902
578.2237	0.227652
578.4505	0.218046
578.6774	0.206159
578.9044	0.192162
579.1313	0.183632
579.3582	0.183421
579.5851	0.193914
579.8121	0.194547
580.0391	0.199657
580.2660	0.195540
580.4930	0.196764
580.7200	0.192710
580.9470	0.198221
581.1741	0.227715
581.4011	0.278091
581.6281	0.299921
581.8552	0.305875
582.0822	0.301399
582.3093	0.291138
582.5364	0.267492
582.7635	0.247013
582.9906	0.232065
583.2177	0.213317
583.4449	0.201683
583.6720	0.186039
583.8991	0.183590
584.1263	0.185954
584.3535	0.187474
584.5807	0.192879
584.8079	0.197545
585.0351	0.216842
585.2623	0.225119
585.4895	0.224633
585.7167	0.219883
585.9440	0.219165
586.1713	0.207194
586.3985	0.196975
586.6258	0.189121
586.8531	0.192964
587.0804	0.202845
587.3077	0.218278
587.5350	0.220854
587.7624	0.217244
587.9897	0.209284
588.2171	0.194421
588.4445	0.195202
588.6718	0.186968
588.8992	0.179367
589.1266	0.169592
589.3540	0.159331
589.5815	0.158107
589.8089	0.158529
590.0363	0.154496
590.2638	0.147297
590.4913	0.146495
590.7187	0.137881
590.9462	0.132349
591.1737	0.127219
591.4012	0.128000
591.6288	0.128316
591.8563	0.125931
592.0838	0.126416
592.3114	0.126627
592.5389	0.147466
592.7665	0.176665
592.9941	0.189311
593.2217	0.193829
593.4493	0.192985
593.6769	0.191718
593.9046	0.186039
594.1322	0.178227
594.3598	0.163659
594.5875	0.163131
594.8152	0.174976
595.0429	0.188931
595.2705	0.190114
595.4983	0.185701
595.7260	0.177889
595.9537	0.167248
596.1814	0.156059
596.4092	0.146600
596.6369	0.138239
596.8647	0.138387
597.0925	0.140097
597.3203	0.141596
597.5481	0.149408
597.7759	0.142610
598.0037	0.136783
598.2315	0.136086
598.4594	0.136192
598.6872	0.149176
598.9151	0.166509
599.1430	0.182576
599.3709	0.177003
599.5988	0.175229
599.8267	0.173498
600.0546	0.174005
600.2825	0.179916
600.5105	0.174553
600.7384	0.177847
600.9664	0.178396
601.1944	0.181795
601.4223	0.181204
601.6503	0.175651
601.8783	0.166552
602.1064	0.163659
602.3344	0.160281
602.5624	0.160197
602.7905	0.164947
603.0185	0.168135
603.2466	0.174765
603.4747	0.183189
603.7028	0.186524
603.9309	0.176623
604.1590	0.169508
604.3871	0.161147
604.6152	0.158698
604.8434	0.153863
605.0715	0.154539
605.2997	0.153947
605.5279	0.161400
605.7561	0.169571
605.9843	0.172400
606.2125	0.165348
606.4407	0.160492
606.6689	0.152554
606.8972	0.151435
607.1254	0.153124
607.3537	0.153483
607.5819	0.159310
607.8102	0.155256
608.0385	0.153462
608.2668	0.148690
608.4951	0.143961
608.7235	0.144426
608.9518	0.139675
609.1801	0.134777
609.4085	0.133004
609.6369	0.130618
609.8653	0.139717
610.0936	0.145840
610.3220	0.148437
610.5505	0.144573
610.7789	0.139443
611.0073	0.132856
611.2357	0.136719
611.4642	0.134439
611.6927	0.137015
611.9211	0.133215
612.1496	0.130934
612.3781	0.125065
612.6066	0.127303
612.8351	0.126100
613.0637	0.128274
613.2922	0.126184
613.5208	0.125783
613.7493	0.125044
613.9779	0.128506
614.2065	0.124178
614.4351	0.126944
614.6637	0.120188
614.8923	0.124136
615.1209	0.125530
615.3495	0.126459
615.5782	0.130913
615.8068	0.128887
616.0355	0.123144
616.2642	0.116831
616.4929	0.113242
616.7216	0.112207
616.9503	0.105050
617.1790	0.108365
617.4077	0.107753
617.6365	0.110708
617.8652	0.108935
618.0940	0.107879
618.3227	0.106971
618.5515	0.102580
618.7803	0.095338
619.0091	0.091876
619.2379	0.089701
619.4667	0.093311
619.6956	0.089891
619.9244	0.090630
620.1533	0.096014
620.3821	0.096141
620.6110	0.093311
620.8399	0.087780
621.0688	0.081953
621.2977	0.072727
621.5266	0.071206
621.7556	0.076231
621.9845	0.081594
622.2135	0.079630
622.4424	0.082333
622.6714	0.081531
622.9004	0.085331
623.1294	0.086534
623.3584	0.089511
623.5874	0.087463
623.8164	0.085373
624.0454	0.084254
624.2745	0.084845
624.5035	0.085225
624.7326	0.087400
624.9617	0.087210
625.1908	0.084655
625.4199	0.082291
625.6490	0.081509
625.8781	0.078321
626.1072	0.076442
626.3364	0.073318
626.5655	0.074817
626.7947	0.071819
627.0238	0.066878
627.2530	0.068631
627.4822	0.073402
627.7114	0.070320
627.9406	0.066625
628.1698	0.063648
628.3991	0.063099
628.6283	0.057863
628.8576	0.057842
629.0868	0.060713
629.3161	0.060523
629.5454	0.062508
629.7747	0.062930
630.0040	0.061621
630.2333	0.060291
630.4626	0.059151
630.6920	0.058053
630.9213	0.055836
631.1507	0.056617
631.3801	0.051424
631.6094	0.051128
631.8388	0.054189
632.0682	0.053852
632.2976	0.049819
632.5271	0.048046
632.7565	0.046863
632.9859	0.045364
633.2154	0.046821
633.4448	0.045259
633.6743	0.044794
633.9038	0.043021
634.1333	0.045301
634.3628	0.043063
634.5923	0.041311
634.8218	0.041733
635.0514	0.040888
635.2809	0.040086
635.5105	0.039875
635.7400	0.044034
635.9696	0.042261
636.1992	0.043084
636.4288	0.046272
636.6584	0.045977
636.8880	0.044520
637.1177	0.042282
637.3473	0.040572
637.5770	0.043359
637.8066	0.040213
638.0363	0.041057
638.2660	0.041121
638.4957	0.042366
638.7254	0.042071
638.9551	0.041311
639.1848	0.039938
639.4145	0.040614
639.6443	0.037981
639.8740	0.037993
640.1038	0.039163
640.3336	0.036609
640.5633	0.036109
640.7931	0.036729
641.0229	0.036484
641.2528	0.033848
641.4826	0.032536
641.7124	0.034399
641.9423	0.030632
642.1721	0.029070
642.4020	0.029863
642.6319	0.029411
642.8617	0.028886
643.0916	0.028186
643.3216	0.029665
643.5515	0.030199
643.7814	0.030556
644.0113	0.028927
644.2413	0.028806
644.4712	0.027187
644.7012	0.027249
644.9312	0.028675
645.1612	0.028124
645.3912	0.026379
645.6212	0.025472
645.8512	0.026827
646.0812	0.026608
646.3113	0.026791
646.5413	0.024298
646.7714	0.026375
647.0015	0.024122
647.2316	0.022601
647.4616	0.025299
647.6918	0.025569
647.9219	0.028669
648.1520	0.030212
648.3821	0.030507
648.6123	0.033696
648.8424	0.031577
649.0726	0.032154
649.3028	0.034376
649.5329	0.033533
649.7631	0.032178
649.9933	0.031719
650.2236	0.029477
650.4538	0.028989
650.6840	0.029302
650.9143	0.028746
651.1445	0.027558
651.3748	0.027702
651.6051	0.029314
651.8354	0.033149
652.0657	0.028716
652.2960	0.030165
652.5263	0.032960
652.7566	0.030543
652.9870	0.030877
653.2173	0.032431
653.4477	0.032659
653.6780	0.031582
653.9084	0.031756
654.1388	0.032630
654.3692	0.032951
654.5996	0.036215
654.8300	0.043444
655.0605	0.065540
655.2909	0.186671
655.5213	0.514503
655.7518	0.936691
655.9823	1.000000
656.2128	1.000000
656.4433	1.000000
656.6738	1.000000
656.9043	1.000000
657.1348	0.853421
657.3653	0.703435
657.5959	0.600380
657.8264	0.524604
658.0570	0.479944
658.2875	0.445127
658.5181	0.407962
658.7487	0.373259
658.9793	0.363670
659.2099	0.328251
659.4406	0.256604
659.6712	0.169138
659.9018	0.100811
660.1325	0.061129
660.3632	0.036508
660.5938	0.031517
660.8245	0.027564
661.0552	0.024310
661.2859	0.024178
661.5166	0.023838
661.7474	0.023186
661.9781	0.022460
662.2088	0.021075
662.4396	0.020299
662.6704	0.023119
662.9011	0.022080
663.1319	0.022479
663.3627	0.022016
663.5935	0.023089
663.8243	0.022399
664.0552	0.021129
664.2860	0.020383
664.5168	0.021786
664.7477	0.022794
664.9786	0.024206
665.2094	0.024200
665.4403	0.023771
665.6712	0.024695
665.9021	0.022456
666.1330	0.024440
666.3640	0.021613
666.5949	0.022074
666.8259	0.019409
667.0568	0.020717
667.2878	0.019910
667.5188	0.021360
667.7497	0.020135
667.9807	0.023333
668.2117	0.022863
668.4428	0.020536
668.6738	0.020916
668.9048	0.022478
669.1359	0.021760
669.3669	0.019902
669.5980	0.021401
669.8291	0.022309
670.0602	0.022900
670.2913	0.023639
670.5224	0.024230
670.7535	0.021781
670.9846	0.020282
671.2157	0.023238
671.4469	0.026342
671.6781	0.030459
671.9092	0.031367
672.1404	0.031958
672.3716	0.033056
672.6028	0.033034
672.8340	0.033457
673.0652	0.031662
673.2964	0.031008
673.5277	0.030818
673.7589	0.030205
673.9902	0.031514
674.2214	0.029065
674.4527	0.028960
674.6840	0.027756
674.9153	0.027186
675.1466	0.028833
675.3779	0.027461
675.6093	0.025054
675.8406	0.025941
676.0719	0.025223
676.3033	0.025729
676.5347	0.026236
676.7661	0.024800
676.9974	0.022647
677.2288	0.023048
677.4602	0.024146
677.6917	0.029403
677.9231	0.027566
678.1545	0.028559
678.3860	0.028495
678.6174	0.029509
678.8489	0.030775
679.0804	0.031282
679.3119	0.033267
679.5434	0.033457
679.7749	0.035758
680.0064	0.035969
680.2379	0.034301
680.4694	0.035230
680.7010	0.032422
680.9325	0.034343
681.1641	0.033098
681.3957	0.034006
681.6273	0.036434
681.8589	0.032697
682.0905	0.032718
682.3221	0.033182
682.5537	0.032232
682.7854	0.029530
683.0170	0.029614
683.2487	0.032443
683.4803	0.029994
683.7120	0.032739
683.9437	0.031388
684.1754	0.033077
684.4071	0.034238
684.6388	0.036856
684.8705	0.040276
685.1023	0.039326
685.3340	0.042472
685.5658	0.044330
685.7975	0.043739
686.0293	0.044541
686.2611	0.043232
686.4929	0.044372
686.7247	0.041986
686.9565	0.042620
687.1883	0.044119
687.4202	0.045449
687.6520	0.043718
687.8838	0.042831
688.1157	0.042282
688.3476	0.038482
688.5795	0.037806
688.8114	0.037827
689.0433	0.037405
689.2752	0.037489
689.5071	0.037215
689.7390	0.037975
689.9710	0.033309
690.2029	0.035610
690.4349	0.035800
690.6669	0.034745
690.8988	0.036180
691.1308	0.037806
691.3628	0.038080
691.5948	0.039178
691.8269	0.038397
692.0589	0.038904
692.2909	0.037785
692.5230	0.037975
692.7550	0.038144
692.9871	0.037848
693.2192	0.040002
693.4513	0.037848
693.6834	0.037743
693.9155	0.038988
694.1476	0.036054
694.3797	0.034745
694.6119	0.033415
694.8440	0.032422
695.0762	0.034132
695.3083	0.034069
695.5405	0.033119
695.7727	0.031599
696.0049	0.029741
696.2371	0.029340
696.4693	0.031557
696.7016	0.036518
696.9338	0.039073
697.1660	0.040677
697.3983	0.038545
697.6306	0.037278
697.8628	0.038038
698.0951	0.038292
698.3274	0.037553
698.5597	0.036624
698.7920	0.038334
699.0243	0.036750
699.2567	0.035272
699.4890	0.034449
699.7214	0.033330
699.9537	0.033372
700.1861	0.032950
700.4185	0.031008
700.6509	0.031620
700.8833	0.031894
701.1157	0.029551
701.3481	0.026975
701.5806	0.028896
701.8130	0.030058
702.0454	0.029002
702.2779	0.027672
702.5104	0.031409
702.7429	0.031472
702.9753	0.029614
703.2078	0.028643
703.4403	0.027714
703.6729	0.027355
703.9054	0.027777
704.1379	0.028242
704.3705	0.029509
704.6030	0.026722
704.8356	0.025328
705.0682	0.024315
705.3008	0.024526
705.5334	0.024674
705.7660	0.025138
705.9986	0.024294
706.2312	0.026743
706.4638	0.029614
706.6965	0.030818
706.9291	0.036032
707.1618	0.037004
707.3945	0.038545
707.6272	0.038840
707.8599	0.037109
708.0926	0.037764
708.3253	0.036159
708.5580	0.036666
708.7907	0.037236
709.0235	0.032823
709.2562	0.034555
709.4890	0.033689
709.7217	0.034153
709.9545	0.034217
710.1873	0.034090
710.4201	0.034175
710.6529	0.034280
710.8857	0.033647
711.1186	0.034723
711.3514	0.030712
711.5842	0.031810
711.8171	0.030775
712.0500	0.029361
712.2828	0.028200
712.5157	0.029551
712.7486	0.030015
712.9815	0.029551
713.2144	0.029635
713.4474	0.032823
713.6803	0.035674
713.9132	0.034914
714.1462	0.036370
714.3791	0.034555
714.6121	0.035969
714.8451	0.032169
715.0781	0.034745
715.3111	0.035716
715.5441	0.034766
715.7771	0.031915
716.0102	0.031979
716.2432	0.031430
716.4762	0.029656
716.7093	0.030163
716.9424	0.027144
717.1754	0.027989
717.4085	0.028200
717.6416	0.029361
717.8747	0.029720
718.1078	0.030036
718.3410	0.030311
718.5741	0.030311
718.8072	0.029298
719.0404	0.028474
719.2736	0.029445
719.5067	0.030163
719.7399	0.028474
719.9731	0.029466
720.2063	0.028115
720.4395	0.026891
720.6727	0.029445
720.9060	0.028369
721.1392	0.030311
721.3725	0.029403
721.6057	0.029551
721.8390	0.030311
722.0723	0.029044
722.3055	0.029129
722.5388	0.028073
722.7721	0.028516
723.0055	0.028791
723.2388	0.026975
723.4721	0.028917
723.7055	0.029889
723.9388	0.028559
724.1722	0.027925
724.4056	0.027777
724.6389	0.026785
724.8723	0.028326
725.1057	0.029699
725.3391	0.031852
725.5726	0.033013
725.8060	0.034956
726.0394	0.034723
726.2729	0.033731
726.5063	0.033478
726.7398	0.033689
726.9733	0.031261
727.2068	0.032042
727.4403	0.032950
727.6738	0.034006
727.9073	0.032422
728.1408	0.034808
728.3743	0.034702
728.6079	0.034977
728.8414	0.033710
729.0750	0.033077
729.3086	0.035652
729.5421	0.035969
729.7757	0.036983
730.0093	0.037320
730.2429	0.036624
730.4766	0.037067
730.7102	0.037743
730.9438	0.042873
731.1775	0.041817
731.4111	0.044520
731.6448	0.043190
731.8785	0.043992
732.1122	0.042050
732.3458	0.040572
732.5795	0.042176
732.8133	0.043908
733.0470	0.044119
733.2807	0.041163
733.5145	0.042219
733.7482	0.044794
733.9820	0.046884
734.2157	0.050854
734.4495	0.051719
734.6833	0.051107
734.9171	0.048405
735.1509	0.048088
735.3847	0.048025
735.6185	0.048341
735.8524	0.049101
736.0862	0.050094
736.3201	0.049714
736.5539	0.049355
736.7878	0.048763
737.0217	0.047813
737.2556	0.049080
737.4895	0.046800
737.7234	0.044837
737.9573	0.042556
738.1912	0.044541
738.4252	0.040487
738.6591	0.039136
738.8931	0.043042
739.1271	0.043084
739.3610	0.045301
739.5950	0.046631
739.8290	0.046209
740.0630	0.044288
740.2970	0.043274
740.5310	0.037236
740.7651	0.041648
740.9991	0.038735
741.2332	0.036560
741.4672	0.034892
741.7013	0.033140
741.9354	0.034829
742.1695	0.033647
742.4036	0.035462
742.6377	0.036349
742.8718	0.035294
743.1059	0.031915
743.3400	0.033098
743.5742	0.032760
743.8083	0.030311
744.0425	0.031514
744.2767	0.028875
744.5108	0.028981
744.7450	0.030649
744.9792	0.030438
745.2134	0.028981
745.4477	0.028369
745.6819	0.030205
745.9161	0.028643
746.1504	0.028284
746.3846	0.028157
746.6189	0.027735
746.8532	0.028390
747.0874	0.031155
747.3217	0.032169
747.5560	0.033647
747.7903	0.029044
748.0247	0.029973
748.2590	0.029593
748.4933	0.030374
748.7277	0.029868
748.9620	0.030100
749.1964	0.029192
749.4308	0.031620
749.6652	0.034365
749.8995	0.039178
750.1339	0.037320
750.3684	0.041458
750.6028	0.040635
750.8372	0.039938
751.0717	0.036898
751.3061	0.039938
751.5406	0.041691
751.7750	0.038397
752.0095	0.037257
752.2440	0.040551
752.4785	0.039178
752.7130	0.036856
752.9475	0.035906
753.1820	0.034660
753.4166	0.038925
753.6511	0.038608
753.8856	0.043105
754.1202	0.040065
754.3548	0.043844
754.5894	0.038608
754.8239	0.036476
755.0585	0.039685
755.2931	0.042197
755.5278	0.043570
755.7624	0.041965
755.9970	0.043591
756.2317	0.046040
756.4663	0.046293
756.7010	0.050072
756.9356	0.051001
757.1703	0.054126
757.4050	0.055013
757.6397	0.059890
757.8744	0.059510
758.1091	0.058306
758.3438	0.055604
758.5786	0.056364
758.8133	0.054168
759.0481	0.054126
759.2828	0.055372
759.5176	0.059995
759.7524	0.059721
759.9872	0.058560
760.2220	0.059995
760.4568	0.062065
760.6916	0.064366
760.9264	0.064134
761.1613	0.061199
761.3961	0.060946
761.6310	0.056765
761.8658	0.054189
762.1007	0.049144
762.3356	0.050136
762.5705	0.047877
762.8054	0.048320
763.0403	0.049925
763.2752	0.050854
763.5101	0.049925
763.7450	0.049038
763.9800	0.050769
764.2149	0.052712
764.4499	0.054168
764.6849	0.058370
764.9198	0.058180
765.1548	0.058412
765.3898	0.054928
765.6248	0.054971
765.8599	0.050811
766.0949	0.048911
766.3299	0.046040
766.5650	0.045955
766.8000	0.041965
767.0351	0.039706
767.2701	0.036877
767.5052	0.037890
767.7403	0.038313
767.9754	0.041986
768.2105	0.043232
768.4456	0.046610
768.6808	0.049186
768.9159	0.049418
769.1510	0.049439
769.3862	0.046927
769.6214	0.046694
769.8565	0.044710
770.0917	0.044794
770.3269	0.042810
770.5621	0.047159
770.7973	0.045005
771.0325	0.045808
771.2677	0.047391
771.5030	0.048215
771.7382	0.043760
771.9735	0.042050
772.2087	0.041902
772.4440	0.040762
772.6793	0.040339
772.9146	0.040107
773.1499	0.041627
773.3852	0.039601
773.6205	0.038650
773.8558	0.036687
774.0911	0.036581
774.3265	0.033478
774.5618	0.032633
774.7972	0.032887
775.0326	0.030121
775.2679	0.031747
775.5033	0.030522
775.7387	0.030311
775.9741	0.028411
776.2095	0.027102
776.4450	0.026194
776.6804	0.026532
776.9158	0.025328
777.1513	0.024357
777.3868	0.025708
777.6222	0.024758
777.8577	0.026067
778.0932	0.023470
778.3287	0.025919
778.5642	0.026152
778.7997	0.027735
779.0352	0.028031
779.2707	0.030163
779.5063	0.031979
779.7418	0.032296
779.9774	0.030649
780.2130	0.029530
780.4485	0.027777
780.6841	0.029825
780.9197	0.031979
781.1553	0.034175
781.3909	0.035505
781.6265	0.035378
781.8622	0.035652
782.0978	0.036391
782.3335	0.036645
782.5691	0.034892
782.8048	0.036138
783.0405	0.035125
783.2761	0.033478
783.5118	0.034660
783.7475	0.035885
783.9832	0.034217
784.2190	0.033499
784.4547	0.033626
784.6904	0.030015
784.9262	0.029593
785.1619	0.028749
785.3977	0.028284
785.6335	0.029023
785.8692	0.029234
786.1050	0.030184
786.3408	0.029445
786.5766	0.029213
786.8124	0.027186
787.0483	0.026553
787.2841	0.027841
787.5199	0.030205
787.7558	0.029931
787.9917	0.029403
788.2275	0.029255
788.4634	0.031535
788.6993	0.030163
788.9352	0.031873
789.1711	0.030438
789.4070	0.032106
789.6429	0.029720
789.8789	0.027207
790.1148	0.025624
790.3507	0.026342
790.5867	0.025349
790.8227	0.024357
791.0586	0.023344
791.2946	0.024209
791.5306	0.023534
791.7666	0.025455
792.0026	0.023196
792.2387	0.023491
792.4747	0.023154
792.7107	0.022943
792.9468	0.022204
793.1828	0.020852
793.4189	0.022731
793.6550	0.025772
793.8910	0.026278
794.1271	0.029424
794.3632	0.031958
794.5993	0.033605
794.8355	0.033056
795.0716	0.033710
795.3077	0.033626
795.5439	0.030649
795.7800	0.029403
796.0162	0.027271
796.2523	0.024167
796.4885	0.023069
796.7247	0.021887
796.9609	0.022394
797.1971	0.021781
797.4333	0.024420
797.6695	0.023133
797.9058	0.023808
798.1420	0.022204
798.3783	0.024357
798.6145	0.020937
798.8508	0.023090
799.0871	0.024399
799.3233	0.022731
799.5596	0.020515
799.7959	0.019628
800.0322	0.022267
800.2686	0.019290
800.5049	0.021275
800.7412	0.019839
800.9776	0.018044
801.2139	0.019712
801.4503	0.018910
801.6867	0.018720
801.9230	0.017263
802.1594	0.019691
802.3958	0.017348
802.6322	0.017833
802.8686	0.016524
803.1051	0.018277
803.3415	0.016925
803.5779	0.019142
803.8144	0.018910
804.0508	0.017179
804.2873	0.015975
804.5238	0.018446
804.7603	0.016609
804.9968	0.017685
805.2333	0.017495
805.4698	0.018023
805.7063	0.018340
805.9428	0.022077
806.1794	0.022457
806.4159	0.024547
806.6525	0.025561
806.8890	0.022710
807.1256	0.023344
807.3622	0.020557
807.5988	0.023280
807.8354	0.022837
808.0720	0.023491
808.3086	0.020979
808.5452	0.021655
808.7818	0.023513
809.0185	0.024146
809.2551	0.021802
809.4918	0.020620
809.7284	0.019227
809.9651	0.019100
810.2018	0.020261
810.4385	0.018868
810.6752	0.018910
810.9119	0.019016
811.1486	0.018340
811.3853	0.019163
811.6221	0.017580
811.8588	0.019522
812.0956	0.018572
812.3323	0.014962
812.5691	0.015490
812.8059	0.014856
813.0427	0.016018
813.2795	0.014877
813.5163	0.015046
813.7531	0.016398
813.9899	0.020979
814.2267	0.019290
814.4636	0.018593
814.7004	0.018657
814.9373	0.016714
815.1742	0.016799
815.4110	0.014329
815.6479	0.015574
815.8848	0.012956
816.1217	0.013822
816.3586	0.015701
816.5955	0.014814
816.8324	0.013991
817.0694	0.013526
817.3063	0.014835
817.5433	0.015152
817.7802	0.016461
818.0172	0.013210
818.2542	0.014877
818.4912	0.012872
818.7282	0.013104
818.9652	0.013484
819.2022	0.012830
819.4392	0.012112
819.6762	0.011605
819.9133	0.012914
820.1503	0.013294
820.3874	0.016440
820.6244	0.013758
820.8615	0.016229
821.0986	0.014962
821.3357	0.015490
821.5727	0.014709
821.8099	0.013843
822.0470	0.014392
822.2841	0.013801
822.5212	0.012175
822.7584	0.014181
822.9955	0.012724
823.2327	0.011309
823.4698	0.011964
823.7070	0.011605
823.9442	0.011288
824.1814	0.012471
824.4186	0.009114
824.6558	0.013020
824.8930	0.012281
825.1302	0.011246
825.3675	0.013484
825.6047	0.012893
825.8419	0.011774
826.0792	0.013843
826.3165	0.012808
826.5537	0.013463
826.7910	0.011837
827.0283	0.013949
827.2656	0.013864
827.5029	0.015194
827.7402	0.013357
827.9776	0.013568
828.2149	0.010887
828.4522	0.012133
828.6896	0.010866
828.9270	0.013083
829.1643	0.013188
829.4017	0.014814
829.6391	0.011077
829.8765	0.012661
830.1139	0.012597
830.3513	0.011964
830.5887	0.012133
830.8261	0.010993
831.0636	0.009599
831.3010	0.009916
831.5385	0.009325
831.7759	0.007615
832.0134	0.007995
832.2509	0.009768
832.4884	0.007868
832.7259	0.007931
832.9634	0.008607
833.2009	0.009620
833.4384	0.009451
833.6759	0.010085
833.9135	0.010064
834.1510	0.010465
834.3886	0.011394
834.6261	0.011521
834.8637	0.011964
835.1013	0.010064
835.3389	0.010718
835.5765	0.009578
835.8141	0.009451
836.0517	0.010634
836.2893	0.010148
836.5269	0.008607
836.7646	0.008375
837.0022	0.007277
837.2399	0.007066
837.4775	0.009684
837.7152	0.007636
837.9529	0.007636
838.1906	0.007298
838.4283	0.006960
838.6660	0.007572
838.9037	0.007171
839.1414	0.006876
839.3791	0.010043
839.6169	0.009029
839.8546	0.007045
840.0924	0.006306
840.3302	0.006728
840.5679	0.007277
840.8057	0.009114
841.0435	0.006707
841.2813	0.007108
841.5191	0.005039
841.7569	0.005862
841.9947	0.005166
842.2326	0.004701
842.4704	0.005989
842.7082	0.007214
842.9461	0.004511
843.1840	0.005736
843.4218	0.005419
843.6597	0.005651
843.8976	0.007066
844.1355	0.005715
844.3734	0.006517
844.6113	0.005989
844.8492	0.004152
845.0872	0.007087
845.3251	0.004532
845.5631	0.004976
845.8010	0.006834
846.0390	0.005546
846.2770	0.004406
846.5149	0.005609
846.7529	0.006031
846.9909	0.005123
847.2289	0.005271
847.4669	0.005334
847.7050	0.005482
847.9430	0.005778
848.1810	0.004300
848.4191	0.006179
848.6571	0.005250
848.8952	0.004279
849.1333	0.004427
849.3713	0.003413
849.6094	0.004828
849.8475	0.005630
850.0856	0.006116
850.3237	0.005440
850.5619	0.004743
850.8000	0.004680
851.0381	0.004912
851.2763	0.004384
851.5144	0.005419
851.7526	0.004511
851.9908	0.005144
852.2289	0.006242
852.4671	0.006221
852.7053	0.009071
852.9435	0.010338
853.1817	0.010993
853.4200	0.013378
853.6582	0.014033
853.8964	0.013822
854.1347	0.013885
854.3729	0.013758
854.6112	0.014899
854.8495	0.011943
855.0877	0.013653
855.3260	0.012872
855.5643	0.013949
855.8026	0.011415
856.0409	0.012956
856.2792	0.013822
856.5176	0.014012
856.7559	0.012259
856.9942	0.013167
857.2326	0.011499
857.4710	0.009557
857.7093	0.008945
857.9477	0.010718
858.1861	0.010254
858.4245	0.011457
858.6629	0.009177
858.9013	0.009895
859.1397	0.010043
859.3781	0.009156
859.6166	0.009093
859.8550	0.008290
860.0935	0.008333
860.3319	0.006707
860.5704	0.006517
860.8089	0.007002
861.0473	0.006327
861.2858	0.007889
861.5243	0.006665
861.7628	0.007889
862.0013	0.005672
862.2399	0.006707
862.4784	0.006749
862.7169	0.004912
862.9555	0.007488
863.1940	0.007002
863.4326	0.005356
863.6712	0.006749
863.9098	0.007002
864.1483	0.006475
864.3869	0.005503
864.6255	0.007446
864.8642	0.004384
865.1028	0.006137
865.3414	0.005208
865.5800	0.005630
865.8187	0.005820
866.0573	0.005398
866.2960	0.005060
866.5347	0.004828
866.7733	0.005123
867.0120	0.005883
867.2507	0.004722
867.4894	0.006791
867.7281	0.005567
867.9669	0.006369
868.2056	0.004764
868.4443	0.004997
868.6831	0.004912
868.9218	0.004828
869.1606	0.004743
869.3993	0.004511
869.6381	0.003645
869.8769	0.004321
870.1157	0.006812
870.3545	0.003920
870.5933	0.005841
870.8321	0.006665
871.0709	0.004152
871.3097	0.006770
871.5486	0.005377
871.7874	0.005693
872.0263	0.005313
872.2651	0.004532
872.5040	0.005588
872.7429	0.004321
872.9818	0.002590
873.2207	0.006517
873.4596	0.005883
873.6985	0.005018
873.9374	0.004553
874.1763	0.004659
874.4153	0.005398
874.6542	0.005292
874.8932	0.005039
875.1321	0.007192
875.3711	0.007235
875.6101	0.005588
875.8491	0.006285
876.0880	0.006749
876.3270	0.003983
876.5661	0.005926
876.8051	0.004279
877.0441	0.005503
877.2831	0.006601
877.5222	0.004490
877.7612	0.006052
878.0003	0.005356
878.2393	0.007425
878.4784	0.007995
878.7175	0.009642
878.9566	0.007910
879.1957	0.008206
879.4348	0.008396
879.6739	0.006200
879.9130	0.007551
880.1521	0.009536
880.3913	0.009283
880.6304	0.009198
880.8696	0.008206
881.1087	0.008016
881.3479	0.007129
881.5871	0.007404
881.8262	0.007615
882.0654	0.006559
882.3046	0.006411
882.5438	0.008037
882.7831	0.006580
883.0223	0.006369
883.2615	0.005778
883.5007	0.007446
883.7400	0.006242
883.9792	0.006010
884.2185	0.005968
884.4578	0.005862
884.6971	0.004764
884.9363	0.005334
885.1756	0.006010
885.4149	0.007045
885.6542	0.008354
885.8936	0.008860
886.1329	0.007530
886.3722	0.006876
886.6116	0.005799
886.8509	0.008311
887.0903	0.005799
887.3296	0.004849
887.5690	0.006453
887.8084	0.007446
888.0478	0.005609
888.2872	0.007551
888.5266	0.006390
888.7660	0.005905
889.0054	0.005482
889.2448	0.008185
889.4843	0.006538
889.7237	0.005166
889.9632	0.004553
890.2026	0.004469
890.4421	0.004363
890.6816	0.005166
890.9211	0.003814
891.1606	0.005546
891.4001	0.004976
891.6396	0.006010
891.8791	0.004828
892.1186	0.006411
892.3581	0.006116
892.5977	0.005144
892.8372	0.004469
893.0768	0.004173
893.3163	0.006876
893.5559	0.005736
893.7955	0.004786
894.0351	0.004173
894.2747	0.004596
894.5143	0.004701
894.7539	0.003519
894.9935	0.005651
895.2331	0.004427
895.4727	0.004406
895.7124	0.004406
895.9520	0.005546
896.1917	0.004617
896.4314	0.003540
896.6710	0.005060
896.9107	0.005102
897.1504	0.004194
897.3901	0.004004
897.6298	0.004363
897.8695	0.005525
898.1092	0.005123
898.3489	0.006179
898.5887	0.004490
898.8284	0.004617
899.0682	0.004891
899.3079	0.004638
899.5477	0.005334
899.7875	0.004743
900.0272	0.003308
900.2670	0.006475
900.5068	0.004680
900.7466	0.005102
900.9864	0.003730
901.2263	0.005651
901.4661	0.003582
901.7059	0.006031
901.9458	0.004469
902.1856	0.004321
902.4255	0.002717
902.6654	0.004596
902.9052	0.003350
903.1451	0.005187
903.3850	0.004110
903.6249	0.003561
903.8648	0.004110
904.1047	0.004870
904.3446	0.004342
904.5846	0.004659
904.8245	0.005271
905.0644	0.005799
905.3044	0.004532
905.5444	0.005440
905.7843	0.004912
906.0243	0.005461
906.2643	0.005989
906.5043	0.004764
906.7443	0.004469
906.9843	0.003835
907.2243	0.004743
907.4643	0.005144
907.7043	0.004384
907.9444	0.004807
908.1844	0.003709
908.4245	0.005546
908.6645	0.003540
908.9046	0.004406
909.1447	0.005292
909.3847	0.002885
909.6248	0.001999
909.8649	0.003413
910.1050	0.002632
910.3452	0.003287
910.5853	0.004574
910.8254	0.002738
911.0655	0.005482
911.3057	0.003329
911.5458	0.003751
911.7860	0.004786
912.0262	0.004131
912.2663	0.004300
912.5065	0.003814
912.7467	0.004279
912.9869	0.004870
913.2271	0.004448
913.4673	0.003540
913.7075	0.003688
913.9478	0.002949
914.1880	0.004237
914.4283	0.003835
914.6685	0.003772
914.9088	0.003624
915.1490	0.004173
915.3893	0.003012
915.6296	0.003329
915.8699	0.003181
916.1102	0.004553
916.3505	0.003835
916.5908	0.004976
916.8311	0.003793
917.0714	0.003688
917.3118	0.003962
917.5521	0.003350
917.7925	0.002991
918.0328	0.004722
918.2732	0.003772
918.5136	0.002358
918.7539	0.003561
918.9943	0.004131
919.2347	0.002843
919.4751	0.004342
919.7155	0.003603
919.9560	0.004722
920.1964	0.002104
920.4368	0.003878
920.6773	0.004363
920.9177	0.004110
921.1582	0.003118
921.3986	0.003012
921.6391	0.002780
921.8796	0.001766
922.1201	0.004279
922.3606	0.002970
922.6011	0.003709
922.8416	0.003730
923.0821	0.002970
923.3226	0.002548
923.5631	0.002505
923.8037	0.004933
924.0442	0.003118
924.2848	0.002463
924.5254	0.004553
924.7659	0.003835
925.0065	0.002885
925.2471	0.004342
925.4877	0.002442
925.7283	0.003814
925.9689	0.002949
926.2095	0.002104
926.4501	0.002484
926.6908	0.003413
926.9314	0.002885
927.1720	0.003371
927.4127	0.002695
927.6533	0.002020
927.8940	0.003857
928.1347	0.002822
928.3754	0.002548
928.6161	0.002801
928.8568	0.002864
929.0975	0.001809
929.3382	0.002273
929.5789	0.002569
929.8196	0.002632
930.0604	0.002548
930.3011	0.001218
930.5419	0.003688
930.7826	0.001386
931.0234	0.001914
931.2642	0.001978
931.5049	0.002611
931.7457	0.001661
931.9865	0.003181
932.2273	0.002526
932.4681	0.003118
932.7089	0.003371
932.9498	0.001450
933.1906	0.002695
933.4314	0.001661
933.6723	0.000922
933.9131	0.001534
934.1540	0.002653
934.3949	0.003751
934.6358	0.002970
934.8766	0.002822
935.1175	0.001070
935.3584	0.002885
935.5993	0.000922
935.8403	0.002822
936.0812	0.001851
936.3221	0.001619
936.5630	0.002484
936.8040	0.001323
937.0449	0.001218
937.2859	0.002885
937.5269	0.002020
937.7678	0.002125
938.0088	0.002695
938.2498	0.002041
938.4908	0.002590
938.7318	0.002843
938.9728	0.002252
939.2138	0.001323
939.4549	0.002569
939.6959	0.000626
939.9369	0.002273
940.1780	0.001513
940.4190	0.002864
940.6601	0.001302
940.9012	0.002822
941.1422	-0.000007
941.3833	0.002569
941.6244	0.001576
941.8655	0.002358
942.1066	0.000647
942.3477	0.001555
942.5889	0.001091
942.8300	0.001513
943.0711	0.001006
943.3123	0.001365
943.5534	0.001471
943.7946	0.002526
944.0357	0.001555
944.2769	0.001830
944.5181	0.001703
944.7593	0.002083
945.0005	0.000859
945.2417	0.001640
945.4829	0.000901
945.7241	0.000901
945.9653	0.000880
946.2066	0.001471
946.4478	-0.000155
946.6891	-0.001210
946.9303	0.000837
947.1716	0.000521
947.4128	0.001429
947.6541	0.002125
947.8954	0.001196
948.1367	0.001281
948.3780	0.000985
948.6193	0.000225
948.8606	0.002358
949.1019	0.000859
949.3433	0.001872
949.5846	0.001386
949.8259	0.001745
950.0673	0.000246
950.3086	0.001703
950.5500	0.002020
950.7914	0.000880
951.0327	0.002231
951.2741	0.001682
951.5155	0.000352
951.7569	0.001091
951.9983	0.001978
952.2398	0.001513
952.4812	0.001682
952.7226	0.001724
952.9640	0.001429
953.2055	-0.000176
953.4469	0.001809
953.6884	0.001049
953.9299	0.000457
954.1713	0.000246
954.4128	0.002885
954.6543	0.002252
954.8958	0.002653
955.1373	0.001555
955.3788	-0.000260
955.6203	0.001091
955.8618	0.000943
956.1034	0.001513
956.3449	0.001598
956.5865	0.000457
956.8280	0.001386
957.0696	0.001830
957.3111	0.001619
957.5527	0.001027
957.7943	0.001386
958.0359	-0.000113
958.2775	0.001619
958.5191	-0.000028
958.7607	0.001112
959.0023	0.000943
959.2439	0.001851
959.4856	0.000415
959.7272	0.001872
959.9688	0.001513
960.2105	0.000183
960.4522	0.000373
960.6938	0.001049
960.9355	-0.000028
961.1772	0.001978
961.4189	0.001429
961.6606	0.000246
961.9023	0.001429
962.1440	0.001006
962.3857	-0.000324
962.6274	0.000901
962.8692	0.000162
963.1109	0.001450
963.3527	0.001154
963.5944	0.001576
963.8362	0.000563
964.0779	0.001555
964.3197	0.000859
964.5615	0.000352
964.8033	-0.000091
965.0451	0.000415
965.2869	0.000310
965.5287	0.003392
965.7705	0.000267
966.0123	0.000626
966.2542	0.001492
966.4960	0.001661
966.7379	0.000331
966.9797	-0.000176
967.2216	-0.000472
967.4634	0.001893
967.7053	0.001302
967.9472	0.001851
968.1891	-0.000049
968.4310	0.001788
968.6729	0.000457
968.9148	0.001049
969.1567	0.000837
969.3987	0.002125
969.6406	0.001576
969.8825	0.001682
970.1245	0.002463
970.3664	0.001513
970.6084	0.000204
970.8504	0.000859
971.0923	-0.000070
971.3343	0.001914
971.5763	-0.000450
971.8183	0.000415
972.0603	0.000964
972.3023	0.000331
972.5443	0.000331
972.7864	0.000774
973.0284	-0.000429
973.2704	0.001133
973.5125	0.001365
973.7545	0.000605
973.9966	0.000500
974.2387	0.001682
974.4807	0.001175
974.7228	-0.000978
974.9649	-0.000091
975.2070	0.001281
975.4491	-0.000725
975.6912	0.000669
975.9333	0.001344
976.1755	0.000563
976.4176	0.000415
976.6597	0.001429
976.9019	0.000077
977.1440	-0.000873
977.3862	-0.000049
977.6283	0.000584
977.8705	-0.000070
978.1127	0.001218
978.3549	0.001302
978.5971	0.000479
978.8393	0.000267
979.0815	0.002020
979.3237	-0.000303
979.5659	0.001619
979.8082	0.001027
980.0504	0.001154
980.2926	0.001239
980.5349	0.000816
980.7771	0.001239
981.0194	0.001175
981.2617	0.001365
981.5040	0.001450
981.7462	0.001555
981.9885	0.001724
982.2308	-0.000345
982.4731	0.001175
982.7155	0.000753
982.9578	0.000246
983.2001	-0.000260
983.4424	-0.000324
983.6848	0.001281
983.9271	0.000837
984.1695	0.000014
984.4118	-0.000239
984.6542	0.001956
984.8966	-0.000282
985.1390	0.000183
985.3814	0.000626
985.6238	-0.000345
985.8662	0.001049
986.1086	0.000099
986.3510	-0.000155
986.5934	0.001006
986.8358	0.002083
987.0783	0.001239
987.3207	-0.000936
987.5632	-0.000598
987.8056	0.000690
988.0481	0.000711
988.2906	0.000352
988.5331	-0.000809
988.7756	-0.000366
989.0180	0.000056
989.2605	0.000246
989.5031	0.001724
989.7456	0.000901
989.9881	0.000289
990.2306	0.001281
990.4732	0.001218
990.7157	0.000204
990.9582	-0.000514
991.2008	0.001745
991.4434	-0.000155
991.6859	-0.001189
991.9285	0.001196
992.1711	0.000563
992.4137	-0.000408
992.6563	0.000035
992.8989	0.000415
993.1415	0.001175
993.3841	0.001408
993.6267	-0.000366
993.8694	0.000584
994.1120	0.000943
994.3547	0.000310
994.5973	-0.000598
994.8400	-0.000577
995.0826	0.002125
995.3253	-0.001379
995.5680	0.000880
995.8107	0.001386
996.0534	0.001893
996.2961	0.001133
996.5388	0.000964
996.7815	0.000099
997.0242	0.001281
997.2670	0.000035
997.5097	0.000225
997.7524	-0.001168
997.9952	0.000373
998.2379	0.000479
998.4807	0.001745
998.7235	-0.000640
998.9662	0.001091
999.2090	-0.000662
999.4518	0.000267
999.6946	-0.000134
999.9374	0.000753
1000.1802	0.000246
1000.4230	0.000816
1000.6659	0.000373
1000.9087	0.001112
1001.1515	0.001323
1001.3944	-0.000155
1001.6372	0.001344
1001.8801	0.000035
1002.1230	-0.000387
1002.3658	-0.000429
1002.6087	0.000352
1002.8516	-0.000197
1003.0945	0.001154
1003.3374	-0.000852
1003.5803	0.000816
1003.8232	-0.000366
1004.0661	0.000035
1004.3091	0.001281
1004.5520	0.001576
1004.7949	0.000500
1005.0379	-0.000535
1005.2808	0.000289
1005.5238	-0.001147
1005.7667	-0.001105
1006.0097	0.001154
1006.2527	-0.001274
1006.4957	0.000816
1006.7387	0.000690
1006.9817	0.000415
1007.2247	-0.000049
1007.4677	0.000563
1007.7107	0.000310
1007.9538	0.001218
1008.1968	0.000394
1008.4398	0.000880
1008.6829	-0.000852
1008.9259	0.002189
1009.1690	-0.000704
1009.4121	-0.000282
1009.6551	-0.000767
1009.8982	0.001619
1010.1413	0.000753
1010.3844	0.000690
1010.6275	0.001386
1010.8706	0.001766
1011.1137	0.000479
1011.3568	0.001724
1011.6000	0.000563
1011.8431	0.000289
1012.0863	-0.000662
1012.3294	0.000077
1012.5726	0.000795
1012.8157	0.001091
1013.0589	-0.000282
1013.3021	0.000711
1013.5452	0.000943
1013.7884	-0.000725
1014.0316	0.000647
1014.2748	-0.000936
1014.5180	0.000542
1014.7613	0.001344
1015.0045	0.001724
1015.2477	-0.000345
1015.4909	-0.001168
1015.7342	0.000690
1015.9774	-0.000260
1016.2207	0.000394
1016.4640	0.000373
1016.7072	0.000859
1016.9505	-0.000662
1017.1938	0.000141
1017.4371	0.000605
1017.6804	0.000310
1017.9237	-0.001147
1018.1670	-0.001210
1018.4103	-0.000429
1018.6536	0.000922
1018.8969	0.000880
1019.1403	0.000394
1019.3836	0.000035
1019.6270	0.001281
1019.8703	-0.000704
1020.1137	-0.000134
1020.3571	0.001154
1020.6004	0.000732
1020.8438	0.000521
1021.0872	0.001640
1021.3306	0.001133
1021.5740	0.000204
1021.8174	0.000415
1022.0608	-0.000640
1022.3042	0.000795
1022.5477	-0.000303
1022.7911	-0.000662
1023.0345	0.000394
