# Wavelength (nm)	Intensity (a.u.)
197.7802	-0.000100
197.9842	-0.001177
198.1882	0.000955
198.3922	0.000153
198.5963	0.001082
198.8003	-0.000164
199.0044	0.000596
199.2085	0.001230
199.4126	0.001547
199.6168	-0.001156
199.8209	0.000702
200.0251	0.000216
200.2292	-0.000649
200.4334	0.000005
200.6376	-0.000818
200.8418	-0.000987
201.0461	-0.000333
201.2503	-0.000860
201.4546	0.001990
201.6589	-0.000903
201.8631	-0.000311
202.0674	-0.000628
202.2718	0.001230
202.4761	-0.000143
202.6805	0.001293
202.8848	-0.000501
203.0892	0.000723
203.2936	-0.000121
203.4980	0.000977
203.7024	0.000681
203.9069	-0.000227
204.1113	-0.000121
204.3158	0.000301
204.5203	-0.000185
204.7248	0.000660
204.9293	-0.000417
205.1338	0.000533
205.3384	-0.000227
205.5430	0.000955
205.7475	-0.001304
205.9521	0.000301
206.1567	0.000977
206.3614	-0.000417
206.5660	-0.000459
206.7706	0.000618
206.9753	0.000364
207.1800	-0.001262
207.3847	0.000132
207.5894	0.000575
207.7941	-0.000121
207.9989	-0.001114
208.2036	-0.000311
208.4084	0.000723
208.6132	-0.000333
208.8180	0.000639
209.0228	0.000449
209.2276	0.000385
209.4325	-0.001029
209.6373	-0.000290
209.8422	0.002011
210.0471	-0.000860
210.2520	-0.001156
210.4569	0.000491
210.6618	0.000575
210.8668	0.000069
211.0718	0.000026
211.2767	0.000048
211.4817	-0.000227
211.6867	0.001547
211.8918	0.000005
212.0968	0.000998
212.3018	-0.001367
212.5069	0.001462
212.7120	0.000280
212.9171	0.000554
213.1222	0.000364
213.3273	0.000744
213.5325	-0.000903
213.7376	0.000364
213.9428	0.000090
214.1480	0.000428
214.3532	0.000090
214.5584	0.001272
214.7636	-0.000269
214.9689	0.000153
215.1741	0.000913
215.3794	0.000385
215.5847	-0.000058
215.7900	-0.000164
215.9953	0.000238
216.2007	0.000575
216.4060	0.001124
216.6114	-0.000164
216.8168	-0.000185
217.0222	-0.000185
217.2276	0.000195
217.4330	0.000850
217.6384	-0.000206
217.8439	0.000639
218.0494	-0.001979
218.2548	0.000892
218.4603	-0.000501
218.6659	-0.000734
218.8714	0.000470
219.0769	0.000216
219.2825	0.000892
219.4881	0.000174
219.6936	-0.000882
219.8992	0.000343
220.1049	-0.001726
220.3105	0.000765
220.5161	-0.000016
220.7218	0.000639
220.9275	-0.000121
221.1332	-0.001198
221.3389	-0.000649
221.5446	-0.001367
221.7503	0.000428
221.9561	0.001272
222.1618	-0.000143
222.3676	-0.001262
222.5734	-0.000016
222.7792	-0.000121
222.9850	-0.000164
223.1909	0.001758
223.3967	-0.000269
223.6026	-0.000649
223.8085	-0.000480
224.0144	0.001694
224.2203	0.001209
224.4262	-0.000523
224.6322	0.000829
224.8381	-0.000016
225.0441	-0.001050
225.2501	0.000702
225.4561	0.000364
225.6621	0.001124
225.8681	-0.000945
226.0742	-0.000459
226.2802	-0.000586
226.4863	0.002264
226.6924	0.000048
226.8985	-0.000185
227.1046	0.001779
227.3107	0.001314
227.5169	-0.000713
227.7230	-0.000058
227.9292	-0.000713
228.1354	0.000533
228.3416	-0.000164
228.5478	-0.000438
228.7541	0.001399
228.9603	-0.000713
229.1666	0.000364
229.3729	0.000280
229.5791	0.000259
229.7855	-0.000333
229.9918	0.000829
230.1981	0.000111
230.4045	0.001124
230.6108	-0.001620
230.8172	-0.000523
231.0236	0.000069
231.2300	-0.000670
231.4364	0.001272
231.6429	-0.001557
231.8493	-0.000333
232.0558	0.000026
232.2623	0.000301
232.4688	-0.000311
232.6753	-0.000375
232.8818	0.000681
233.0884	0.001272
233.2949	-0.000417
233.5015	0.001610
233.7081	0.000069
233.9147	0.001019
234.1213	0.001462
234.3279	0.000216
234.5346	0.000111
234.7413	-0.001135
234.9479	0.000385
235.1546	0.000406
235.3613	-0.000586
235.5680	0.000829
235.7748	-0.000649
235.9815	-0.000121
236.1883	0.000449
236.3951	0.000955
236.6018	-0.000586
236.8087	-0.000438
237.0155	0.001420
237.2223	0.000385
237.4292	-0.000396
237.6360	0.000048
237.8429	-0.000079
238.0498	0.001124
238.2567	0.000977
238.4636	0.000512
238.6706	0.000512
238.8775	0.000977
239.0845	0.000301
239.2915	0.001314
239.4985	-0.001219
239.7055	0.000491
239.9125	-0.000248
240.1195	0.000554
240.3266	-0.000987
240.5337	0.001061
240.7407	0.000069
240.9478	0.000533
241.1549	0.000702
241.3621	-0.001452
241.5692	-0.000185
241.7764	0.000153
241.9835	0.000090
242.1907	-0.000565
242.3979	0.001631
242.6051	0.000892
242.8124	-0.000079
243.0196	0.000850
243.2269	0.000871
243.4341	-0.000079
243.6414	-0.000987
243.8487	0.001145
244.0560	0.000765
244.2634	-0.000058
244.4707	0.000026
244.6781	-0.000396
244.8854	0.000554
245.0928	0.000596
245.3002	0.000322
245.5076	0.000026
245.7151	-0.000016
245.9225	0.000322
246.1300	-0.001325
246.3375	-0.000100
246.5449	-0.002022
246.7524	0.000934
246.9600	-0.000839
247.1675	0.000618
247.3750	0.000026
247.5826	0.000470
247.7902	0.000174
247.9978	0.000195
248.2054	0.000026
248.4130	0.000111
248.6206	0.000132
248.8283	0.001589
249.0359	-0.001135
249.2436	0.000639
249.4513	-0.000818
249.6590	0.000702
249.8667	0.001082
250.0745	0.000385
250.2822	0.000639
250.4900	-0.000544
250.6978	0.000069
250.9056	0.001188
251.1134	0.000301
251.3212	0.001167
251.5290	-0.000058
251.7369	0.000808
251.9447	-0.000185
252.1526	0.001061
252.3605	-0.000269
252.5684	0.000765
252.7763	0.000069
252.9843	0.001547
253.1922	0.001335
253.4002	0.000428
253.6082	0.000702
253.8162	-0.000713
254.0242	0.000026
254.2322	-0.001156
254.4402	-0.000860
254.6483	-0.000544
254.8564	0.000090
255.0644	-0.000966
255.2725	0.001167
255.4806	0.002201
255.6888	-0.000966
255.8969	0.000132
256.1051	-0.000121
256.3132	0.000216
256.5214	0.000512
256.7296	-0.000079
256.9378	-0.001072
257.1460	-0.000354
257.3543	-0.000565
257.5625	0.000702
257.7708	0.000069
257.9791	0.000808
258.1874	-0.000649
258.3957	0.000406
258.6040	-0.000459
258.8124	-0.000649
259.0207	-0.000797
259.2291	0.001399
259.4375	0.000575
259.6459	0.001040
259.8543	-0.000227
260.0627	0.000322
260.2711	-0.000713
260.4796	-0.000776
260.6881	0.000322
260.8965	0.000829
261.1050	0.000913
261.3135	0.000955
261.5221	-0.000839
261.7306	0.001694
261.9392	-0.001177
262.1477	0.001040
262.3563	-0.000438
262.5649	0.000449
262.7735	0.000618
262.9822	0.001906
263.1908	0.000470
263.3995	-0.000121
263.6081	-0.000480
263.8168	0.001061
264.0255	-0.000839
264.2342	0.000238
264.4429	-0.000987
264.6517	0.001188
264.8604	0.000808
265.0692	0.000786
265.2780	-0.000480
265.4868	0.000554
265.6956	-0.000121
265.9044	0.000892
266.1133	0.000470
266.3221	-0.000227
266.5310	0.000533
266.7399	0.000069
266.9488	-0.000248
267.1577	0.000892
267.3666	0.000428
267.5755	-0.000143
267.7845	0.000765
267.9935	0.000111
268.2024	-0.001135
268.4114	0.000892
268.6205	-0.000882
268.8295	0.000850
269.0385	-0.001747
269.2476	-0.000311
269.4566	0.000090
269.6657	-0.000818
269.8748	-0.000206
270.0839	-0.001304
270.2931	-0.000691
270.5022	0.000955
270.7114	0.000723
270.9205	-0.000649
271.1297	0.000385
271.3389	-0.000185
271.5481	0.000744
271.7573	0.000428
271.9666	-0.000903
272.1758	-0.000586
272.3851	-0.000649
272.5944	-0.000417
272.8037	-0.000818
273.0130	0.000786
273.2223	-0.000396
273.4316	0.000977
273.6410	-0.000691
273.8504	0.001441
274.0597	-0.000058
274.2691	-0.000311
274.4785	0.000280
274.6880	0.001103
274.8974	-0.000480
275.1069	0.000554
275.3163	-0.000713
275.5258	0.001399
275.7353	0.001631
275.9448	0.000491
276.1543	0.000216
276.3639	-0.000544
276.5734	-0.001072
276.7830	0.000744
276.9926	-0.001135
277.2022	0.001040
277.4118	-0.000966
277.6214	0.002011
277.8310	0.000111
278.0407	0.000765
278.2503	0.000090
278.4600	-0.000269
278.6697	-0.000882
278.8794	0.001990
279.0891	-0.000375
279.2989	-0.000269
279.5086	0.000765
279.7184	0.000048
279.9281	-0.000121
280.1379	0.000977
280.3477	0.000723
280.5576	0.001779
280.7674	-0.000016
280.9772	0.000132
281.1871	0.000660
281.3970	-0.000565
281.6069	-0.000016
281.8168	0.000892
282.0267	-0.000037
282.2366	-0.000459
282.4466	-0.000480
282.6565	0.000723
282.8665	0.000364
283.0765	0.000533
283.2865	-0.000311
283.4965	0.000681
283.7065	0.000871
283.9166	-0.000586
284.1266	-0.000882
284.3367	0.000216
284.5468	-0.000459
284.7569	0.000808
284.9670	-0.000185
285.1771	0.000639
285.3873	0.001441
285.5974	0.000048
285.8076	-0.000185
286.0178	0.000639
286.2280	-0.000839
286.4382	0.001103
286.6484	0.000934
286.8587	-0.000670
287.0689	-0.001029
287.2792	0.000406
287.4895	0.000174
287.6998	0.000765
287.9101	0.000406
288.1204	0.001694
288.3308	-0.000607
288.5411	0.001167
288.7515	0.000765
288.9619	0.001335
289.1723	-0.000966
289.3827	0.000723
289.5931	0.001610
289.8035	0.000829
290.0140	-0.001768
290.2245	0.000702
290.4349	-0.000882
290.6454	0.000385
290.8559	0.000998
291.0665	0.000913
291.2770	0.000491
291.4875	-0.000227
291.6981	0.000280
291.9087	0.000660
292.1193	0.000491
292.3299	0.000195
292.5405	-0.000269
292.7511	0.001230
292.9618	-0.000607
293.1724	0.001040
293.3831	0.001293
293.5938	0.000596
293.8045	-0.000311
294.0152	-0.000143
294.2260	-0.001367
294.4367	0.002053
294.6475	0.000026
294.8582	0.001230
295.0690	-0.000713
295.2798	-0.001029
295.4906	-0.000459
295.7015	0.000364
295.9123	0.000723
296.1232	0.000955
296.3340	-0.000734
296.5449	0.000660
296.7558	0.000343
296.9667	0.000829
297.1777	-0.000079
297.3886	0.000385
297.5995	0.000765
297.8105	0.001969
298.0215	-0.000691
298.2325	0.000026
298.4435	0.000850
298.6545	0.000322
298.8656	0.000660
299.0766	-0.000058
299.2877	-0.002191
299.4988	-0.000121
299.7099	-0.001832
299.9210	0.000216
300.1321	-0.000143
300.3432	-0.001198
300.5544	-0.001452
300.7655	0.000955
300.9767	-0.000417
301.1879	0.000533
301.3991	0.000153
301.6103	0.001251
301.8215	-0.000185
302.0328	-0.000164
302.2441	-0.000797
302.4553	-0.001008
302.6666	0.000470
302.8779	0.000238
303.0892	0.000174
303.3006	0.000639
303.5119	-0.000628
303.7233	0.000216
303.9346	0.000744
304.1460	0.001251
304.3574	-0.000480
304.5688	-0.000290
304.7803	-0.001409
304.9917	0.000829
305.2031	0.000090
305.4146	0.000533
305.6261	-0.000333
305.8376	0.000702
306.0491	-0.000628
306.2606	-0.000755
306.4722	-0.000628
306.6837	0.001589
306.8953	0.000153
307.1069	0.000406
307.3184	-0.000248
307.5301	-0.000164
307.7417	0.000850
307.9533	-0.000903
308.1650	-0.000185
308.3766	-0.000459
308.5883	-0.001072
308.8000	0.000048
309.0117	-0.000628
309.2234	-0.000121
309.4351	-0.000079
309.6469	0.000470
309.8586	-0.000586
310.0704	0.000977
310.2822	-0.001008
310.4940	0.000829
310.7058	-0.002296
310.9176	0.000596
311.1295	0.000280
311.3413	-0.000417
311.5532	0.000596
311.7651	0.000575
311.9770	-0.001473
312.1889	0.002159
312.4008	-0.000290
312.6127	0.000301
312.8247	-0.001262
313.0366	0.001167
313.2486	-0.001304
313.4606	0.000955
313.6726	-0.000037
313.8846	0.000174
314.0967	-0.000396
314.3087	0.000850
314.5208	0.000892
314.7328	0.001779
314.9449	-0.000459
315.1570	0.000681
315.3692	-0.000818
315.5813	0.000808
315.7934	0.000533
316.0056	-0.000565
316.2177	-0.000227
316.4299	0.000449
316.6421	0.000955
316.8543	-0.000882
317.0666	0.000005
317.2788	0.001019
317.4911	0.001483
317.7033	0.002117
317.9156	0.000660
318.1279	0.000491
318.3402	0.000596
318.5525	0.000343
318.7649	-0.001093
318.9772	0.000575
319.1896	0.001272
319.4019	-0.001135
319.6143	0.000195
319.8267	0.000174
320.0392	-0.000206
320.2516	0.000449
320.4640	0.000744
320.6765	-0.000058
320.8890	0.000892
321.1014	0.001293
321.3139	-0.000100
321.5265	-0.000058
321.7390	0.001990
321.9515	0.001378
322.1641	-0.000143
322.3766	0.001061
322.5892	-0.001114
322.8018	0.000090
323.0144	-0.000523
323.2270	0.001040
323.4397	0.000596
323.6523	0.000132
323.8650	0.000449
324.0777	0.000364
324.2904	-0.000058
324.5031	0.000111
324.7158	-0.000649
324.9285	0.000132
325.1412	-0.000164
325.3540	-0.000100
325.5668	0.000111
325.7796	0.000723
325.9924	-0.000459
326.2052	0.000998
326.4180	0.000216
326.6308	0.001525
326.8437	0.001483
327.0566	0.000449
327.2694	-0.000227
327.4823	0.000428
327.6952	-0.001262
327.9082	0.000385
328.1211	0.000090
328.3340	-0.000375
328.5470	0.002096
328.7600	0.000702
328.9730	0.000216
329.1860	0.000428
329.3990	-0.000713
329.6120	0.000069
329.8251	0.000322
330.0381	0.001272
330.2512	-0.000311
330.4643	0.000132
330.6774	-0.000459
330.8905	0.000406
331.1036	0.000343
331.3167	0.000449
331.5299	-0.000079
331.7431	-0.000501
331.9562	-0.000501
332.1694	0.000259
332.3826	-0.002127
332.5959	-0.000628
332.8091	0.000322
333.0223	0.000111
333.2356	0.001547
333.4489	-0.000438
333.6622	-0.000227
333.8755	0.000428
334.0888	0.000132
334.3021	0.000132
334.5154	-0.000480
334.7288	0.000723
334.9422	0.000385
335.1555	0.000090
335.3689	0.000090
335.5823	0.000554
335.7958	-0.000523
336.0092	0.000385
336.2227	0.000238
336.4361	0.000829
336.6496	-0.001008
336.8631	0.001040
337.0766	-0.000354
337.2901	-0.000375
337.5036	-0.000649
337.7172	0.001547
337.9307	-0.000058
338.1443	0.000786
338.3579	0.000998
338.5715	-0.000670
338.7851	0.000280
338.9987	0.000596
339.2124	-0.000016
339.4260	0.001209
339.6397	-0.000185
339.8533	0.001652
340.0670	-0.000565
340.2807	-0.000058
340.4945	-0.000734
340.7082	-0.000860
340.9219	0.000829
341.1357	0.000681
341.3495	0.000533
341.5633	0.000428
341.7771	0.000955
341.9909	0.000850
342.2047	-0.000248
342.4185	0.000364
342.6324	0.001610
342.8463	0.000491
343.0601	-0.000121
343.2740	-0.000670
343.4879	0.000723
343.7019	0.000575
343.9158	-0.000691
344.1297	0.000491
344.3437	0.000153
344.5577	0.000449
344.7717	-0.001219
344.9857	-0.000797
345.1997	-0.000755
345.4137	0.000428
345.6277	0.001462
345.8418	-0.000037
346.0559	0.000998
346.2699	-0.000248
346.4840	0.000364
346.6981	-0.000206
346.9123	-0.000016
347.1264	-0.001452
347.3406	0.000554
347.5547	-0.000143
347.7689	-0.000058
347.9831	-0.000396
348.1973	-0.000016
348.4115	0.000512
348.6257	0.000554
348.8400	0.000660
349.0542	-0.000185
349.2685	0.000913
349.4828	0.000955
349.6971	0.000364
349.9114	0.000385
350.1257	0.000808
350.3400	-0.000839
350.5544	0.000702
350.7687	0.001040
350.9831	-0.000143
351.1975	-0.000058
351.4119	-0.000016
351.6263	-0.000375
351.8407	0.001272
352.0552	-0.001304
352.2696	0.000765
352.4841	-0.001747
352.6986	-0.000649
352.9131	-0.000459
353.1276	0.000660
353.3421	-0.000649
353.5566	-0.000016
353.7712	0.000026
353.9858	-0.000185
354.2003	0.001251
354.4149	0.001504
354.6295	0.000132
354.8441	-0.000079
355.0588	-0.000670
355.2734	0.000069
355.4881	-0.000206
355.7027	0.001167
355.9174	0.000702
356.1321	0.000153
356.3468	-0.000670
356.5615	0.000364
356.7763	0.000955
356.9910	0.001209
357.2058	0.000575
357.4206	0.000575
357.6353	0.001124
357.8501	0.000786
358.0650	0.001568
358.2798	0.000153
358.4946	0.000322
358.7095	0.000765
358.9243	-0.000185
359.1392	0.000744
359.3541	-0.000143
359.5690	0.001568
359.7839	0.000132
359.9989	-0.000396
360.2138	0.000216
360.4288	0.000153
360.6438	0.000512
360.8587	0.000026
361.0737	-0.001219
361.2888	-0.000354
361.5038	-0.000248
361.7188	0.000596
361.9339	-0.000333
362.1489	-0.000079
362.3640	0.000533
362.5791	0.000723
362.7942	0.000238
363.0093	-0.000565
363.2245	-0.000755
363.4396	0.001103
363.6548	0.001716
363.8699	-0.000248
364.0851	0.000934
364.3003	0.000069
364.5155	-0.000670
364.7308	0.000596
364.9460	0.000153
365.1612	-0.000354
365.3765	0.000216
365.5918	0.000174
365.8071	0.000554
366.0224	0.000428
366.2377	-0.000523
366.4530	0.001209
366.6684	0.000301
366.8837	0.001821
367.0991	0.001420
367.3145	0.000596
367.5299	0.000195
367.7453	0.000618
367.9607	0.000132
368.1761	0.000533
368.3916	-0.000903
368.6070	0.000934
368.8225	0.000491
369.0380	0.000808
369.2535	-0.001409
369.4690	0.000195
369.6845	-0.000523
369.9001	0.000048
370.1156	-0.000375
370.3312	0.000723
370.5468	-0.000734
370.7624	0.000744
370.9780	-0.000734
371.1936	0.000153
371.4092	-0.000248
371.6249	0.000533
371.8405	-0.000523
372.0562	0.001251
372.2719	0.000871
372.4876	0.000026
372.7033	0.001420
372.9190	0.000575
373.1348	0.000132
373.3505	0.000153
373.5663	0.000048
373.7820	0.001230
373.9978	0.000069
374.2136	0.000892
374.4294	-0.000882
374.6453	0.001040
374.8611	-0.000417
375.0770	0.001610
375.2928	-0.000818
375.5087	0.000026
375.7246	-0.000311
375.9405	0.000871
376.1564	-0.000185
376.3724	0.000343
376.5883	-0.000818
376.8043	-0.000480
377.0203	0.000998
377.2362	0.000280
377.4522	-0.000227
377.6682	-0.000248
377.8843	-0.000227
378.1003	0.000195
378.3164	-0.000396
378.5324	-0.000143
378.7485	0.000238
378.9646	0.000533
379.1807	0.000596
379.3968	0.000406
379.6129	0.000639
379.8291	0.000533
380.0452	0.000026
380.2614	-0.000079
380.4776	0.000977
380.6938	0.000216
380.9100	-0.000143
381.1262	0.000554
381.3424	-0.000354
381.5587	0.000681
381.7749	0.000512
381.9912	0.001145
382.2075	0.000048
382.4238	0.000132
382.6401	0.000765
382.8564	0.000322
383.0728	0.000955
383.2891	0.000681
383.5055	0.000048
383.7219	0.000385
383.9382	0.001314
384.1546	-0.000438
384.3711	0.002074
384.5875	0.000449
384.8039	0.000216
385.0204	-0.000882
385.2368	-0.000079
385.4533	0.000934
385.6698	-0.000079
385.8863	-0.000248
386.1028	0.000280
386.3194	0.001019
386.5359	-0.000016
386.7525	0.000723
386.9690	0.000364
387.1856	0.001040
387.4022	0.000364
387.6188	0.002877
387.8355	0.000786
388.0521	0.002349
388.2687	0.001631
388.4854	0.001188
388.7021	0.001610
388.9188	0.001209
389.1355	0.001103
389.3522	0.001378
389.5689	0.000702
389.7856	0.003151
390.0024	0.002856
390.2192	0.001251
390.4359	0.002877
390.6527	0.002856
390.8695	0.002518
391.0863	0.003151
391.3032	0.002940
391.5200	0.003341
391.7369	0.003003
391.9537	0.003721
392.1706	0.004249
392.3875	0.004249
392.6044	0.004059
392.8213	0.003848
393.0383	0.005242
393.2552	0.007733
393.4722	0.004587
393.6891	0.006677
393.9061	0.006551
394.1231	0.005579
394.3401	0.006255
394.5572	0.006318
394.7742	0.006888
394.9912	0.006128
395.2083	0.007986
395.4254	0.007268
395.6425	0.007100
395.8596	0.007733
396.0767	0.006656
396.2938	0.008240
396.5109	0.009654
396.7281	0.008556
396.9453	0.009316
397.1624	0.010224
397.3796	0.009063
397.5968	0.011512
397.8140	0.011829
398.0313	0.013180
398.2485	0.012737
398.4658	0.011639
398.6830	0.010520
398.9003	0.012378
399.1176	0.012716
399.3349	0.014595
399.5522	0.013940
399.7696	0.012864
399.9869	0.013370
400.2043	0.013772
400.4216	0.012779
400.6390	0.012061
400.8564	0.012357
401.0738	0.015249
401.2912	0.014637
401.5087	0.015925
401.7261	0.014532
401.9436	0.014701
402.1610	0.014553
402.3785	0.014848
402.5960	0.016347
402.8135	0.017255
403.0310	0.016580
403.2486	0.016326
403.4661	0.017361
403.6837	0.016073
403.9013	0.014384
404.1189	0.017931
404.3365	0.017635
404.5541	0.018501
404.7717	0.017340
404.9893	0.019430
405.2070	0.017065
405.4246	0.019789
405.6423	0.019768
405.8600	0.020760
406.0777	0.019472
406.2954	0.022048
406.5131	0.019092
406.7309	0.019789
406.9486	0.018691
407.1664	0.018543
407.3842	0.018522
407.6020	0.018311
407.8198	0.020612
408.0376	0.018543
408.2554	0.019261
408.4733	0.021943
408.6911	0.021098
408.9090	0.020296
409.1269	0.021330
409.3448	0.022386
409.5627	0.022639
409.7806	0.020486
409.9985	0.021985
410.2165	0.020422
410.4344	0.022154
410.6524	0.019282
410.8704	0.019557
411.0884	0.022217
411.3064	0.020338
411.5244	0.021204
411.7424	0.020908
411.9605	0.021014
412.1785	0.022133
412.3966	0.022893
412.6147	0.022280
412.8328	0.023885
413.0509	0.023378
413.2690	0.022745
413.4871	0.025131
413.7053	0.024603
413.9234	0.023062
414.1416	0.024603
414.3598	0.023188
414.5780	0.025110
414.7962	0.023083
415.0144	0.023927
415.2326	0.023611
415.4509	0.021351
415.6692	0.023421
415.8874	0.021964
416.1057	0.023843
416.3240	0.024624
416.5423	0.026524
416.7606	0.024434
416.9790	0.022344
417.1973	0.023231
417.4157	0.023674
417.6341	0.024033
417.8524	0.023864
418.0708	0.023948
418.2893	0.024244
418.5077	0.022175
418.7261	0.024012
418.9446	0.023864
419.1630	0.025426
419.3815	0.026630
419.6000	0.026461
419.8185	0.024772
420.0370	0.025511
420.2555	0.027263
420.4741	0.026757
420.6926	0.026376
420.9112	0.027812
421.1298	0.029058
421.3483	0.031444
421.5669	0.030114
421.7856	0.031803
422.0042	0.031549
422.2228	0.032837
422.4415	0.030430
422.6601	0.029206
422.8788	0.029079
423.0975	0.032035
423.3162	0.032394
423.5349	0.030135
423.7536	0.030916
423.9724	0.028213
424.1911	0.029860
424.4099	0.029480
424.6287	0.029185
424.8475	0.028910
425.0663	0.028192
425.2851	0.027052
425.5039	0.030283
425.7228	0.028087
425.9416	0.027664
426.1605	0.025279
426.3793	0.027580
426.5982	0.024983
426.8171	0.025363
427.0361	0.025553
427.2550	0.027559
427.4739	0.030958
427.6929	0.027517
427.9118	0.030198
428.1308	0.027580
428.3498	0.026123
428.5688	0.029522
428.7878	0.027538
429.0068	0.028910
429.2259	0.026693
429.4449	0.028910
429.6640	0.033091
429.8831	0.032141
430.1022	0.030156
430.3213	0.032373
430.5404	0.033323
430.7595	0.032331
430.9787	0.031571
431.1978	0.033175
431.4170	0.030008
431.6362	0.029121
431.8553	0.029016
432.0745	0.026313
432.2938	0.025616
432.5130	0.025025
432.7322	0.026229
432.9515	0.024265
433.1707	0.026862
433.3900	0.028931
433.6093	0.029776
433.8286	0.032288
434.0479	0.031486
434.2673	0.029016
434.4866	0.028678
434.7059	0.027010
434.9253	0.026947
435.1447	0.028192
435.3641	0.029164
435.5835	0.028382
435.8029	0.028425
436.0223	0.027622
436.2418	0.030156
436.4612	0.028995
436.6807	0.027707
436.9001	0.031190
437.1196	0.028023
437.3391	0.028509
437.5586	0.027432
437.7782	0.029121
437.9977	0.027643
438.2173	0.027179
438.4368	0.028446
438.6564	0.030283
438.8760	0.028171
439.0956	0.029058
439.3152	0.028889
439.5348	0.028192
439.7545	0.029649
439.9741	0.026461
440.1938	0.027348
440.4135	0.025300
440.6331	0.027601
440.8528	0.027010
441.0725	0.028509
441.2923	0.031169
441.5120	0.033830
441.7318	0.033048
441.9515	0.030895
442.1713	0.032183
442.3911	0.031887
442.6109	0.031676
442.8307	0.029670
443.0505	0.031613
443.2703	0.031106
443.4902	0.030916
443.7101	0.031317
443.9299	0.032352
444.1498	0.032352
444.3697	0.031423
444.5896	0.030853
444.8095	0.030599
445.0295	0.031972
445.2494	0.029987
445.4694	0.028847
445.6894	0.030832
445.9093	0.029839
446.1293	0.028446
446.3493	0.028889
446.5694	0.028995
446.7894	0.030599
447.0094	0.029269
447.2295	0.029438
447.4496	0.027812
447.6696	0.026165
447.8897	0.027918
448.1098	0.028446
448.3300	0.025511
448.5501	0.025638
448.7702	0.027263
448.9904	0.026778
449.2106	0.024962
449.4307	0.027517
449.6509	0.027791
449.8711	0.025912
450.0914	0.026186
450.3116	0.025574
450.5318	0.025067
450.7521	0.025659
450.9724	0.024012
451.1926	0.023927
451.4129	0.021985
451.6332	0.022492
451.8535	0.024075
452.0739	0.022956
452.2942	0.022302
452.5146	0.023357
452.7349	0.025426
452.9553	0.024286
453.1757	0.022302
453.3961	0.021753
453.6165	0.020908
453.8369	0.022787
454.0574	0.022745
454.2778	0.020739
454.4983	0.022196
454.7188	0.019937
454.9393	0.020169
455.1597	0.020971
455.3803	0.021267
455.6008	0.021647
455.8213	0.021541
456.0419	0.021478
456.2624	0.020148
456.4830	0.020634
456.7036	0.019726
456.9242	0.019768
457.1448	0.018311
457.3654	0.021626
457.5860	0.021035
457.8067	0.020528
458.0274	0.020655
458.2480	0.019282
458.4687	0.021964
458.6894	0.020422
458.9101	0.018987
459.1308	0.019958
459.3516	0.018269
459.5723	0.021119
459.7931	0.019789
460.0138	0.020655
460.2346	0.018839
460.4554	0.020612
460.6762	0.016537
460.8970	0.018184
461.1178	0.019493
461.3387	0.019198
461.5595	0.017952
461.7804	0.018881
462.0013	0.017044
462.2222	0.015904
462.4431	0.016094
462.6640	0.015651
462.8849	0.015862
463.1059	0.015925
463.3268	0.016432
463.5478	0.014701
463.7687	0.017614
463.9897	0.017065
464.2107	0.016052
464.4317	0.015735
464.6528	0.016749
464.8738	0.018227
465.0948	0.019008
465.3159	0.016727
465.5370	0.018037
465.7581	0.019303
465.9792	0.018121
466.2003	0.016622
466.4214	0.015756
466.6425	0.014933
466.8637	0.015165
467.0848	0.014701
467.3060	0.013370
467.5272	0.012990
467.7484	0.013455
467.9696	0.013370
468.1908	0.012906
468.4120	0.012927
468.6333	0.014342
468.8545	0.012441
469.0758	0.012779
469.2970	0.010372
469.5183	0.010731
469.7396	0.009380
469.9610	0.010858
470.1823	0.009971
470.4036	0.009443
470.6250	0.010583
470.8463	0.010224
471.0677	0.008725
471.2891	0.011428
471.5105	0.009190
471.7319	0.009844
471.9533	0.009612
472.1748	0.009063
472.3962	0.008746
472.6177	0.008535
472.8391	0.010077
473.0606	0.008430
473.2821	0.008789
473.5036	0.010562
473.7251	0.009507
473.9467	0.010604
474.1682	0.009084
474.3898	0.009739
474.6113	0.008578
474.8329	0.008240
475.0545	0.009401
475.2761	0.008007
475.4977	0.008451
475.7193	0.008387
475.9410	0.009633
476.1626	0.008873
476.3843	0.008387
476.6060	0.010858
476.8277	0.008176
477.0494	0.007902
477.2711	0.007648
477.4928	0.008240
477.7145	0.007944
477.9363	0.008725
478.1580	0.007670
478.3798	0.008261
478.6016	0.007817
478.8234	0.009359
479.0452	0.007205
479.2670	0.006065
479.4888	0.007775
479.7107	0.008430
479.9325	0.008219
480.1544	0.008050
480.3763	0.006213
480.5982	0.009211
480.8201	0.005432
481.0420	0.008345
481.2639	0.008514
481.4859	0.008071
481.7078	0.007543
481.9298	0.007754
482.1517	0.006593
482.3737	0.007015
482.5957	0.005959
482.8177	0.007606
483.0398	0.006677
483.2618	0.007142
483.4838	0.006128
483.7059	0.006403
483.9280	0.005453
484.1501	0.006635
484.3721	0.006403
484.5943	0.006973
484.8164	0.006361
485.0385	0.007691
485.2606	0.007712
485.4828	0.010309
485.7050	0.014088
485.9271	0.021309
486.1493	0.022027
486.3715	0.018015
486.5937	0.014236
486.8160	0.013244
487.0382	0.011766
487.2605	0.010794
487.4827	0.010077
487.7050	0.007775
487.9273	0.006762
488.1496	0.006910
488.3719	0.005558
488.5942	0.005896
488.8165	0.004524
489.0389	0.004629
489.2612	0.007290
489.4836	0.004503
489.7060	0.006213
489.9284	0.004291
490.1508	0.004566
490.3732	0.004334
490.5956	0.003700
490.8180	0.005030
491.0405	0.002433
491.2630	0.004756
491.4854	0.003574
491.7079	0.005347
491.9304	0.003447
492.1529	0.004460
492.3755	0.004418
492.5980	0.005347
492.8205	0.004481
493.0431	0.004840
493.2657	0.004186
493.4882	0.004122
493.7108	0.003595
493.9334	0.004608
494.1561	0.004101
494.3787	0.003742
494.6013	0.004503
494.8240	0.006086
495.0466	0.003848
495.2693	0.003426
495.4920	0.004840
495.7147	0.003975
495.9374	0.003869
496.1601	0.001758
496.3829	0.004460
496.6056	0.004334
496.8284	0.002433
497.0511	0.003151
497.2739	0.004608
497.4967	0.005664
497.7195	0.004101
497.9423	0.003067
498.1652	0.002476
498.3880	0.002581
498.6109	0.002307
498.8337	0.003067
499.0566	0.003679
499.2795	0.004418
499.5024	0.004228
499.7253	0.002666
499.9482	0.004904
500.1712	0.003679
500.3941	0.003700
500.6171	0.003869
500.8400	0.002813
501.0630	0.004840
501.2860	0.004840
501.5090	0.004334
501.7320	0.002222
501.9551	0.003595
502.1781	0.003341
502.4012	0.004460
502.6242	0.004566
502.8473	0.003299
503.0704	0.003679
503.2935	0.004080
503.5166	0.004735
503.7397	0.004460
503.9628	0.003362
504.1860	0.003574
504.4092	0.001948
504.6323	0.004038
504.8555	0.001969
505.0787	0.004671
505.3019	0.000406
505.5251	0.004334
505.7483	0.003658
505.9716	0.005664
506.1948	0.002454
506.4181	0.003806
506.6414	0.002286
506.8647	0.003954
507.0880	0.003595
507.3113	0.003827
507.5346	0.002645
507.7579	0.002581
507.9813	0.002813
508.2046	0.003109
508.4280	0.001863
508.6514	0.003172
508.8748	0.002982
509.0982	0.002898
509.3216	0.004017
509.5450	0.002518
509.7685	0.001737
509.9919	0.003531
510.2154	0.003489
510.4388	0.004228
510.6623	0.003067
510.8858	0.002750
511.1093	0.003552
511.3329	0.003742
511.5564	0.003383
511.7799	0.004122
512.0035	0.003088
512.2270	0.003447
512.4506	0.002032
512.6742	0.002011
512.8978	0.003616
513.1214	0.004249
513.3451	0.003426
513.5687	0.003489
513.7923	0.001568
514.0160	0.003447
514.2397	0.003616
514.4634	0.003003
514.6871	0.003341
514.9108	0.004038
515.1345	0.003172
515.3582	0.001737
515.5819	0.001906
515.8057	0.003574
516.0295	0.003341
516.2532	0.004017
516.4770	0.001462
516.7008	0.004566
516.9246	0.003700
517.1485	0.003405
517.3723	0.002898
517.5961	0.003785
517.8200	0.002159
518.0439	0.003996
518.2677	0.003574
518.4916	0.003489
518.7155	0.002412
518.9395	0.003848
519.1634	0.003489
519.3873	0.002792
519.6113	0.003552
519.8352	0.003088
520.0592	0.003151
520.2832	0.001969
520.5072	0.002539
520.7312	0.002581
520.9552	0.003975
521.1792	0.002053
521.4033	0.003954
521.6273	0.003215
521.8514	0.002117
522.0755	0.002729
522.2996	0.003151
522.5237	0.002645
522.7478	0.002560
522.9719	0.001378
523.1960	0.004313
523.4202	0.002454
523.6443	0.001483
523.8685	0.002581
524.0927	0.003679
524.3169	0.003700
524.5411	0.004376
524.7653	0.002645
524.9895	0.002476
525.2138	0.003236
525.4380	0.003299
525.6623	0.004165
525.8865	0.005136
526.1108	0.004840
526.3351	0.004735
526.5594	0.004228
526.7837	0.003362
527.0081	0.004777
527.2324	0.003679
527.4568	0.003700
527.6811	0.003489
527.9055	0.002602
528.1299	0.004587
528.3543	0.005938
528.5787	0.002813
528.8031	0.005030
529.0276	0.004714
529.2520	0.004861
529.4765	0.005389
529.7009	0.005051
529.9254	0.007057
530.1499	0.003996
530.3744	0.004946
530.5989	0.005622
530.8234	0.004101
531.0480	0.005094
531.2725	0.006213
531.4971	0.004418
531.7217	0.005326
531.9462	0.004988
532.1708	0.005178
532.3954	0.004101
532.6200	0.006297
532.8447	0.005981
533.0693	0.005537
533.2940	0.005917
533.5186	0.008556
533.7433	0.006445
533.9680	0.007374
534.1927	0.007986
534.4174	0.008197
534.6421	0.007648
534.8668	0.006783
535.0916	0.007881
535.3163	0.008050
535.5411	0.006867
535.7659	0.010055
535.9907	0.006719
536.2155	0.008725
536.4403	0.006888
536.6651	0.008641
536.8899	0.006867
537.1148	0.006593
537.3396	0.006698
537.5645	0.007247
537.7894	0.008113
538.0143	0.008240
538.2392	0.007986
538.4641	0.009316
538.6890	0.009697
538.9139	0.011850
539.1389	0.009190
539.3638	0.010351
539.5888	0.010203
539.8138	0.011322
540.0388	0.008599
540.2638	0.009274
540.4888	0.008958
540.7138	0.010879
540.9389	0.010816
541.1639	0.011090
541.3890	0.010626
541.6140	0.011027
541.8391	0.011238
542.0642	0.011132
542.2893	0.013286
542.5144	0.011597
542.7396	0.011428
542.9647	0.012484
543.1899	0.011322
543.4150	0.012695
543.6402	0.013033
543.8654	0.013624
544.0906	0.012568
544.3158	0.015651
544.5410	0.013666
544.7662	0.014447
544.9915	0.016474
545.2167	0.016896
545.4420	0.015651
545.6673	0.016664
545.8926	0.013223
546.1179	0.014891
546.3432	0.013286
546.5685	0.015102
546.7938	0.015186
547.0192	0.017086
547.2445	0.016284
547.4699	0.015777
547.6953	0.018754
547.9206	0.018628
548.1460	0.021182
548.3715	0.018184
548.5969	0.020634
548.8223	0.017741
549.0478	0.019557
549.2732	0.018839
549.4987	0.017466
549.7242	0.016453
549.9496	0.018881
550.1751	0.019789
550.4007	0.017720
550.6262	0.019240
550.8517	0.019578
551.0773	0.018438
551.3028	0.015883
551.5284	0.017678
551.7540	0.020338
551.9796	0.020148
552.2052	0.022386
552.4308	0.023843
552.6564	0.020950
552.8820	0.021077
553.1077	0.020802
553.3333	0.023125
553.5590	0.022724
553.7847	0.024033
554.0104	0.022280
554.2361	0.025089
554.4618	0.024075
554.6875	0.022872
554.9132	0.022090
555.1390	0.022597
555.3648	0.024814
555.5905	0.026250
555.8163	0.026271
556.0421	0.027643
556.2679	0.026123
556.4937	0.025215
556.7195	0.025405
556.9454	0.025743
557.1712	0.025089
557.3971	0.023885
557.6230	0.023294
557.8488	0.027833
558.0747	0.027538
558.3006	0.028446
558.5266	0.026440
558.7525	0.024307
558.9784	0.025194
559.2044	0.025785
559.4303	0.025659
559.6563	0.026989
559.8823	0.027327
560.1083	0.029459
560.3343	0.029142
560.5603	0.029670
560.7863	0.031866
561.0124	0.033597
561.2384	0.033091
561.4645	0.036131
561.6905	0.035498
561.9166	0.032690
562.1427	0.034020
562.3688	0.034991
562.5949	0.032774
562.8211	0.034738
563.0472	0.033091
563.2733	0.032626
563.4995	0.035519
563.7257	0.035371
563.9519	0.038813
564.1781	0.036933
564.4043	0.039889
564.6305	0.037905
564.8567	0.038939
565.0829	0.038116
565.3092	0.043078
565.5355	0.040586
565.7617	0.040713
565.9880	0.042888
566.2143	0.040143
566.4406	0.038834
566.6669	0.041937
566.8932	0.044154
567.1196	0.045822
567.3459	0.050552
567.5723	0.053803
567.7987	0.055873
568.0250	0.053339
568.2514	0.057076
568.4778	0.059124
568.7043	0.063769
568.9307	0.069723
569.1571	0.071729
569.3836	0.078042
569.6100	0.085812
569.8365	0.094448
570.0630	0.101964
570.2895	0.102049
570.5160	0.104266
570.7425	0.108847
570.9690	0.110769
571.1956	0.119024
571.4221	0.125654
571.6487	0.125358
571.8752	0.134015
572.1018	0.137773
572.3284	0.139610
572.5550	0.131671
572.7816	0.123268
573.0082	0.118855
573.2349	0.123437
573.4615	0.135936
573.6882	0.148013
573.9149	0.154284
574.1415	0.159394
574.3682	0.165475
574.5949	0.172632
574.8216	0.174659
575.0484	0.171999
575.2751	0.177129
575.5018	0.174279
575.7286	0.168705
575.9554	0.159858
576.1821	0.160893
576.4089	0.165137
576.6357	0.170648
576.8626	0.185322
577.0894	0.184984
577.3162	0.190938
577.5431	0.195604
577.7699	0.216971
577.9968	0.251577
578.2237	0.245918
578.4505	0.226494
578.6774	0.213424
578.9044	0.198666
579.1313	0.195710
579.3582	0.193197
579.5851	0.201263
579.8121	0.208399
580.0391	0.210658
580.2660	0.209919
580.4930	0.210363
580.7200	0.204324
580.9470	0.206098
581.1741	0.245222
581.4011	0.290975
581.6281	0.319268
581.8552	0.323491
582.0822	0.321527
582.3093	0.305628
582.5364	0.286732
582.7635	0.260593
582.9906	0.242012
583.2177	0.225734
583.4449	0.211798
583.6720	0.196998
583.8991	0.195140
584.1263	0.192226
584.3535	0.198349
584.5807	0.199236
584.8079	0.211841
585.0351	0.224530
585.2623	0.235383
585.4895	0.235573
585.7167	0.238972
585.9440	0.229745
586.1713	0.217668
586.3985	0.204556
586.6258	0.199236
586.8531	0.202825
587.0804	0.216359
587.3077	0.227465
587.5350	0.228563
587.7624	0.227465
587.9897	0.221067
588.2171	0.212094
588.4445	0.204599
588.6718	0.201748
588.8992	0.189164
589.1266	0.180022
589.3540	0.167924
589.5815	0.166931
589.8089	0.167903
590.0363	0.164503
590.2638	0.156185
590.4913	0.152532
590.7187	0.145121
590.9462	0.142313
591.1737	0.133065
591.4012	0.133044
591.6288	0.134437
591.8563	0.131608
592.0838	0.131207
592.3114	0.138428
592.5389	0.156142
592.7665	0.178396
592.9941	0.202719
593.2217	0.204197
593.4493	0.200270
593.6769	0.198856
593.9046	0.194042
594.1322	0.180782
594.3598	0.170120
594.5875	0.171492
594.8152	0.182323
595.0429	0.195414
595.2705	0.201600
595.4983	0.193345
595.7260	0.187792
595.9537	0.173667
596.1814	0.166256
596.4092	0.154474
596.6369	0.150991
596.8647	0.143326
597.0925	0.149090
597.3203	0.150969
597.5481	0.150716
597.7759	0.151582
598.0037	0.145649
598.2315	0.140898
598.4594	0.142503
598.6872	0.156163
598.9151	0.176454
599.1430	0.187792
599.3709	0.186124
599.5988	0.178713
599.8267	0.182619
600.0546	0.184118
600.2825	0.186420
600.5105	0.177594
600.7384	0.186145
600.9664	0.187180
601.1944	0.188890
601.4223	0.182851
601.6503	0.181627
601.8783	0.174554
602.1064	0.169887
602.3344	0.164567
602.5624	0.168958
602.7905	0.172822
603.0185	0.177868
603.2466	0.183717
603.4747	0.189756
603.7028	0.187180
603.9309	0.185765
604.1590	0.179811
604.3871	0.170753
604.6152	0.163152
604.8434	0.158655
605.0715	0.156691
605.2997	0.161653
605.5279	0.166826
605.7561	0.173371
605.9843	0.173160
606.2125	0.175166
606.4407	0.165496
606.6689	0.160998
606.8972	0.157979
607.1254	0.158866
607.3537	0.160281
607.5819	0.161062
607.8102	0.161991
608.0385	0.157536
608.2668	0.148351
608.4951	0.148119
608.7235	0.148013
608.9518	0.144150
609.1801	0.138702
609.4085	0.135683
609.6369	0.131692
609.8653	0.139927
610.0936	0.148605
610.3220	0.155973
610.5505	0.150040
610.7789	0.145606
611.0073	0.139209
611.2357	0.136950
611.4642	0.139040
611.6927	0.137203
611.9211	0.140328
612.1496	0.133656
612.3781	0.131017
612.6066	0.129328
612.8351	0.127829
613.0637	0.130003
613.2922	0.128272
613.5208	0.130109
613.7493	0.126815
613.9779	0.128504
614.2065	0.132009
614.4351	0.122508
614.6637	0.128842
614.8923	0.124366
615.1209	0.126245
615.3495	0.130257
615.5782	0.131608
615.8068	0.136612
616.0355	0.129518
616.2642	0.121178
616.4929	0.115308
616.7216	0.114379
616.9503	0.114147
617.1790	0.111381
617.4077	0.113112
617.6365	0.110367
617.8652	0.111867
618.0940	0.111613
618.3227	0.109502
618.5515	0.100592
618.7803	0.099177
619.0091	0.094638
619.2379	0.091745
619.4667	0.092716
619.6956	0.088493
619.9244	0.093835
620.1533	0.100001
620.3821	0.101288
620.6110	0.093793
620.8399	0.087459
621.0688	0.081695
621.2977	0.075445
621.5266	0.073482
621.7556	0.076564
621.9845	0.078443
622.2135	0.085242
622.4424	0.085010
622.6714	0.082624
622.9004	0.083257
623.1294	0.088810
623.3584	0.090816
623.5874	0.090943
623.8164	0.090520
624.0454	0.087818
624.2745	0.088810
624.5035	0.088008
624.7326	0.091745
624.9617	0.093392
625.1908	0.085896
625.4199	0.084334
625.6490	0.084123
625.8781	0.082919
626.1072	0.075867
626.3364	0.074812
626.5655	0.074030
626.7947	0.071455
627.0238	0.070272
627.2530	0.073439
627.4822	0.069787
627.7114	0.071898
627.9406	0.068836
628.1698	0.063706
628.3991	0.058934
628.6283	0.055683
628.8576	0.062756
629.0868	0.061024
629.3161	0.062925
629.5454	0.064170
629.7747	0.063790
630.0040	0.061637
630.2333	0.060687
630.4626	0.060328
630.6920	0.058153
630.9213	0.058385
631.1507	0.054796
631.3801	0.054500
631.6094	0.054458
631.8388	0.053064
632.0682	0.052072
632.2976	0.050045
632.5271	0.051671
632.7565	0.046772
632.9859	0.045738
633.2154	0.046076
633.4448	0.042761
633.6743	0.046076
633.9038	0.044197
634.1333	0.043099
634.3628	0.043964
634.5923	0.042888
634.8218	0.038770
635.0514	0.039573
635.2809	0.041536
635.5105	0.040755
635.7400	0.039889
635.9696	0.044513
636.1992	0.044851
636.4288	0.047026
636.6584	0.044936
636.8880	0.045104
637.1177	0.043289
637.3473	0.041008
637.5770	0.041621
637.8066	0.040628
638.0363	0.041536
638.2660	0.043415
638.4957	0.044366
638.7254	0.043183
638.9551	0.043014
639.1848	0.041008
639.4145	0.041072
639.6443	0.039345
639.8740	0.038327
640.1038	0.037463
640.3336	0.036387
640.5633	0.037954
640.7931	0.035444
641.0229	0.035490
641.2528	0.035321
641.4826	0.035075
641.7124	0.034200
641.9423	0.032132
642.1721	0.030914
642.4020	0.030451
642.6319	0.028855
642.8617	0.030313
643.0916	0.030181
643.3216	0.028362
643.5515	0.029325
643.7814	0.026913
644.0113	0.032015
644.2413	0.025928
644.4712	0.028316
644.7012	0.027130
644.9312	0.027842
645.1612	0.027398
645.3912	0.026192
645.6212	0.026911
645.8512	0.024774
646.0812	0.028561
646.3113	0.026604
646.5413	0.024645
646.7714	0.025878
647.0015	0.023180
647.2316	0.023966
647.4616	0.023959
647.6918	0.024738
647.9219	0.029413
648.1520	0.029546
648.3821	0.030368
648.6123	0.032479
648.8424	0.033052
649.0726	0.034564
649.3028	0.033416
649.5329	0.033633
649.7631	0.033663
649.9933	0.031691
650.2236	0.028186
650.4538	0.031757
650.6840	0.029019
650.9143	0.026932
651.1445	0.028658
651.3748	0.030125
651.6051	0.030218
651.8354	0.032059
652.0657	0.028560
652.2960	0.032420
652.5263	0.032225
652.7566	0.031133
652.9870	0.033108
653.2173	0.032277
653.4477	0.030696
653.6780	0.033591
653.9084	0.032705
654.1388	0.033519
654.3692	0.035443
654.5996	0.035439
654.8300	0.042711
655.0605	0.064681
655.2909	0.192392
655.5213	0.523856
655.7518	0.956721
655.9823	1.000000
656.2128	1.000000
656.4433	1.000000
656.6738	1.000000
656.9043	1.000000
657.1348	0.875730
657.3653	0.715518
657.5959	0.615300
657.8264	0.534120
658.0570	0.491099
658.2875	0.452502
658.5181	0.419808
658.7487	0.378805
658.9793	0.369682
659.2099	0.332785
659.4406	0.256034
659.6712	0.168495
659.9018	0.100215
660.1325	0.061356
660.3632	0.038924
660.5938	0.030835
660.8245	0.025649
661.0552	0.024809
661.2859	0.024678
661.5166	0.023114
661.7474	0.023305
661.9781	0.022558
662.2088	0.021512
662.4396	0.022777
662.6704	0.022793
662.9011	0.023132
663.1319	0.021777
663.3627	0.021164
663.5935	0.020966
663.8243	0.022853
664.0552	0.021566
664.2860	0.023363
664.5168	0.023445
664.7477	0.022220
664.9786	0.022087
665.2094	0.024550
665.4403	0.024076
665.6712	0.024478
665.9021	0.025199
666.1330	0.023508
666.3640	0.022679
666.5949	0.021855
666.8259	0.021086
667.0568	0.021959
667.2878	0.020532
667.5188	0.020719
667.7497	0.019621
667.9807	0.021979
668.2117	0.021703
668.4428	0.020422
668.6738	0.019008
668.9048	0.020718
669.1359	0.019789
669.3669	0.022914
669.5980	0.021014
669.8291	0.020401
670.0602	0.020760
670.2913	0.022196
670.5224	0.021394
670.7535	0.023505
670.9846	0.021921
671.2157	0.023948
671.4469	0.026735
671.6781	0.028002
671.9092	0.030346
672.1404	0.031127
672.3716	0.033640
672.6028	0.035561
672.8340	0.033027
673.0652	0.033344
673.2964	0.031402
673.5277	0.029903
673.7589	0.029776
673.9902	0.029839
674.2214	0.029417
674.4527	0.027833
674.6840	0.026968
674.9153	0.026672
675.1466	0.026018
675.3779	0.025447
675.6093	0.029185
675.8406	0.024793
676.0719	0.027749
676.3033	0.024899
676.5347	0.024181
676.7661	0.023843
676.9974	0.022238
677.2288	0.024793
677.4602	0.023526
677.6917	0.028847
677.9231	0.027263
678.1545	0.029248
678.3860	0.030114
678.6174	0.028467
678.8489	0.028023
679.0804	0.031212
679.3119	0.033344
679.5434	0.034906
679.7749	0.035181
680.0064	0.034336
680.2379	0.035054
680.4694	0.035624
680.7010	0.035202
680.9325	0.033809
681.1641	0.033175
681.3957	0.034949
681.6273	0.035181
681.8589	0.032732
682.0905	0.032098
682.3221	0.032141
682.5537	0.031423
682.7854	0.030874
683.0170	0.030979
683.2487	0.032711
683.4803	0.030663
683.7120	0.032204
683.9437	0.033619
684.1754	0.032415
684.4071	0.036384
684.6388	0.038390
684.8705	0.039256
685.1023	0.042001
685.3340	0.042909
685.5658	0.044851
685.7975	0.043458
686.0293	0.045104
686.2611	0.041726
686.4929	0.043901
686.7247	0.044429
686.9565	0.042149
687.1883	0.043183
687.4202	0.046181
687.6520	0.042001
687.8838	0.041452
688.1157	0.041262
688.3476	0.040924
688.5795	0.040164
688.8114	0.037778
689.0433	0.036089
689.2752	0.037905
689.5071	0.036131
689.7390	0.037039
689.9710	0.034273
690.2029	0.032880
690.4349	0.032943
690.6669	0.036089
690.8988	0.036300
691.1308	0.037947
691.3628	0.037187
691.5948	0.038390
691.8269	0.036279
692.0589	0.036131
692.2909	0.036363
692.5230	0.037081
692.7550	0.038538
692.9871	0.036955
693.2192	0.037018
693.4513	0.040396
693.6834	0.037419
693.9155	0.034252
694.1476	0.033450
694.3797	0.033238
694.6119	0.031296
694.8440	0.034315
695.0762	0.033386
695.3083	0.036300
695.5405	0.033703
695.7727	0.031444
696.0049	0.029966
696.2371	0.030261
696.4693	0.030958
696.7016	0.034801
696.9338	0.040523
697.1660	0.040734
697.3983	0.039298
697.6306	0.038749
697.8628	0.036511
698.0951	0.037229
698.3274	0.038137
698.5597	0.036448
698.7920	0.035857
699.0243	0.036131
699.2567	0.034759
699.4890	0.034484
699.7214	0.033070
699.9537	0.032141
700.1861	0.030620
700.4185	0.031022
700.6509	0.030958
700.8833	0.031739
701.1157	0.029248
701.3481	0.028572
701.5806	0.026693
701.8130	0.028762
702.0454	0.029290
702.2779	0.030979
702.5104	0.031676
702.7429	0.030050
702.9753	0.030578
703.2078	0.030346
703.4403	0.028192
703.6729	0.028615
703.9054	0.027348
704.1379	0.027094
704.3705	0.028087
704.6030	0.027981
704.8356	0.025384
705.0682	0.024877
705.3008	0.024941
705.5334	0.024307
705.7660	0.023843
705.9986	0.024899
706.2312	0.026376
706.4638	0.029712
706.6965	0.033450
706.9291	0.035012
707.1618	0.037208
707.3945	0.036511
707.6272	0.037651
707.8599	0.036976
708.0926	0.037546
708.3253	0.036701
708.5580	0.040016
708.7907	0.036110
709.0235	0.034146
709.2562	0.031380
709.4890	0.035329
709.7217	0.032626
709.9545	0.034780
710.1873	0.033977
710.4201	0.033407
710.6529	0.036279
710.8857	0.034400
711.1186	0.033217
711.3514	0.031761
711.5842	0.030832
711.8171	0.028403
712.0500	0.027453
712.2828	0.025701
712.5157	0.028657
712.7486	0.028551
712.9815	0.030114
713.2144	0.029438
713.4474	0.030937
713.6803	0.031676
713.9132	0.032668
714.1462	0.032732
714.3791	0.034379
714.6121	0.033703
714.8451	0.034716
715.0781	0.034231
715.3111	0.035118
715.5441	0.033555
715.7771	0.032563
716.0102	0.031718
716.2432	0.028403
716.4762	0.028762
716.7093	0.028657
716.9424	0.027686
717.1754	0.029987
717.4085	0.025469
717.6416	0.026039
717.8747	0.026503
718.1078	0.029185
718.3410	0.029670
718.5741	0.028530
718.8072	0.028446
719.0404	0.029860
719.2736	0.029037
719.5067	0.029755
719.7399	0.029037
719.9731	0.027601
720.2063	0.028087
720.4395	0.027137
720.6727	0.029987
720.9060	0.029290
721.1392	0.028657
721.3725	0.028636
721.6057	0.028277
721.8390	0.029818
722.0723	0.029438
722.3055	0.029522
722.5388	0.028636
722.7721	0.027728
723.0055	0.026778
723.2388	0.028488
723.4721	0.029396
723.7055	0.027010
723.9388	0.028256
724.1722	0.027897
724.4056	0.026588
724.6389	0.025701
724.8723	0.027918
725.1057	0.028403
725.3391	0.032626
725.5726	0.031254
725.8060	0.032183
726.0394	0.032901
726.2729	0.036300
726.5063	0.033640
726.7398	0.034569
726.9733	0.034653
727.2068	0.029586
727.4403	0.032204
727.6738	0.031908
727.9073	0.032943
728.1408	0.032647
728.3743	0.033238
728.6079	0.035709
728.8414	0.036384
729.0750	0.034822
729.3086	0.035075
729.5421	0.038052
729.7757	0.036026
730.0093	0.037694
730.2429	0.035118
730.4766	0.038813
730.7102	0.039277
730.9438	0.042761
731.1775	0.041220
731.4111	0.041325
731.6448	0.044661
731.8785	0.044914
732.1122	0.039340
732.3458	0.038981
732.5795	0.040671
732.8133	0.044175
733.0470	0.042655
733.2807	0.043014
733.5145	0.043880
733.7482	0.045252
733.9820	0.045970
734.2157	0.050552
734.4495	0.053740
734.6833	0.052473
734.9171	0.049560
735.1509	0.049897
735.3847	0.046941
735.6185	0.050108
735.8524	0.046625
736.0862	0.048483
736.3201	0.048060
736.5539	0.048039
736.7878	0.046857
737.0217	0.048272
737.2556	0.050256
737.4895	0.047153
737.7234	0.042888
737.9573	0.044556
738.1912	0.040333
738.4252	0.039742
738.6591	0.042550
738.8931	0.042402
739.1271	0.042740
739.3610	0.045675
739.5950	0.045907
739.8290	0.045020
740.0630	0.043394
740.2970	0.040079
740.5310	0.039129
740.7651	0.037862
740.9991	0.039784
741.2332	0.036194
741.4672	0.035561
741.7013	0.035223
741.9354	0.032352
742.1695	0.036194
742.4036	0.033640
742.6377	0.034906
742.8718	0.035434
743.1059	0.034843
743.3400	0.032119
743.5742	0.031296
743.8083	0.029839
744.0425	0.028530
744.2767	0.028446
744.5108	0.030135
744.7450	0.029522
744.9792	0.029058
745.2134	0.030261
745.4477	0.029945
745.6819	0.027200
745.9161	0.029628
746.1504	0.029501
746.3846	0.029480
746.6189	0.027306
746.8532	0.029459
747.0874	0.029586
747.3217	0.031212
747.5560	0.030853
747.7903	0.029712
748.0247	0.030663
748.2590	0.028741
748.4933	0.028467
748.7277	0.028678
748.9620	0.030895
749.1964	0.030853
749.4308	0.034125
749.6652	0.036321
749.8995	0.037482
750.1339	0.038242
750.3684	0.039340
750.6028	0.039129
750.8372	0.040291
751.0717	0.037145
751.3061	0.039171
751.5406	0.037398
751.7750	0.040058
752.0095	0.038285
752.2440	0.039699
752.4785	0.039256
752.7130	0.036047
752.9475	0.035075
753.1820	0.035540
753.4166	0.039129
753.6511	0.038981
753.8856	0.043838
754.1202	0.042740
754.3548	0.041895
754.5894	0.037757
754.8239	0.039805
755.0585	0.040671
755.2931	0.039889
755.5278	0.043014
755.7624	0.043141
755.9970	0.045168
756.2317	0.045295
756.4663	0.048419
756.7010	0.050235
756.9356	0.050003
757.1703	0.051650
757.4050	0.055176
757.6397	0.058068
757.8744	0.057139
758.1091	0.056105
758.3438	0.055302
758.5786	0.055134
758.8133	0.054015
759.0481	0.055007
759.2828	0.056802
759.5176	0.058301
759.7524	0.061763
759.9872	0.059504
760.2220	0.059441
760.4568	0.062502
760.6916	0.064445
760.9264	0.062017
761.1613	0.061911
761.3961	0.058406
761.6310	0.052727
761.8658	0.051903
762.1007	0.049918
762.3356	0.048989
762.5705	0.048335
762.8054	0.047554
763.0403	0.048440
763.2752	0.049517
763.5101	0.049918
763.7450	0.050847
763.9800	0.050489
764.2149	0.054838
764.4499	0.054754
764.6849	0.058406
764.9198	0.057984
765.1548	0.061193
765.3898	0.057541
765.6248	0.052114
765.8599	0.052157
766.0949	0.050552
766.3299	0.047744
766.5650	0.044133
766.8000	0.042043
767.0351	0.038559
767.2701	0.038137
767.5052	0.040122
767.7403	0.039024
767.9754	0.041874
768.2105	0.046076
768.4456	0.044619
768.6808	0.049876
768.9159	0.048060
769.1510	0.049011
769.3862	0.048187
769.6214	0.046604
769.8565	0.045231
770.0917	0.044028
770.3269	0.042550
770.5621	0.046033
770.7973	0.047469
771.0325	0.048356
771.2677	0.047701
771.5030	0.044070
771.7382	0.045189
771.9735	0.044344
772.2087	0.038834
772.4440	0.040692
772.6793	0.041853
772.9146	0.040797
773.1499	0.039425
773.3852	0.038158
773.6205	0.037440
773.8558	0.037567
774.0911	0.038791
774.3265	0.035645
774.5618	0.032542
774.7972	0.029797
775.0326	0.030789
775.2679	0.031634
775.5033	0.028446
775.7387	0.029924
775.9741	0.025996
776.2095	0.026186
776.4450	0.025828
776.6804	0.025173
776.9158	0.025933
777.1513	0.025152
777.3868	0.024096
777.6222	0.023231
777.8577	0.025236
778.0932	0.026039
778.3287	0.026123
778.5642	0.025996
778.7997	0.029037
779.0352	0.030093
779.2707	0.031043
779.5063	0.030578
779.7418	0.029565
779.9774	0.030283
780.2130	0.029522
780.4485	0.027559
780.6841	0.028171
780.9197	0.029522
781.1553	0.033133
781.3909	0.034505
781.6265	0.034062
781.8622	0.036933
782.0978	0.034210
782.3335	0.034548
782.5691	0.036786
782.8048	0.036131
783.0405	0.035498
783.2761	0.033619
783.5118	0.033302
783.7475	0.035582
783.9832	0.035223
784.2190	0.032774
784.4547	0.030029
784.6904	0.029206
784.9262	0.028678
785.1619	0.030937
785.3977	0.027960
785.6335	0.029607
785.8692	0.028235
786.1050	0.027960
786.3408	0.027601
786.5766	0.027052
786.8124	0.026925
787.0483	0.027137
787.2841	0.027073
787.5199	0.029396
787.7558	0.030114
787.9917	0.031317
788.2275	0.028973
788.4634	0.029544
788.6993	0.030853
788.9352	0.033323
789.1711	0.030135
789.4070	0.029924
789.6429	0.029016
789.8789	0.027770
790.1148	0.026018
790.3507	0.026334
790.5867	0.028171
790.8227	0.024033
791.0586	0.023885
791.2946	0.025764
791.5306	0.024518
791.7666	0.025131
792.0026	0.023653
792.2387	0.021774
792.4747	0.021900
792.7107	0.022639
792.9468	0.021710
793.1828	0.022998
793.4189	0.022956
793.6550	0.024624
793.8910	0.026123
794.1271	0.028382
794.3632	0.028636
794.5993	0.032774
794.8355	0.029227
795.0716	0.031634
795.3077	0.031380
795.5439	0.032288
795.7800	0.029396
796.0162	0.028889
796.2523	0.025152
796.4885	0.023209
796.7247	0.023589
796.9609	0.019662
797.1971	0.021140
797.4333	0.023252
797.6695	0.023421
797.9058	0.024708
798.1420	0.022238
798.3783	0.023801
798.6145	0.023019
798.8508	0.022935
799.0871	0.022618
799.3233	0.022766
799.5596	0.021837
799.7959	0.020570
800.0322	0.020655
800.2686	0.020275
800.5049	0.020211
800.7412	0.018374
800.9776	0.019367
801.2139	0.018290
801.4503	0.020929
801.6867	0.018079
801.9230	0.017656
802.1594	0.017234
802.3958	0.015862
802.6322	0.016791
802.8686	0.016537
803.1051	0.018438
803.3415	0.016854
803.5779	0.018205
803.8144	0.017044
804.0508	0.016706
804.2873	0.016770
804.5238	0.017466
804.7603	0.017044
804.9968	0.016854
805.2333	0.017213
805.4698	0.017656
805.7063	0.017276
805.9428	0.019578
806.1794	0.020929
806.4159	0.023357
806.6525	0.025194
806.8890	0.023421
807.1256	0.024075
807.3622	0.023779
807.5988	0.021689
807.8354	0.022703
808.0720	0.021647
808.3086	0.023209
808.5452	0.021225
808.7818	0.022618
809.0185	0.022660
809.2551	0.021499
809.4918	0.021858
809.7284	0.021246
809.9651	0.020401
810.2018	0.019156
810.4385	0.019261
810.6752	0.018417
810.9119	0.017994
811.1486	0.019789
811.3853	0.016854
811.6221	0.017593
811.8588	0.018311
812.0956	0.017466
812.3323	0.015355
812.5691	0.017044
812.8059	0.014215
813.0427	0.013033
813.2795	0.013434
813.5163	0.017340
813.7531	0.016052
813.9899	0.018459
814.2267	0.018776
814.4636	0.019071
814.7004	0.017825
814.9373	0.018670
815.1742	0.015545
815.4110	0.017762
815.6479	0.015461
815.8848	0.011787
816.1217	0.013201
816.3586	0.012209
816.5955	0.014426
816.8324	0.013560
817.0694	0.014954
817.3063	0.013962
817.5433	0.012737
817.7802	0.014574
818.0172	0.014363
818.2542	0.013898
818.4912	0.012927
818.7282	0.013983
818.9652	0.014447
819.2022	0.013962
819.4392	0.012652
819.6762	0.011702
819.9133	0.012885
820.1503	0.013835
820.3874	0.013877
820.6244	0.015608
820.8615	0.015271
821.0986	0.015904
821.3357	0.014806
821.5727	0.014743
821.8099	0.012737
822.0470	0.011829
822.2841	0.013159
822.5212	0.012167
822.7584	0.013223
822.9955	0.013033
823.2327	0.012631
823.4698	0.011365
823.7070	0.011196
823.9442	0.010731
824.1814	0.012779
824.4186	0.009739
824.6558	0.011766
824.8930	0.010351
825.1302	0.010604
825.3675	0.011533
825.6047	0.014088
825.8419	0.013054
826.0792	0.012251
826.3165	0.011913
826.5537	0.011597
826.7910	0.012674
827.0283	0.012843
827.2656	0.012167
827.5029	0.014658
827.7402	0.013898
827.9776	0.012737
828.2149	0.010837
828.4522	0.013054
828.6896	0.011998
828.9270	0.013645
829.1643	0.012526
829.4017	0.010921
829.6391	0.011512
829.8765	0.012336
830.1139	0.010351
830.3513	0.010203
830.5887	0.010520
830.8261	0.009063
831.0636	0.009844
831.3010	0.008387
831.5385	0.008852
831.7759	0.009316
832.0134	0.008662
832.2509	0.008915
832.4884	0.007564
832.7259	0.008873
832.9634	0.008472
833.2009	0.009148
833.4384	0.010351
833.6759	0.010330
833.9135	0.009316
834.1510	0.009485
834.3886	0.010499
834.6261	0.010436
834.8637	0.009823
835.1013	0.009316
835.3389	0.010077
835.5765	0.009823
835.8141	0.008873
836.0517	0.009105
836.2893	0.009063
836.5269	0.007226
836.7646	0.008050
837.0022	0.006403
837.2399	0.008430
837.4775	0.007648
837.7152	0.005347
837.9529	0.006466
838.1906	0.006551
838.4283	0.006698
838.6660	0.007606
838.9037	0.006107
839.1414	0.006192
839.3791	0.007691
839.6169	0.005917
839.8546	0.008092
840.0924	0.007501
840.3302	0.008007
840.5679	0.006994
840.8057	0.007458
841.0435	0.005917
841.2813	0.006867
841.5191	0.007015
841.7569	0.006783
841.9947	0.005537
842.2326	0.006994
842.4704	0.006044
842.7082	0.004925
842.9461	0.006656
843.1840	0.004524
843.4218	0.005094
843.6597	0.007036
843.8976	0.004334
844.1355	0.005073
844.3734	0.005474
844.6113	0.005389
844.8492	0.006318
845.0872	0.006128
845.3251	0.005664
845.5631	0.005136
845.8010	0.005389
846.0390	0.006867
846.2770	0.005516
846.5149	0.004967
846.7529	0.004798
846.9909	0.005242
847.2289	0.004144
847.4669	0.005368
847.7050	0.003574
847.9430	0.006572
848.1810	0.005094
848.4191	0.005727
848.6571	0.005115
848.8952	0.004650
849.1333	0.004355
849.3713	0.004883
849.6094	0.003827
849.8475	0.003785
850.0856	0.005178
850.3237	0.004777
850.5619	0.004355
850.8000	0.004798
851.0381	0.003531
851.2763	0.004587
851.5144	0.005157
851.7526	0.006128
851.9908	0.006318
852.2289	0.005706
852.4671	0.007247
852.7053	0.007754
852.9435	0.010773
853.1817	0.013793
853.4200	0.011428
853.6582	0.014130
853.8964	0.014827
854.1347	0.014616
854.3729	0.012906
854.6112	0.014257
854.8495	0.014447
855.0877	0.015461
855.3260	0.012906
855.5643	0.012695
855.8026	0.009528
856.0409	0.011766
856.2792	0.012272
856.5176	0.012061
856.7559	0.010710
856.9942	0.009929
857.2326	0.011618
857.4710	0.010034
857.7093	0.010077
857.9477	0.009443
858.1861	0.009844
858.4245	0.009359
858.6629	0.008852
858.9013	0.009739
859.1397	0.008409
859.3781	0.008936
859.6166	0.008366
859.8550	0.009359
860.0935	0.007226
860.3319	0.008303
860.5704	0.008662
860.8089	0.008810
861.0473	0.007480
861.2858	0.007290
861.5243	0.004524
861.7628	0.006149
862.0013	0.004714
862.2399	0.007353
862.4784	0.004439
862.7169	0.006593
862.9555	0.004165
863.1940	0.007036
863.4326	0.007437
863.6712	0.007036
863.9098	0.006508
864.1483	0.005516
864.3869	0.005115
864.6255	0.005495
864.8642	0.005263
865.1028	0.006593
865.3414	0.004439
865.5800	0.005833
865.8187	0.003616
866.0573	0.005263
866.2960	0.004186
866.5347	0.005199
866.7733	0.004861
867.0120	0.005579
867.2507	0.004671
867.4894	0.005896
867.7281	0.005157
867.9669	0.006698
868.2056	0.005875
868.4443	0.006297
868.6831	0.006783
868.9218	0.004017
869.1606	0.004777
869.3993	0.004861
869.6381	0.003996
869.8769	0.005220
870.1157	0.005051
870.3545	0.005347
870.5933	0.005558
870.8321	0.005410
871.0709	0.007100
871.3097	0.005896
871.5486	0.005474
871.7874	0.006192
872.0263	0.005664
872.2651	0.005199
872.5040	0.004925
872.7429	0.005579
872.9818	0.006213
873.2207	0.003806
873.4596	0.003890
873.6985	0.004671
873.9374	0.005220
874.1763	0.006086
874.4153	0.003531
874.6542	0.005051
874.8932	0.003869
875.1321	0.004840
875.3711	0.005453
875.6101	0.006952
875.8491	0.005643
876.0880	0.004925
876.3270	0.005284
876.5661	0.005199
876.8051	0.005579
877.0441	0.004671
877.2831	0.005474
877.5222	0.004777
877.7612	0.005727
878.0003	0.006931
878.2393	0.006508
878.4784	0.007501
878.7175	0.008430
878.9566	0.006719
879.1957	0.007986
879.4348	0.007163
879.6739	0.007817
879.9130	0.005854
880.1521	0.009929
880.3913	0.007184
880.6304	0.007353
880.8696	0.007712
881.1087	0.009021
881.3479	0.008007
881.5871	0.007142
881.8262	0.006825
882.0654	0.005917
882.3046	0.005622
882.5438	0.005664
882.7831	0.005199
883.0223	0.006023
883.2615	0.006128
883.5007	0.005812
883.7400	0.007480
883.9792	0.006213
884.2185	0.004819
884.4578	0.006297
884.6971	0.004967
884.9363	0.005812
885.1756	0.005685
885.4149	0.006508
885.6542	0.006192
885.8936	0.007754
886.1329	0.007290
886.3722	0.006529
886.6116	0.006171
886.8509	0.006107
887.0903	0.005347
887.3296	0.006107
887.5690	0.004988
887.8084	0.005790
888.0478	0.004861
888.2872	0.005812
888.5266	0.005305
888.7660	0.006149
889.0054	0.005748
889.2448	0.005579
889.4843	0.003996
889.7237	0.003531
889.9632	0.004861
890.2026	0.002813
890.4421	0.003827
890.6816	0.005537
890.9211	0.004946
891.1606	0.004735
891.4001	0.005157
891.6396	0.005051
891.8791	0.004186
892.1186	0.002560
892.3581	0.004101
892.5977	0.004925
892.8372	0.005305
893.0768	0.003700
893.3163	0.005326
893.5559	0.004481
893.7955	0.004503
894.0351	0.005643
894.2747	0.004313
894.5143	0.005938
894.7539	0.003975
894.9935	0.005579
895.2331	0.004481
895.4727	0.004735
895.7124	0.004777
895.9520	0.004545
896.1917	0.003426
896.4314	0.005432
896.6710	0.004101
896.9107	0.005115
897.1504	0.004334
897.3901	0.005242
897.6298	0.005220
897.8695	0.005368
898.1092	0.003510
898.3489	0.003658
898.5887	0.004249
898.8284	0.003679
899.0682	0.003721
899.3079	0.003996
899.5477	0.003827
899.7875	0.005347
900.0272	0.002581
900.2670	0.003468
900.5068	0.004545
900.7466	0.005917
900.9864	0.004017
901.2263	0.004756
901.4661	0.003890
901.7059	0.004313
901.9458	0.003700
902.1856	0.005516
902.4255	0.003954
902.6654	0.004376
902.9052	0.002792
903.1451	0.003764
903.3850	0.003574
903.6249	0.003890
903.8648	0.006719
904.1047	0.003700
904.3446	0.004798
904.5846	0.005643
904.8245	0.004481
905.0644	0.005516
905.3044	0.003827
905.5444	0.006234
905.7843	0.005220
906.0243	0.005579
906.2643	0.004883
906.5043	0.003151
906.7443	0.006002
906.9843	0.004756
907.2243	0.004629
907.4643	0.003700
907.7043	0.004819
907.9444	0.003257
908.1844	0.004249
908.4245	0.004165
908.6645	0.004122
908.9046	0.003764
909.1447	0.003003
909.3847	0.004270
909.6248	0.004291
909.8649	0.003742
910.1050	0.002856
910.3452	0.003067
910.5853	0.002518
910.8254	0.003383
911.0655	0.005094
911.3057	0.004165
911.5458	0.004946
911.7860	0.005664
912.0262	0.004186
912.2663	0.004017
912.5065	0.003531
912.7467	0.002602
912.9869	0.002053
913.2271	0.003637
913.4673	0.003320
913.7075	0.004334
913.9478	0.003489
914.1880	0.003700
914.4283	0.001863
914.6685	0.003278
914.9088	0.003616
915.1490	0.004165
915.3893	0.002117
915.6296	0.002391
915.8699	0.003510
916.1102	0.003025
916.3505	0.001906
916.5908	0.002750
916.8311	0.003869
917.0714	0.003257
917.3118	0.004017
917.5521	0.004439
917.7925	0.004671
918.0328	0.004165
918.2732	0.003764
918.5136	0.004671
918.7539	0.004376
918.9943	0.003426
919.2347	0.002750
919.4751	0.003447
919.7155	0.003700
919.9560	0.003510
920.1964	0.003489
920.4368	0.003954
920.6773	0.002222
920.9177	0.002940
921.1582	0.004101
921.3986	0.003088
921.6391	0.001906
921.8796	0.003785
922.1201	0.004101
922.3606	0.004017
922.6011	0.002898
922.8416	0.003954
923.0821	0.003025
923.3226	0.003236
923.5631	0.002159
923.8037	0.003658
924.0442	0.003236
924.2848	0.002856
924.5254	0.001716
924.7659	0.002201
925.0065	0.002286
925.2471	0.001103
925.4877	0.001969
925.7283	0.004228
925.9689	0.002539
926.2095	0.003003
926.4501	0.001631
926.6908	0.002518
926.9314	0.002264
927.1720	0.002898
927.4127	0.003257
927.6533	0.002792
927.8940	0.002222
928.1347	0.001335
928.3754	0.002074
928.6161	0.003574
928.8568	0.001758
929.0975	0.001694
929.3382	0.000765
929.5789	0.002961
929.8196	0.001167
930.0604	0.001019
930.3011	0.002666
930.5419	0.002792
930.7826	0.001863
931.0234	0.003700
931.2642	0.000977
931.5049	0.001694
931.7457	0.000596
931.9865	0.002159
932.2273	0.000449
932.4681	0.004587
932.7089	0.003320
932.9498	0.001462
933.1906	0.001504
933.4314	0.003362
933.6723	0.001589
933.9131	0.001589
934.1540	0.003278
934.3949	0.002518
934.6358	0.002919
934.8766	0.003278
935.1175	0.004101
935.3584	0.003489
935.5993	0.000069
935.8403	0.003046
936.0812	0.001335
936.3221	0.002349
936.5630	0.002391
936.8040	0.001230
937.0449	0.001399
937.2859	0.000702
937.5269	-0.000459
937.7678	0.002074
938.0088	0.001694
938.2498	0.001525
938.4908	0.001525
938.7318	0.001462
938.9728	0.001209
939.2138	0.002159
939.4549	0.002497
939.6959	0.001314
939.9369	0.000470
940.1780	0.001969
940.4190	0.001272
940.6601	0.000449
940.9012	0.000153
941.1422	0.000048
941.3833	0.002412
941.6244	0.002286
941.8655	0.001758
942.1066	-0.000037
942.3477	0.001884
942.5889	0.000744
942.8300	0.000596
943.0711	0.000681
943.3123	0.001272
943.5534	0.000808
943.7946	0.001019
944.0357	0.000090
944.2769	0.001462
944.5181	0.000913
944.7593	0.002581
945.0005	-0.000438
945.2417	-0.000333
945.4829	0.000069
945.7241	0.001082
945.9653	0.000406
946.2066	0.000892
946.4478	0.001906
946.6891	0.000913
946.9303	0.001230
947.1716	0.001884
947.4128	-0.000375
947.6541	0.000132
947.8954	0.000723
948.1367	0.000913
948.3780	0.000744
948.6193	0.001378
948.8606	0.001209
949.1019	0.002032
949.3433	0.000385
949.5846	-0.000206
949.8259	0.001737
950.0673	0.000596
950.3086	0.000934
950.5500	0.001779
950.7914	0.002222
951.0327	0.000786
951.2741	-0.000164
951.5155	0.001568
951.7569	0.001631
951.9983	0.000913
952.2398	0.001019
952.4812	0.002096
952.7226	0.001040
952.9640	0.002476
953.2055	0.000808
953.4469	0.001990
953.6884	0.000406
953.9299	0.001631
954.1713	-0.000185
954.4128	0.000153
954.6543	0.001357
954.8958	0.001610
955.1373	-0.000016
955.3788	-0.000523
955.6203	0.000639
955.8618	0.001145
956.1034	0.000048
956.3449	0.000364
956.5865	0.000998
956.8280	0.001103
957.0696	0.001209
957.3111	0.001103
957.5527	0.001589
957.7943	0.000385
958.0359	0.001525
958.2775	0.000132
958.5191	0.001167
958.7607	0.000153
959.0023	0.000048
959.2439	0.001167
959.4856	0.000111
959.7272	0.000533
959.9688	0.000259
960.2105	0.000702
960.4522	0.000132
960.6938	-0.000501
960.9355	0.001842
961.1772	0.002940
961.4189	0.000618
961.6606	0.001547
961.9023	0.000449
962.1440	0.000132
962.3857	0.000829
962.6274	0.001863
962.8692	0.001082
963.1109	0.001082
963.3527	0.000723
963.5944	0.000554
963.8362	0.000385
964.0779	0.001251
964.3197	0.000216
964.5615	0.000639
964.8033	0.001378
965.0451	0.000449
965.2869	0.000174
965.5287	0.000765
965.7705	0.000723
966.0123	0.000364
966.2542	0.000111
966.4960	0.000892
966.7379	0.000554
966.9797	0.001103
967.2216	0.000406
967.4634	-0.000649
967.7053	0.000343
967.9472	0.001167
968.1891	0.001293
968.4310	0.001272
968.6729	0.000406
968.9148	0.001378
969.1567	0.000470
969.3987	0.001884
969.6406	0.000238
969.8825	0.001145
970.1245	0.000259
970.3664	0.001547
970.6084	0.001821
970.8504	0.002053
971.0923	0.000026
971.3343	0.001272
971.5763	0.000301
971.8183	0.001779
972.0603	0.000301
972.3023	-0.000375
972.5443	-0.000797
972.7864	-0.000311
973.0284	0.000639
973.2704	0.002011
973.5125	0.000090
973.7545	0.000111
973.9966	-0.000185
974.2387	0.000744
974.4807	0.001357
974.7228	0.000723
974.9649	0.001103
975.2070	0.001441
975.4491	-0.000628
975.6912	0.001420
975.9333	-0.000248
976.1755	0.001716
976.4176	0.000998
976.6597	0.003341
976.9019	0.000111
977.1440	0.001483
977.3862	0.000470
977.6283	0.001251
977.8705	0.000955
978.1127	0.000618
978.3549	0.000765
978.5971	-0.001029
978.8393	0.001504
979.0815	0.001103
979.3237	0.000660
979.5659	-0.000354
979.8082	-0.000480
980.0504	0.000660
980.2926	0.000470
980.5349	0.000618
980.7771	-0.000248
981.0194	0.000533
981.2617	-0.000649
981.5040	0.001483
981.7462	0.001103
981.9885	0.002180
982.2308	0.000364
982.4731	0.000934
982.7155	0.000301
982.9578	0.000449
983.2001	0.000660
983.4424	0.000132
983.6848	0.000153
983.9271	0.000829
984.1695	0.001040
984.4118	0.001209
984.6542	0.000829
984.8966	0.000132
985.1390	-0.000333
985.3814	0.001610
985.6238	0.000618
985.8662	0.001209
986.1086	0.000449
986.3510	0.000449
986.5934	-0.001325
986.8358	0.000871
987.0783	-0.000459
987.3207	-0.000523
987.5632	0.001167
987.8056	0.001335
988.0481	-0.000797
988.2906	0.000111
988.5331	-0.000121
988.7756	0.000681
989.0180	-0.000058
989.2605	0.000934
989.5031	0.000132
989.7456	-0.000248
989.9881	0.000512
990.2306	0.000723
990.4732	-0.001029
990.7157	0.001737
990.9582	0.000343
991.2008	0.001378
991.4434	0.000111
991.6859	0.000554
991.9285	-0.000164
992.1711	0.000575
992.4137	0.001462
992.6563	0.001758
992.8989	-0.000206
993.1415	-0.001219
993.3841	-0.001473
993.6267	0.001335
993.8694	-0.000839
994.1120	-0.000100
994.3547	-0.000628
994.5973	0.000111
994.8400	0.000406
995.0826	0.000195
995.3253	0.000808
995.5680	0.000026
995.8107	-0.000121
996.0534	0.000259
996.2961	-0.000438
996.5388	0.002412
996.7815	-0.000290
997.0242	0.000660
997.2670	0.000449
997.5097	0.000090
997.7524	0.000385
997.9952	0.002032
998.2379	0.000449
998.4807	0.001019
998.7235	0.000639
998.9662	0.001040
999.2090	0.000005
999.4518	-0.000016
999.6946	0.001040
999.9374	0.001927
1000.1802	-0.000164
1000.4230	-0.000100
1000.6659	-0.000501
1000.9087	0.001082
1001.1515	0.000005
1001.3944	0.000681
1001.6372	-0.000185
1001.8801	0.000069
1002.1230	-0.001325
1002.3658	0.000808
1002.6087	-0.000164
1002.8516	-0.000290
1003.0945	0.001272
1003.3374	0.000449
1003.5803	0.000216
1003.8232	-0.000924
1004.0661	0.001631
1004.3091	0.001293
1004.5520	0.001167
1004.7949	-0.000966
1005.0379	-0.001029
1005.2808	-0.001684
1005.5238	0.000069
1005.7667	0.001272
1006.0097	0.000491
1006.2527	0.000871
1006.4957	-0.000269
1006.7387	0.000322
1006.9817	0.001061
1007.2247	-0.001114
1007.4677	-0.000100
1007.7107	0.000111
1007.9538	0.001061
1008.1968	0.001209
1008.4398	0.000596
1008.6829	-0.000565
1008.9259	-0.000565
1009.1690	-0.001473
1009.4121	0.000428
1009.6551	0.000005
1009.8982	0.000026
1010.1413	-0.000143
1010.3844	-0.000903
1010.6275	-0.000079
1010.8706	-0.000628
1011.1137	-0.000058
1011.3568	0.000069
1011.6000	-0.000375
1011.8431	0.000259
1012.0863	0.000934
1012.3294	0.000343
1012.5726	-0.000016
1012.8157	0.001335
1013.0589	0.000786
1013.3021	0.000744
1013.5452	0.000090
1013.7884	-0.000670
1014.0316	-0.000354
1014.2748	0.000723
1014.5180	0.000132
1014.7613	-0.000586
1015.0045	-0.001578
1015.2477	0.000048
1015.4909	0.000238
1015.7342	0.001631
1015.9774	-0.000016
1016.2207	0.000470
1016.4640	-0.000565
1016.7072	0.000533
1016.9505	-0.001156
1017.1938	0.000871
1017.4371	-0.002465
1017.6804	0.001758
1017.9237	-0.000333
1018.1670	0.002159
1018.4103	-0.000755
1018.6536	0.001568
1018.8969	-0.001853
1019.1403	-0.000016
1019.3836	0.000238
1019.6270	0.001948
1019.8703	0.001040
1020.1137	0.000786
1020.3571	-0.000628
1020.6004	0.000639
1020.8438	0.000639
1021.0872	0.001462
1021.3306	0.000575
1021.5740	0.001420
1021.8174	0.000174
1022.0608	0.000850
1022.3042	-0.001050
1022.5477	0.000069
1022.7911	0.000026
1023.0345	-0.000776
