# Wavelength (nm)	Intensity (a.u.)
197.7802	0.001156
197.9842	0.001282
198.1882	0.000712
198.3922	0.001240
198.5963	0.001388
198.8003	0.000987
199.0044	0.000670
199.2085	-0.000934
199.4126	0.002232
199.6168	0.000670
199.8209	-0.000427
200.0251	0.000818
200.2292	0.001282
200.4334	0.001156
200.6376	0.000100
200.8418	-0.000512
201.0461	-0.000554
201.2503	0.000290
201.4546	0.000691
201.6589	0.000290
201.8631	0.001409
202.0674	0.001557
202.2718	0.000121
202.4761	-0.001673
202.6805	0.001134
202.8848	-0.001356
203.0892	0.000480
203.2936	-0.000237
203.4980	0.001810
203.7024	0.000227
203.9069	0.001029
204.1113	0.001008
204.3158	0.000121
204.5203	0.000522
204.7248	0.000311
204.9293	0.000966
205.1338	0.001261
205.3384	0.000649
205.5430	0.000712
205.7475	-0.000744
205.9521	0.001641
206.1567	0.000797
206.3614	0.001578
206.5660	-0.000470
206.7706	0.001451
206.9753	0.001557
207.1800	0.001704
207.3847	0.001177
207.5894	0.002169
207.7941	-0.000406
207.9989	0.000565
208.2036	0.001620
208.4084	0.000733
208.6132	-0.000237
208.8180	0.001198
209.0228	-0.000955
209.2276	0.000354
209.4325	0.000459
209.6373	-0.000069
209.8422	0.001683
210.0471	0.000966
210.2520	-0.000132
210.4569	-0.000280
210.6618	0.000121
210.8668	0.000332
211.0718	0.000670
211.2767	0.001177
211.4817	0.001156
211.6867	0.000079
211.8918	0.002063
212.0968	0.003034
212.3018	0.000733
212.5069	0.001768
212.7120	0.001240
212.9171	0.002654
213.1222	-0.000765
213.3273	0.000121
213.5325	0.001683
213.7376	0.000121
213.9428	-0.000512
214.1480	0.000227
214.3532	0.000543
214.5584	0.000987
214.7636	0.001430
214.9689	0.001599
215.1741	0.001029
215.3794	0.000417
215.5847	0.001493
215.7900	0.001662
215.9953	0.000522
216.2007	0.001282
216.4060	0.000565
216.6114	-0.000997
216.8168	0.001156
217.0222	0.000818
217.2276	0.000164
217.4330	0.000142
217.6384	-0.000153
217.8439	0.001156
218.0494	0.001303
218.2548	0.001219
218.4603	0.001198
218.6659	0.000142
218.8714	0.001050
219.0769	0.000839
219.2825	-0.000005
219.4881	-0.000638
219.6936	0.000543
219.8992	0.000923
220.1049	0.000987
220.3105	0.001219
220.5161	0.000966
220.7218	0.000755
220.9275	0.000776
221.1332	0.001873
221.3389	0.002063
221.5446	0.000522
221.7503	0.000881
221.9561	0.000227
222.1618	-0.000449
222.3676	0.001599
222.5734	0.000691
222.7792	0.000375
222.9850	0.001810
223.1909	0.000691
223.3967	-0.000301
223.6026	0.002042
223.8085	0.001535
224.0144	-0.000723
224.2203	0.001620
224.4262	0.000755
224.6322	0.001451
224.8381	0.000269
225.0441	0.000565
225.2501	0.001451
225.4561	-0.000301
225.6621	-0.000026
225.8681	0.001937
226.0742	0.001303
226.2802	0.000417
226.4863	0.001599
226.6924	-0.000174
226.8985	0.000079
227.1046	0.000818
227.3107	0.001472
227.5169	-0.000850
227.7230	0.000079
227.9292	-0.000364
228.1354	0.001092
228.3416	-0.000132
228.5478	0.000354
228.7541	0.000776
228.9603	-0.000681
229.1666	0.001240
229.3729	-0.000280
229.5791	0.001029
229.7855	0.000586
229.9918	0.001092
230.1981	0.000860
230.4045	0.001409
230.6108	0.000121
230.8172	0.001177
231.0236	0.001134
231.2300	-0.000385
231.4364	0.001409
231.6429	0.000586
231.8493	0.001029
232.0558	-0.000047
232.2623	0.000185
232.4688	-0.000449
232.6753	0.002021
232.8818	0.000375
233.0884	0.000332
233.2949	0.000058
233.5015	-0.000385
233.7081	0.000396
233.9147	0.001599
234.1213	0.000164
234.3279	0.002295
234.5346	0.000311
234.7413	0.000755
234.9479	0.000248
235.1546	0.000100
235.3613	0.000649
235.5680	0.000311
235.7748	0.001071
235.9815	0.000480
236.1883	0.000755
236.3951	0.002380
236.6018	-0.000090
236.8087	0.001219
237.0155	0.001324
237.2223	-0.000364
237.4292	-0.000892
237.6360	0.001029
237.8429	0.000206
238.0498	0.002274
238.2567	-0.000005
238.4636	0.002253
238.6706	-0.000617
238.8775	0.001430
239.0845	0.000164
239.2915	0.001810
239.4985	0.000438
239.7055	0.001219
239.9125	0.001113
240.1195	0.001156
240.3266	0.000079
240.5337	-0.000660
240.7407	0.000691
240.9478	0.001409
241.1549	0.000121
241.3621	0.000543
241.5692	0.000375
241.7764	0.001535
241.9835	-0.000955
242.1907	0.001346
242.3979	-0.000280
242.6051	0.001008
242.8124	0.000966
243.0196	0.000016
243.2269	0.000670
243.4341	0.001388
243.6414	0.000438
243.8487	0.002506
244.0560	0.000058
244.2634	0.000881
244.4707	-0.000301
244.6781	0.000037
244.8854	0.001008
245.0928	0.001240
245.3002	0.000206
245.5076	0.002359
245.7151	0.001177
245.9225	0.000164
246.1300	0.000142
246.3375	0.001113
246.5449	0.001177
246.7524	0.000712
246.9600	0.002422
247.1675	0.001177
247.3750	0.000417
247.5826	0.001768
247.7902	0.000100
247.9978	0.001008
248.2054	-0.000069
248.4130	0.000016
248.6206	0.001134
248.8283	0.002021
249.0359	0.000332
249.2436	0.001134
249.4513	0.000142
249.6590	0.001768
249.8667	-0.000575
250.0745	0.000712
250.2822	0.001789
250.4900	-0.000153
250.6978	0.000586
250.9056	0.001113
251.1134	0.000649
251.3212	0.000121
251.5290	0.000839
251.7369	0.000733
251.9447	0.000818
252.1526	0.000712
252.3605	0.000100
252.5684	0.001451
252.7763	-0.001039
252.9843	0.000522
253.1922	0.001388
253.4002	0.000459
253.6082	0.001557
253.8162	-0.000786
254.0242	0.000586
254.2322	0.002443
254.4402	-0.000765
254.6483	0.000480
254.8564	-0.000153
255.0644	0.001261
255.2725	0.000375
255.4806	0.002380
255.6888	0.000628
255.8969	0.001113
256.1051	-0.000069
256.3132	0.000480
256.5214	0.001725
256.7296	0.000923
256.9378	0.000881
257.1460	-0.000195
257.3543	0.000966
257.5625	0.001514
257.7708	-0.001673
257.9791	0.000269
258.1874	0.001472
258.3957	0.000459
258.6040	0.000543
258.8124	0.000902
259.0207	0.000248
259.2291	0.000797
259.4375	0.000332
259.6459	0.002021
259.8543	0.000945
260.0627	0.000354
260.2711	0.000818
260.4796	0.001683
260.6881	0.000311
260.8965	0.000121
261.1050	-0.000470
261.3135	-0.000005
261.5221	0.001303
261.7306	-0.001124
261.9392	-0.000301
262.1477	0.001092
262.3563	0.000311
262.5649	0.000755
262.7735	-0.000449
262.9822	0.001725
263.1908	0.001071
263.3995	0.002844
263.6081	0.001282
263.8168	0.000269
264.0255	-0.000237
264.2342	0.001789
264.4429	0.002654
264.6517	-0.000047
264.8604	-0.000828
265.0692	0.001240
265.2780	0.000881
265.4868	0.001430
265.6956	0.000543
265.9044	0.002190
266.1133	-0.000132
266.3221	0.000375
266.5310	-0.000153
266.7399	-0.000216
266.9488	0.001029
267.1577	0.000670
267.3666	0.000522
267.5755	0.000543
267.7845	0.001451
267.9935	-0.000132
268.2024	-0.000047
268.4114	0.001578
268.6205	-0.000026
268.8295	0.000902
269.0385	-0.000132
269.2476	0.001894
269.4566	-0.001166
269.6657	0.002823
269.8748	0.000121
270.0839	0.001303
270.2931	0.000881
270.5022	0.000565
270.7114	0.000797
270.9205	0.000839
271.1297	-0.001251
271.3389	0.001958
271.5481	0.000565
271.7573	-0.001356
271.9666	0.000100
272.1758	0.000923
272.3851	0.001472
272.5944	0.002126
272.8037	-0.000069
273.0130	0.001071
273.2223	0.001493
273.4316	0.001008
273.6410	0.000332
273.8504	0.000459
274.0597	0.000712
274.2691	0.000543
274.4785	0.001134
274.6880	0.000438
274.8974	0.001493
275.1069	-0.000554
275.3163	0.001514
275.5258	-0.000005
275.7353	0.001430
275.9448	0.000058
276.1543	0.000881
276.3639	0.000945
276.5734	0.000649
276.7830	0.001725
276.9926	0.000079
277.2022	0.000691
277.4118	0.000058
277.6214	0.001008
277.8310	-0.000512
278.0407	0.002907
278.2503	-0.000533
278.4600	0.000269
278.6697	0.000227
278.8794	0.001008
279.0891	0.001620
279.2989	0.001219
279.5086	0.000058
279.7184	0.001937
279.9281	0.000142
280.1379	0.000586
280.3477	0.001198
280.5576	0.000480
280.7674	0.000206
280.9772	-0.000913
281.1871	-0.000343
281.3970	-0.000090
281.6069	0.000248
281.8168	0.000628
282.0267	0.000037
282.2366	-0.000174
282.4466	0.001937
282.6565	0.002506
282.8665	-0.000259
283.0765	0.000459
283.2865	0.000206
283.4965	0.001134
283.7065	0.001134
283.9166	0.000797
284.1266	0.001388
284.3367	0.002485
284.5468	0.000797
284.7569	0.000902
284.9670	0.000185
285.1771	0.001514
285.3873	0.000543
285.5974	0.000839
285.8076	-0.000174
286.0178	0.000860
286.2280	0.001134
286.4382	0.000670
286.6484	-0.000026
286.8587	0.001240
287.0689	0.001008
287.2792	0.001219
287.4895	0.000586
287.6998	0.000691
287.9101	0.000881
288.1204	-0.000132
288.3308	-0.000259
288.5411	-0.000174
288.7515	-0.000026
288.9619	0.000923
289.1723	0.000142
289.3827	0.001493
289.5931	0.001113
289.8035	0.000670
290.0140	0.002000
290.2245	0.000923
290.4349	0.000269
290.6454	0.002274
290.8559	-0.000069
291.0665	0.001493
291.2770	-0.000660
291.4875	0.001578
291.6981	-0.000237
291.9087	-0.000111
292.1193	0.000881
292.3299	-0.000364
292.5405	0.000206
292.7511	0.001747
292.9618	-0.000364
293.1724	0.001810
293.3831	0.000037
293.5938	0.000501
293.8045	0.000438
294.0152	0.000881
294.2260	0.000923
294.4367	0.000607
294.6475	0.001979
294.8582	0.000375
295.0690	0.000712
295.2798	0.002633
295.4906	-0.000491
295.7015	0.001071
295.9123	-0.000237
296.1232	-0.001061
296.3340	0.001831
296.5449	0.000459
296.7558	0.001346
296.9667	0.000227
297.1777	0.001303
297.3886	0.000839
297.5995	0.000565
297.8105	0.000818
298.0215	-0.001187
298.2325	0.000396
298.4435	0.000459
298.6545	-0.000195
298.8656	0.000501
299.0766	0.000586
299.2877	0.001409
299.4988	0.001388
299.7099	0.000628
299.9210	0.000755
300.1321	0.001071
300.3432	0.000733
300.5544	0.000987
300.7655	0.001219
300.9767	0.002021
301.1879	-0.000111
301.3991	0.000438
301.6103	0.000417
301.8215	0.000712
302.0328	-0.000406
302.2441	0.000248
302.4553	0.001915
302.6666	0.001409
302.8779	-0.000301
303.0892	0.000860
303.3006	0.000860
303.5119	-0.000174
303.7233	-0.000765
303.9346	0.000100
304.1460	0.000079
304.3574	0.000945
304.5688	0.002169
304.7803	0.001704
304.9917	0.000079
305.2031	-0.000174
305.4146	0.002021
305.6261	-0.000449
305.8376	0.001451
306.0491	0.001789
306.2606	-0.000575
306.4722	-0.000681
306.6837	0.000164
306.8953	0.000121
307.1069	0.000860
307.3184	0.000649
307.5301	0.001156
307.7417	0.000480
307.9533	0.000691
308.1650	0.000670
308.3766	0.000818
308.5883	0.000501
308.8000	0.000543
309.0117	0.000100
309.2234	-0.000301
309.4351	0.001641
309.6469	0.000501
309.8586	0.000966
310.0704	0.001578
310.2822	0.000332
310.4940	0.000543
310.7058	0.000100
310.9176	0.001873
311.1295	-0.000237
311.3413	0.001894
311.5532	-0.000069
311.7651	0.000332
311.9770	-0.000385
312.1889	0.000818
312.4008	-0.000111
312.6127	0.000269
312.8247	0.001156
313.0366	0.001472
313.2486	-0.000470
313.4606	0.000923
313.6726	-0.000364
313.8846	0.000100
314.0967	0.001261
314.3087	0.000438
314.5208	-0.000343
314.7328	0.000290
314.9449	0.000733
315.1570	0.001852
315.3692	0.000248
315.5813	0.002359
315.7934	0.000565
316.0056	0.000881
316.2177	-0.000575
316.4299	0.002084
316.6421	0.000733
316.8543	-0.000132
317.0666	0.001747
317.2788	0.000396
317.4911	0.000881
317.7033	0.000121
317.9156	0.001430
318.1279	0.001535
318.3402	0.001219
318.5525	0.001113
318.7649	0.000375
318.9772	0.000797
319.1896	0.001050
319.4019	0.001451
319.6143	0.000628
319.8267	0.001557
320.0392	-0.000111
320.2516	0.002401
320.4640	0.000565
320.6765	0.001894
320.8890	0.000206
321.1014	0.000016
321.3139	0.000565
321.5265	0.001747
321.7390	-0.000174
321.9515	0.000185
322.1641	0.001071
322.3766	0.000079
322.5892	0.000375
322.8018	0.001346
323.0144	-0.000681
323.2270	0.001156
323.4397	0.000501
323.6523	0.000480
323.8650	0.000881
324.0777	0.000797
324.2904	-0.000533
324.5031	0.002190
324.7158	0.000881
324.9285	-0.000026
325.1412	-0.000406
325.3540	0.001346
325.5668	0.000438
325.7796	0.000797
325.9924	-0.000955
326.2052	0.002549
326.4180	-0.000047
326.6308	0.001873
326.8437	0.000354
327.0566	0.001177
327.2694	0.000016
327.4823	0.000375
327.6952	0.000966
327.9082	0.000354
328.1211	-0.000005
328.3340	0.001113
328.5470	0.000164
328.7600	0.001346
328.9730	-0.000153
329.1860	0.001747
329.3990	0.000649
329.6120	0.000543
329.8251	-0.000216
330.0381	0.001134
330.2512	-0.000005
330.4643	0.001409
330.6774	-0.001293
330.8905	0.000459
331.1036	-0.000301
331.3167	0.002274
331.5299	0.000269
331.7431	0.001219
331.9562	0.001683
332.1694	-0.000111
332.3826	0.000712
332.5959	0.000818
332.8091	0.000860
333.0223	0.000501
333.2356	0.001451
333.4489	0.000459
333.6622	0.000818
333.8755	0.001873
334.0888	-0.000111
334.3021	0.001472
334.5154	0.001198
334.7288	0.002316
334.9422	0.000354
335.1555	0.001134
335.3689	0.000037
335.5823	0.001240
335.7958	0.000670
336.0092	0.000290
336.2227	0.000923
336.4361	-0.000871
336.6496	0.000332
336.8631	0.001789
337.0766	0.001578
337.2901	-0.000427
337.5036	0.000438
337.7172	0.000290
337.9307	0.000185
338.1443	0.000945
338.3579	-0.000090
338.5715	-0.000638
338.7851	0.000290
338.9987	0.001683
339.2124	0.001050
339.4260	0.001071
339.6397	0.000016
339.8533	0.000712
340.0670	0.000016
340.2807	-0.000280
340.4945	-0.000005
340.7082	-0.000111
340.9219	0.000121
341.1357	0.001008
341.3495	0.000945
341.5633	0.001409
341.7771	0.000522
341.9909	0.001915
342.2047	-0.000343
342.4185	0.001683
342.6324	0.000776
342.8463	0.001409
343.0601	0.000227
343.2740	0.001873
343.4879	-0.000343
343.7019	0.000142
343.9158	0.000607
344.1297	0.001198
344.3437	0.000206
344.5577	0.000480
344.7717	0.002232
344.9857	0.000543
345.1997	0.001493
345.4137	0.000037
345.6277	0.000354
345.8418	0.001451
346.0559	0.000881
346.2699	0.000058
346.4840	0.000164
346.6981	0.001282
346.9123	-0.000512
347.1264	0.000290
347.3406	0.000691
347.5547	0.000881
347.7689	0.000016
347.9831	-0.000090
348.1973	0.000543
348.4115	0.000691
348.6257	0.000586
348.8400	0.002169
349.0542	0.001578
349.2685	0.000332
349.4828	-0.000617
349.6971	0.000332
349.9114	0.001050
350.1257	0.000543
350.3400	0.000206
350.5544	0.000543
350.7687	-0.000216
350.9831	0.000586
351.1975	0.000459
351.4119	0.000881
351.6263	-0.000322
351.8407	0.000670
352.0552	0.001346
352.2696	-0.000111
352.4841	-0.000470
352.6986	0.000881
352.9131	0.001535
353.1276	0.001514
353.3421	0.000755
353.5566	0.000966
353.7712	0.000712
353.9858	0.000923
354.2003	0.000628
354.4149	0.000923
354.6295	-0.000617
354.8441	0.000037
355.0588	0.000058
355.2734	-0.000195
355.4881	0.001261
355.7027	0.000185
355.9174	-0.001799
356.1321	0.001557
356.3468	0.001198
356.5615	0.000691
356.7763	0.000100
356.9910	0.001768
357.2058	0.000037
357.4206	0.002190
357.6353	0.000565
357.8501	0.001388
358.0650	0.001324
358.2798	0.000438
358.4946	0.001388
358.7095	0.001409
358.9243	0.000945
359.1392	0.001071
359.3541	0.000185
359.5690	0.000227
359.7839	0.000565
359.9989	0.000058
360.2138	0.000121
360.4288	0.001346
360.6438	0.001346
360.8587	0.000670
361.0737	0.000480
361.2888	0.001113
361.5038	0.001979
361.7188	0.000902
361.9339	-0.000786
362.1489	0.000860
362.3640	0.000987
362.5791	0.001578
362.7942	0.002359
363.0093	0.000902
363.2245	0.000269
363.4396	0.000332
363.6548	0.001725
363.8699	0.001789
364.0851	0.001324
364.3003	0.000100
364.5155	-0.000132
364.7308	-0.000216
364.9460	0.001219
365.1612	0.001134
365.3765	-0.000575
365.5918	0.000058
365.8071	0.000459
366.0224	0.002401
366.2377	-0.001504
366.4530	0.001810
366.6684	0.000142
366.8837	0.000142
367.0991	0.000375
367.3145	0.002042
367.5299	0.001578
367.7453	0.001282
367.9607	-0.000026
368.1761	0.000670
368.3916	0.000691
368.6070	0.000227
368.8225	0.000480
369.0380	0.000565
369.2535	0.000079
369.4690	0.001852
369.6845	0.000691
369.9001	0.000269
370.1156	0.002253
370.3312	-0.000280
370.5468	0.000987
370.7624	0.001050
370.9780	0.000543
371.1936	-0.000596
371.4092	0.000649
371.6249	0.001261
371.8405	-0.000111
372.0562	-0.000301
372.2719	-0.000828
372.4876	0.001156
372.7033	0.000733
372.9190	0.001768
373.1348	-0.000554
373.3505	0.001050
373.5663	0.000142
373.7820	0.000628
373.9978	0.000691
374.2136	0.001873
374.4294	0.000776
374.6453	0.000565
374.8611	0.000712
375.0770	0.001219
375.2928	-0.000596
375.5087	0.000543
375.7246	0.001430
375.9405	0.001388
376.1564	0.001683
376.3724	0.002126
376.5883	0.001493
376.8043	0.000776
377.0203	0.000248
377.2362	0.001472
377.4522	0.000206
377.6682	0.000818
377.8843	0.000227
378.1003	0.000142
378.3164	0.000058
378.5324	0.000712
378.7485	0.001219
378.9646	0.002295
379.1807	0.001156
379.3968	0.001852
379.6129	0.000649
379.8291	0.000860
380.0452	-0.000005
380.2614	0.002633
380.4776	-0.000533
380.6938	0.001029
380.9100	0.000522
381.1262	0.001240
381.3424	0.000691
381.5587	0.000227
381.7749	-0.000385
381.9912	0.000649
382.2075	0.000269
382.4238	0.001409
382.6401	0.000797
382.8564	0.002021
383.0728	0.000332
383.2891	0.001113
383.5055	-0.000892
383.7219	0.001789
383.9382	-0.000786
384.1546	0.000100
384.3711	0.001240
384.5875	0.001303
384.8039	0.001599
385.0204	-0.000216
385.2368	-0.000195
385.4533	0.000755
385.6698	0.001388
385.8863	0.000459
386.1028	0.000755
386.3194	0.000776
386.5359	0.001008
386.7525	-0.000850
386.9690	-0.000132
387.1856	0.000607
387.4022	0.001008
387.6188	0.000396
387.8355	0.000227
388.0521	0.001557
388.2687	-0.000195
388.4854	0.001029
388.7021	0.002105
388.9188	0.000987
389.1355	0.000628
389.3522	0.000501
389.5689	0.000797
389.7856	0.000058
390.0024	0.001472
390.2192	0.001514
390.4359	0.001472
390.6527	0.002696
390.8695	0.000586
391.0863	0.001050
391.3032	0.000923
391.5200	0.000691
391.7369	0.002359
391.9537	0.001915
392.1706	0.000332
392.3875	0.003140
392.6044	0.003583
392.8213	0.000670
393.0383	0.001451
393.2552	0.001472
393.4722	0.002781
393.6891	0.003266
393.9061	0.001303
394.1231	0.000987
394.3401	0.002717
394.5572	0.002380
394.7742	0.002464
394.9912	0.002823
395.2083	0.002232
395.4254	0.003203
395.6425	0.003541
395.8596	0.002633
396.0767	0.003203
396.2938	0.002654
396.5109	0.002422
396.7281	0.003878
396.9453	0.002000
397.1624	0.004005
397.3796	0.001915
397.5968	0.004427
397.8140	0.002253
398.0313	0.003836
398.2485	0.002907
398.4658	0.004976
398.6830	0.004596
398.9003	0.003731
399.1176	0.004680
399.3349	0.005229
399.5522	0.004786
399.7696	0.003372
399.9869	0.003836
400.2043	0.004891
400.4216	0.002443
400.6390	0.003688
400.8564	0.006643
401.0738	0.004047
401.2912	0.003604
401.5087	0.005736
401.7261	0.005482
401.9436	0.005461
402.1610	0.004406
402.3785	0.003963
402.5960	0.003709
402.8135	0.005883
403.0310	0.006137
403.2486	0.005630
403.4661	0.006538
403.6837	0.004723
403.9013	0.005419
404.1189	0.006200
404.3365	0.006390
404.5541	0.007002
404.7717	0.005546
404.9893	0.006390
405.2070	0.009134
405.4246	0.008184
405.6423	0.006073
405.8600	0.007002
406.0777	0.008121
406.2954	0.006749
406.5131	0.007466
406.7309	0.007889
406.9486	0.006559
407.1664	0.006791
407.3842	0.007720
407.6020	0.007129
407.8198	0.006306
408.0376	0.007445
408.2554	0.008881
408.4733	0.009049
408.6911	0.007213
408.9090	0.009260
409.1269	0.008501
409.3448	0.007910
409.5627	0.010506
409.7806	0.008100
409.9985	0.008184
410.2165	0.008057
410.4344	0.010632
410.6524	0.009155
410.8704	0.008923
411.0884	0.008268
411.3064	0.009282
411.5244	0.009788
411.7424	0.009683
411.9605	0.008142
412.1785	0.009640
412.3966	0.010506
412.6147	0.010126
412.8328	0.009788
413.0509	0.010316
413.2690	0.009999
413.4871	0.010654
413.7053	0.010506
413.9234	0.011012
414.1416	0.010717
414.3598	0.011181
414.5780	0.010970
414.7962	0.010084
415.0144	0.009028
415.2326	0.009978
415.4509	0.011920
415.6692	0.011033
415.8874	0.010464
416.1057	0.011582
416.3240	0.012975
416.5423	0.011709
416.7606	0.012616
416.9790	0.010928
417.1973	0.012173
417.4157	0.013017
417.6341	0.012933
417.8524	0.012827
418.0708	0.014305
418.2893	0.012490
418.5077	0.012511
418.7261	0.014706
418.9446	0.013081
419.1630	0.012110
419.3815	0.012996
419.6000	0.015023
419.8185	0.014706
420.0370	0.015001
420.2555	0.016099
420.4741	0.015044
420.6926	0.015001
420.9112	0.015255
421.1298	0.015740
421.3483	0.018041
421.5669	0.017830
421.7856	0.017260
422.0042	0.017555
422.2228	0.017028
422.4415	0.017091
422.6601	0.018041
422.8788	0.017281
423.0975	0.017598
423.3162	0.017028
423.5349	0.018611
423.7536	0.018189
423.9724	0.017766
424.1911	0.016458
424.4099	0.016838
424.6287	0.017576
424.8475	0.017133
425.0663	0.016838
425.2851	0.017281
425.5039	0.016500
425.7228	0.016922
425.9416	0.016985
426.1605	0.017112
426.3793	0.016627
426.5982	0.017724
426.8171	0.015213
427.0361	0.018083
427.2550	0.017218
427.4739	0.018336
427.6929	0.017049
427.9118	0.019560
428.1308	0.017471
428.3498	0.018104
428.5688	0.018273
428.7878	0.016753
429.0068	0.017999
429.2259	0.017175
429.4449	0.017977
429.6640	0.020299
429.8831	0.020595
430.1022	0.020173
430.3213	0.022030
430.5404	0.023444
430.7595	0.021186
430.9787	0.023740
431.1978	0.022157
431.4170	0.020721
431.6362	0.019793
431.8553	0.017977
432.0745	0.018252
432.2938	0.019455
432.5130	0.016796
432.7322	0.018526
432.9515	0.019117
433.1707	0.017112
433.3900	0.018864
433.6093	0.020173
433.8286	0.020700
434.0479	0.022368
434.2673	0.021143
434.4866	0.020299
434.7059	0.021249
434.9253	0.019223
435.1447	0.019603
435.3641	0.019476
435.5835	0.020700
435.8029	0.021587
436.0223	0.021080
436.2418	0.020447
436.4612	0.021882
436.6807	0.022494
436.9001	0.021376
437.1196	0.019370
437.3391	0.020067
437.5586	0.020257
437.7782	0.020827
437.9977	0.019961
438.2173	0.021840
438.4368	0.022389
438.6564	0.021924
438.8760	0.019919
439.0956	0.018674
439.3152	0.023233
439.5348	0.021439
439.7545	0.021502
439.9741	0.020848
440.1938	0.020109
440.4135	0.019455
440.6331	0.020299
440.8528	0.021502
441.0725	0.022114
441.2923	0.023127
441.5120	0.025597
441.7318	0.024774
441.9515	0.026779
442.1713	0.024077
442.3911	0.025639
442.6109	0.024162
442.8307	0.021819
443.0505	0.021544
443.2703	0.024098
443.4902	0.024563
443.7101	0.025597
443.9299	0.023761
444.1498	0.023465
444.3697	0.024795
444.5896	0.025407
444.8095	0.022895
445.0295	0.022579
445.2494	0.024900
445.4694	0.025280
445.6894	0.021756
445.9093	0.022916
446.1293	0.021840
446.3493	0.024352
446.5694	0.023191
446.7894	0.023402
447.0094	0.022051
447.2295	0.023254
447.4496	0.022220
447.6696	0.021291
447.8897	0.021017
448.1098	0.023022
448.3300	0.021249
448.5501	0.021945
448.7702	0.021608
448.9904	0.022769
449.2106	0.020595
449.4307	0.022937
449.6509	0.021988
449.8711	0.021608
450.0914	0.021566
450.3116	0.021587
450.5318	0.020004
450.7521	0.020890
450.9724	0.020552
451.1926	0.020890
451.4129	0.020616
451.6332	0.018104
451.8535	0.019919
452.0739	0.019603
452.2942	0.017999
452.5146	0.019877
452.7349	0.020911
452.9553	0.019202
453.1757	0.017492
453.3961	0.018104
453.6165	0.018547
453.8369	0.017788
454.0574	0.019856
454.2778	0.018231
454.4983	0.016859
454.7188	0.018948
454.9393	0.017555
455.1597	0.018357
455.3803	0.017175
455.6008	0.018906
455.8213	0.018484
456.0419	0.015846
456.2624	0.016162
456.4830	0.018189
456.7036	0.016690
456.9242	0.016458
457.1448	0.014305
457.3654	0.019012
457.5860	0.016584
457.8067	0.016627
458.0274	0.017007
458.2480	0.017830
458.4687	0.017598
458.6894	0.019645
458.9101	0.017534
459.1308	0.017429
459.3516	0.017239
459.5723	0.018400
459.7931	0.017724
460.0138	0.016373
460.2346	0.017914
460.4554	0.016162
460.6762	0.014622
460.8970	0.017133
461.1178	0.015846
461.3387	0.014178
461.5595	0.015360
461.7804	0.014622
462.0013	0.013925
462.2222	0.013672
462.4431	0.013587
462.6640	0.013418
462.8849	0.013313
463.1059	0.013017
463.3268	0.014347
463.5478	0.013883
463.7687	0.014389
463.9897	0.013229
464.2107	0.014938
464.4317	0.016352
464.6528	0.014790
464.8738	0.014833
465.0948	0.015107
465.3159	0.014875
465.5370	0.014178
465.7581	0.013946
465.9792	0.016563
466.2003	0.015951
466.4214	0.013292
466.6425	0.011202
466.8637	0.014389
467.0848	0.012321
467.3060	0.013165
467.5272	0.010991
467.7484	0.011519
467.9696	0.012996
468.1908	0.012827
468.4120	0.011688
468.6333	0.010337
468.8545	0.011244
469.0758	0.012047
469.2970	0.010548
469.5183	0.010041
469.7396	0.010400
469.9610	0.009239
470.1823	0.008374
470.4036	0.010168
470.6250	0.009366
470.8463	0.009239
471.0677	0.008142
471.2891	0.008374
471.5105	0.008480
471.7319	0.009155
471.9533	0.007466
472.1748	0.008775
472.3962	0.007488
472.6177	0.010717
472.8391	0.007065
473.0606	0.009767
473.2821	0.007994
473.5036	0.009071
473.7251	0.009113
473.9467	0.009683
474.1682	0.008902
474.3898	0.008353
474.6113	0.007910
474.8329	0.008627
475.0545	0.008965
475.2761	0.009007
475.4977	0.009324
475.7193	0.009915
475.9410	0.008669
476.1626	0.008079
476.3843	0.007382
476.6060	0.008226
476.8277	0.007382
477.0494	0.007910
477.2711	0.005989
477.4928	0.006707
477.7145	0.007488
477.9363	0.006960
478.1580	0.007825
478.3798	0.008480
478.6016	0.007424
478.8234	0.006875
479.0452	0.007403
479.2670	0.007298
479.4888	0.006453
479.7107	0.007065
479.9325	0.006854
480.1544	0.007298
480.3763	0.007234
480.5982	0.007298
480.8201	0.007002
481.0420	0.007361
481.2639	0.008142
481.4859	0.007129
481.7078	0.007382
481.9298	0.008902
482.1517	0.006664
482.3737	0.007910
482.5957	0.006200
482.8177	0.005525
483.0398	0.005778
483.2618	0.007171
483.4838	0.006749
483.7059	0.007129
483.9280	0.005905
484.1501	0.007656
484.3721	0.006200
484.5943	0.008374
484.8164	0.006707
485.0385	0.007234
485.2606	0.005947
485.4828	0.007867
485.7050	0.013397
485.9271	0.018716
486.1493	0.020299
486.3715	0.015360
486.5937	0.013482
486.8160	0.010759
487.0382	0.010337
487.2605	0.011033
487.4827	0.009915
487.7050	0.006770
487.9273	0.006559
488.1496	0.007150
488.3719	0.005820
488.5942	0.005060
488.8165	0.005609
489.0389	0.005124
489.2612	0.004512
489.4836	0.004638
489.7060	0.004279
489.9284	0.005820
490.1508	0.004891
490.3732	0.004364
490.5956	0.005250
490.8180	0.005377
491.0405	0.003878
491.2630	0.006474
491.4854	0.004258
491.7079	0.006411
491.9304	0.003224
492.1529	0.006263
492.3755	0.002717
492.5980	0.004026
492.8205	0.004870
493.0431	0.004026
493.2657	0.005081
493.4882	0.003224
493.7108	0.005081
493.9334	0.004512
494.1561	0.004891
494.3787	0.004026
494.6013	0.004955
494.8240	0.004533
495.0466	0.003709
495.2693	0.005905
495.4920	0.003878
495.7147	0.003456
495.9374	0.003709
496.1601	0.004680
496.3829	0.004237
496.6056	0.003921
496.8284	0.003034
497.0511	0.003308
497.2739	0.004554
497.4967	0.004089
497.7195	0.004976
497.9423	0.004849
498.1652	0.004680
498.3880	0.003520
498.6109	0.006031
498.8337	0.004955
499.0566	0.002929
499.2795	0.005335
499.5024	0.003688
499.7253	0.004638
499.9482	0.004047
500.1712	0.003667
500.3941	0.003520
500.6171	0.004174
500.8400	0.003815
501.0630	0.003118
501.2860	0.002148
501.5090	0.006200
501.7320	0.003076
501.9551	0.003752
502.1781	0.003414
502.4012	0.006031
502.6242	0.003182
502.8473	0.003351
503.0704	0.002992
503.2935	0.003984
503.5166	0.003393
503.7397	0.003604
503.9628	0.004279
504.1860	0.005883
504.4092	0.003583
504.6323	0.004364
504.8555	0.003604
505.0787	0.004828
505.3019	0.002084
505.5251	0.003498
505.7483	0.003773
505.9716	0.003161
506.1948	0.002886
506.4181	0.003878
506.6414	0.003456
506.8647	0.004153
507.0880	0.004934
507.3113	0.005039
507.5346	0.003752
507.7579	0.004406
507.9813	0.002760
508.2046	0.003836
508.4280	0.002485
508.6514	0.004047
508.8748	0.003498
509.0982	0.003942
509.3216	0.003414
509.5450	0.005081
509.7685	0.001346
509.9919	0.003393
510.2154	0.003773
510.4388	0.004406
510.6623	0.002485
510.8858	0.003921
511.1093	0.003203
511.3329	0.002612
511.5564	0.004765
511.7799	0.002992
512.0035	0.004300
512.2270	0.003731
512.4506	0.003097
512.6742	0.004216
512.8978	0.002950
513.1214	0.002084
513.3451	0.003646
513.5687	0.004153
513.7923	0.003752
514.0160	0.004891
514.2397	0.005187
514.4634	0.003921
514.6871	0.002886
514.9108	0.004512
515.1345	0.003520
515.3582	0.003076
515.5819	0.003857
515.8057	0.003878
516.0295	0.003308
516.2532	0.002907
516.4770	0.003097
516.7008	0.003034
516.9246	0.001092
517.1485	0.003899
517.3723	0.003899
517.5961	0.002781
517.8200	0.002380
518.0439	0.003836
518.2677	0.003498
518.4916	0.004174
518.7155	0.003414
518.9395	0.002190
519.1634	0.003414
519.3873	0.002929
519.6113	0.003498
519.8352	0.003899
520.0592	0.002274
520.2832	0.004385
520.5072	0.004237
520.7312	0.003456
520.9552	0.003625
521.1792	0.002739
521.4033	0.003520
521.6273	0.002865
521.8514	0.003351
522.0755	0.003266
522.2996	0.004322
522.5237	0.003456
522.7478	0.004891
522.9719	0.003330
523.1960	0.003836
523.4202	0.004364
523.6443	0.005292
523.8685	0.004174
524.0927	0.003541
524.3169	0.003541
524.5411	0.004596
524.7653	0.004089
524.9895	0.003899
525.2138	0.004849
525.4380	0.005250
525.6623	0.003456
525.8865	0.004512
526.1108	0.005377
526.3351	0.005630
526.5594	0.004005
526.7837	0.004891
527.0081	0.004512
527.2324	0.004934
527.4568	0.004343
527.6811	0.003984
527.9055	0.005018
528.1299	0.004153
528.3543	0.003836
528.5787	0.005525
528.8031	0.004596
529.0276	0.005356
529.2520	0.004026
529.4765	0.005588
529.7009	0.006137
529.9254	0.005377
530.1499	0.004469
530.3744	0.004870
530.5989	0.005314
530.8234	0.005567
531.0480	0.004195
531.2725	0.005862
531.4971	0.005968
531.7217	0.006854
531.9462	0.004406
532.1708	0.005736
532.3954	0.005482
532.6200	0.006643
532.8447	0.005060
533.0693	0.006031
533.2940	0.007340
533.5186	0.008100
533.7433	0.006875
533.9680	0.008142
534.1927	0.007509
534.4174	0.008142
534.6421	0.007699
534.8668	0.008311
535.0916	0.008079
535.3163	0.008416
535.5411	0.007192
535.7659	0.008395
535.9907	0.006918
536.2155	0.007403
536.4403	0.006559
536.6651	0.007466
536.8899	0.006306
537.1148	0.008395
537.3396	0.007234
537.5645	0.008902
537.7894	0.007213
538.0143	0.010041
538.2392	0.009049
538.4641	0.008944
538.6890	0.009915
538.9139	0.009324
539.1389	0.007973
539.3638	0.010105
539.5888	0.010886
539.8138	0.011624
540.0388	0.009619
540.2638	0.008881
540.4888	0.009197
540.7138	0.011983
540.9389	0.010084
541.1639	0.011434
541.3890	0.010991
541.6140	0.011983
541.8391	0.010696
542.0642	0.012384
542.2893	0.011709
542.5144	0.013524
542.7396	0.012300
542.9647	0.013630
543.1899	0.012131
543.4150	0.010358
543.6402	0.013798
543.8654	0.013566
544.0906	0.012743
544.3158	0.014094
544.5410	0.013123
544.7662	0.014622
544.9915	0.015614
545.2167	0.015698
545.4420	0.014052
545.6673	0.013334
545.8926	0.014558
546.1179	0.014685
546.3432	0.014347
546.5685	0.014052
546.7938	0.014516
547.0192	0.014389
547.2445	0.013440
547.4699	0.017809
547.6953	0.016669
547.9206	0.017703
548.1460	0.017682
548.3715	0.018758
548.5969	0.018758
548.8223	0.018948
549.0478	0.017534
549.2732	0.018611
549.4987	0.016669
549.7242	0.016753
549.9496	0.017640
550.1751	0.018146
550.4007	0.016690
550.6262	0.018125
550.8517	0.016964
551.0773	0.016289
551.3028	0.017471
551.5284	0.016690
551.7540	0.019117
551.9796	0.019877
552.2052	0.020405
552.4308	0.021819
552.6564	0.021713
552.8820	0.020088
553.1077	0.021544
553.3333	0.019413
553.5590	0.021544
553.7847	0.022178
554.0104	0.022916
554.2361	0.023402
554.4618	0.019983
554.6875	0.021840
554.9132	0.020785
555.1390	0.020996
555.3648	0.022389
555.5905	0.024162
555.8163	0.025977
556.0421	0.023908
556.2679	0.026061
556.4937	0.025470
556.7195	0.023170
556.9454	0.025702
557.1712	0.023972
557.3971	0.023381
557.6230	0.022895
557.8488	0.026272
558.0747	0.025323
558.3006	0.025133
558.5266	0.024964
558.7525	0.024689
558.9784	0.022431
559.2044	0.024584
559.4303	0.023676
559.6563	0.025555
559.8823	0.027475
560.1083	0.026462
560.3343	0.025365
560.5603	0.030177
560.7863	0.031486
561.0124	0.034462
561.2384	0.032752
561.4645	0.033301
561.6905	0.030557
561.9166	0.033195
562.1427	0.030684
562.3688	0.032330
562.5949	0.030029
562.8211	0.032541
563.0472	0.030979
563.2733	0.034293
563.4995	0.032752
563.7257	0.035834
563.9519	0.037100
564.1781	0.036298
564.4043	0.035538
564.6305	0.035559
564.8567	0.038620
565.0829	0.038303
565.3092	0.037881
565.5355	0.038409
565.7617	0.036615
565.9880	0.039696
566.2143	0.039506
566.4406	0.038810
566.6669	0.039802
566.8932	0.040878
567.1196	0.043263
567.3459	0.047674
567.5723	0.053225
567.7987	0.051938
568.0250	0.053120
568.2514	0.055209
568.4778	0.055083
568.7043	0.060993
568.9307	0.065066
569.1571	0.068549
569.3836	0.073002
569.6100	0.081023
569.8365	0.090267
570.0630	0.093855
570.2895	0.096156
570.5160	0.095523
570.7425	0.096599
570.9690	0.105443
571.1956	0.112640
571.4221	0.117600
571.6487	0.121568
571.8752	0.124755
572.1018	0.128871
572.3284	0.130897
572.5550	0.124629
572.7816	0.113126
573.0082	0.113421
573.2349	0.121737
573.4615	0.132290
573.6882	0.140775
573.9149	0.146411
574.1415	0.150674
574.3682	0.158568
574.5949	0.164900
574.8216	0.163591
575.0484	0.164140
575.2751	0.166947
575.5018	0.163338
575.7286	0.157112
575.9554	0.151497
576.1821	0.150083
576.4089	0.156605
576.6357	0.161671
576.8626	0.173131
577.0894	0.174081
577.3162	0.174989
577.5431	0.187463
577.7699	0.203504
577.9968	0.231702
578.2237	0.225729
578.4505	0.215640
578.6774	0.199873
578.9044	0.193964
579.1313	0.182334
579.3582	0.185584
579.5851	0.194322
579.8121	0.197446
580.0391	0.201013
580.2660	0.203293
580.4930	0.198375
580.7200	0.194449
580.9470	0.198016
581.1741	0.230372
581.4011	0.274612
581.6281	0.300045
581.8552	0.309712
582.0822	0.301163
582.3093	0.290061
582.5364	0.272944
582.7635	0.250255
582.9906	0.227650
583.2177	0.213930
583.4449	0.200422
583.6720	0.189869
583.8991	0.185985
584.1263	0.184846
584.3535	0.189299
584.5807	0.194744
584.8079	0.196918
585.0351	0.212727
585.2623	0.225792
585.4895	0.225391
585.7167	0.224399
585.9440	0.217434
586.1713	0.206501
586.3985	0.191790
586.6258	0.191663
586.8531	0.194386
587.0804	0.205403
587.3077	0.213804
587.5350	0.217181
587.7624	0.218532
587.9897	0.207535
588.2171	0.198122
588.4445	0.199114
588.6718	0.190291
588.8992	0.180899
589.1266	0.168425
589.3540	0.160763
589.5815	0.155719
589.8089	0.160193
590.0363	0.154220
590.2638	0.149471
590.4913	0.143688
590.7187	0.139762
590.9462	0.131003
591.1737	0.130074
591.4012	0.125051
591.6288	0.125578
591.8563	0.125663
592.0838	0.125473
592.3114	0.130370
592.5389	0.148690
592.7665	0.170092
592.9941	0.191874
593.2217	0.197763
593.4493	0.195293
593.6769	0.191431
593.9046	0.189299
594.1322	0.175664
594.3598	0.169438
594.5875	0.164182
594.8152	0.172498
595.0429	0.184466
595.2705	0.193035
595.4983	0.188476
595.7260	0.178134
595.9537	0.170008
596.1814	0.158146
596.4092	0.149661
596.6369	0.142506
596.8647	0.135625
597.0925	0.143371
597.3203	0.141028
597.5481	0.147360
597.7759	0.145735
598.0037	0.141007
598.2315	0.136279
598.4594	0.136617
598.6872	0.149492
598.9151	0.166567
599.1430	0.180118
599.3709	0.182165
599.5988	0.171147
599.8267	0.171105
600.0546	0.175580
600.2825	0.175981
600.5105	0.176762
600.7384	0.177163
600.9664	0.180645
601.1944	0.181785
601.4223	0.180983
601.6503	0.173195
601.8783	0.165807
602.1064	0.165174
602.3344	0.164246
602.5624	0.161818
602.7905	0.168826
603.0185	0.169628
603.2466	0.172393
603.4747	0.180498
603.7028	0.185057
603.9309	0.177690
604.1590	0.172498
604.3871	0.161417
604.6152	0.158230
604.8434	0.149260
605.0715	0.149176
605.2997	0.154220
605.5279	0.161797
605.7561	0.164330
605.9843	0.172393
606.2125	0.168298
606.4407	0.165132
606.6689	0.157344
606.8972	0.155001
607.1254	0.153460
607.3537	0.157576
607.5819	0.158800
607.8102	0.155254
608.0385	0.151328
608.2668	0.148289
608.4951	0.141429
608.7235	0.143329
608.9518	0.139277
609.1801	0.136258
609.4085	0.131066
609.6369	0.128597
609.8653	0.136828
610.0936	0.145102
610.3220	0.147888
610.5505	0.142865
610.7789	0.141619
611.0073	0.136491
611.2357	0.134971
611.4642	0.133135
611.6927	0.134823
611.9211	0.134908
612.1496	0.130074
612.3781	0.124481
612.6066	0.128554
612.8351	0.127774
613.0637	0.128006
613.2922	0.127584
613.5208	0.127035
613.7493	0.126676
613.9779	0.127520
614.2065	0.124608
614.4351	0.126423
614.6637	0.125600
614.8923	0.122244
615.1209	0.120956
615.3495	0.126549
615.5782	0.129167
615.8068	0.126866
616.0355	0.120112
616.2642	0.117579
616.4929	0.110403
616.7216	0.110340
616.9503	0.108757
617.1790	0.105168
617.4077	0.106667
617.6365	0.108271
617.8652	0.108461
618.0940	0.108735
618.3227	0.107617
618.5515	0.101433
618.7803	0.093539
619.0091	0.091090
619.2379	0.091914
619.4667	0.090985
619.6956	0.090626
619.9244	0.094995
620.1533	0.094679
620.3821	0.096874
620.6110	0.093771
620.8399	0.087270
621.0688	0.080812
621.2977	0.073530
621.5266	0.073488
621.7556	0.075577
621.9845	0.076041
622.2135	0.080600
622.4424	0.081930
622.6714	0.083492
622.9004	0.084146
623.1294	0.085898
623.3584	0.088368
623.5874	0.089064
623.8164	0.083513
624.0454	0.084315
624.2745	0.082627
624.5035	0.091491
624.7326	0.088748
624.9617	0.090710
625.1908	0.085012
625.4199	0.080959
625.6490	0.079123
625.8781	0.079144
626.1072	0.076928
626.3364	0.077435
626.5655	0.072918
626.7947	0.068464
627.0238	0.068654
627.2530	0.073213
627.4822	0.069034
627.7114	0.072559
627.9406	0.066755
628.1698	0.064538
628.3991	0.060169
628.6283	0.057299
628.8576	0.054365
629.0868	0.060275
629.3161	0.058502
629.5454	0.062470
629.7747	0.064306
630.0040	0.061415
630.2333	0.061731
630.4626	0.058544
630.6920	0.059198
630.9213	0.056011
631.1507	0.052803
631.3801	0.053859
631.6094	0.051241
631.8388	0.051051
632.0682	0.053099
632.2976	0.050313
632.5271	0.047569
632.7565	0.048033
632.9859	0.043749
633.2154	0.044529
633.4448	0.043770
633.6743	0.044445
633.9038	0.042883
634.1333	0.042229
634.3628	0.042334
634.5923	0.042144
634.8218	0.041279
635.0514	0.041174
635.2809	0.040772
635.5105	0.041300
635.7400	0.040920
635.9696	0.040772
636.1992	0.043727
636.4288	0.045437
636.6584	0.043812
636.8880	0.044698
637.1177	0.041596
637.3473	0.042377
637.5770	0.040245
637.8066	0.040182
638.0363	0.041279
638.2660	0.040899
638.4957	0.040561
638.7254	0.044930
638.9551	0.041237
639.1848	0.041427
639.4145	0.040456
639.6443	0.038161
639.8740	0.038303
640.1038	0.037799
640.3336	0.036557
640.5633	0.038909
640.7931	0.035506
641.0229	0.035299
641.2528	0.033628
641.4826	0.031892
641.7124	0.032287
641.9423	0.029649
642.1721	0.030169
642.4020	0.030387
642.6319	0.029656
642.8617	0.028500
643.0916	0.029148
643.3216	0.028838
643.5515	0.029726
643.7814	0.030344
644.0113	0.031061
644.2413	0.028003
644.4712	0.027315
644.7012	0.028404
644.9312	0.028534
645.1612	0.027579
645.3912	0.026754
645.6212	0.025689
645.8512	0.026574
646.0812	0.025354
646.3113	0.026606
646.5413	0.025821
646.7714	0.025569
647.0015	0.024872
647.2316	0.023548
647.4616	0.022874
647.6918	0.027098
647.9219	0.027513
648.1520	0.031413
648.3821	0.026580
648.6123	0.030281
648.8424	0.032354
649.0726	0.032556
649.3028	0.033653
649.5329	0.032947
649.7631	0.032554
649.9933	0.031159
650.2236	0.031910
650.4538	0.029634
650.6840	0.029380
650.9143	0.030184
651.1445	0.031257
651.3748	0.028314
651.6051	0.028587
651.8354	0.031570
652.0657	0.030069
652.2960	0.031616
652.5263	0.033165
652.7566	0.030920
652.9870	0.032851
653.2173	0.030927
653.4477	0.031333
653.6780	0.034040
653.9084	0.033744
654.1388	0.033368
654.3692	0.032858
654.5996	0.036825
654.8300	0.040102
655.0605	0.067314
655.2909	0.184711
655.5213	0.524716
655.7518	0.944998
655.9823	1.000000
656.2128	1.000000
656.4433	1.000000
656.6738	1.000000
656.9043	1.000000
657.1348	0.857412
657.3653	0.700145
657.5959	0.601946
657.8264	0.523669
658.0570	0.479719
658.2875	0.448020
658.5181	0.409758
658.7487	0.376053
658.9793	0.366775
659.2099	0.328410
659.4406	0.251936
659.6712	0.167055
659.9018	0.099281
660.1325	0.059605
660.3632	0.039276
660.5938	0.031531
660.8245	0.026986
661.0552	0.024537
661.2859	0.025124
661.5166	0.023537
661.7474	0.021658
661.9781	0.023746
662.2088	0.022509
662.4396	0.022654
662.6704	0.022987
662.9011	0.021715
663.1319	0.019822
663.3627	0.021863
663.5935	0.020404
663.8243	0.021912
664.0552	0.021294
664.2860	0.023282
664.5168	0.022836
664.7477	0.021551
664.9786	0.024834
665.2094	0.024573
665.4403	0.023849
665.6712	0.025590
665.9021	0.022784
666.1330	0.024015
666.3640	0.021924
666.5949	0.022449
666.8259	0.023005
667.0568	0.021263
667.2878	0.021521
667.5188	0.022810
667.7497	0.020088
667.9807	0.022794
668.2117	0.021015
668.4428	0.020046
668.6738	0.019033
668.9048	0.021967
669.1359	0.020890
669.3669	0.019624
669.5980	0.018780
669.8291	0.019518
670.0602	0.021165
670.2913	0.021798
670.5224	0.019582
670.7535	0.022937
670.9846	0.022135
671.2157	0.024520
671.4469	0.026272
671.6781	0.027792
671.9092	0.029291
672.1404	0.033660
672.3716	0.035116
672.6028	0.033237
672.8340	0.035158
673.0652	0.033765
673.2964	0.030261
673.5277	0.031465
673.7589	0.031211
673.9902	0.029122
674.2214	0.028024
674.4527	0.028594
674.6840	0.025808
674.9153	0.025977
675.1466	0.027074
675.3779	0.028235
675.6093	0.026673
675.8406	0.024816
676.0719	0.025386
676.3033	0.025344
676.5347	0.024774
676.7661	0.025196
676.9974	0.022536
677.2288	0.022663
677.4602	0.023507
677.6917	0.027560
677.9231	0.028763
678.1545	0.026568
678.3860	0.027032
678.6174	0.031000
678.8489	0.031148
679.0804	0.031697
679.3119	0.034652
679.5434	0.032625
679.7749	0.034905
680.0064	0.034715
680.2379	0.035960
680.4694	0.036762
680.7010	0.035095
680.9325	0.033828
681.1641	0.033681
681.3957	0.033828
681.6273	0.034884
681.8589	0.034293
682.0905	0.034061
682.3221	0.031929
682.5537	0.032879
682.7854	0.030451
683.0170	0.031802
683.2487	0.029860
683.4803	0.031971
683.7120	0.034609
683.9437	0.034673
684.1754	0.033427
684.4071	0.035200
684.6388	0.036636
684.8705	0.037881
685.1023	0.040371
685.3340	0.042271
685.5658	0.046746
685.7975	0.044930
686.0293	0.043706
686.2611	0.044867
686.4929	0.043960
686.7247	0.042524
686.9565	0.042419
687.1883	0.043727
687.4202	0.044994
687.6520	0.044466
687.8838	0.040667
688.1157	0.039844
688.3476	0.039738
688.5795	0.039379
688.8114	0.037121
689.0433	0.038008
689.2752	0.036762
689.5071	0.035749
689.7390	0.036931
689.9710	0.034504
690.2029	0.034251
690.4349	0.031507
690.6669	0.035200
690.8988	0.035306
691.1308	0.038113
691.3628	0.040878
691.5948	0.039063
691.8269	0.037290
692.0589	0.037860
692.2909	0.038282
692.5230	0.039211
692.7550	0.038978
692.9871	0.037543
693.2192	0.039654
693.4513	0.037269
693.6834	0.038387
693.9155	0.036593
694.1476	0.034863
694.3797	0.035454
694.6119	0.032372
694.8440	0.033385
695.0762	0.034884
695.3083	0.036762
695.5405	0.031929
695.7727	0.029438
696.0049	0.030958
696.2371	0.030071
696.4693	0.031802
696.7016	0.035728
696.9338	0.039738
697.1660	0.041110
697.3983	0.038577
697.6306	0.040160
697.8628	0.038050
698.0951	0.039232
698.3274	0.037881
698.5597	0.037037
698.7920	0.035981
699.0243	0.035306
699.2567	0.036530
699.4890	0.033005
699.7214	0.034504
699.9537	0.033005
700.1861	0.032077
700.4185	0.029586
700.6509	0.032056
700.8833	0.031802
701.1157	0.029966
701.3481	0.028615
701.5806	0.029966
701.8130	0.030093
702.0454	0.029586
702.2779	0.029375
702.5104	0.030050
702.7429	0.031676
702.9753	0.030599
703.2078	0.029185
703.4403	0.029291
703.6729	0.029037
703.9054	0.028066
704.1379	0.029628
704.3705	0.028235
704.6030	0.028066
704.8356	0.026504
705.0682	0.024162
705.3008	0.025365
705.5334	0.025491
705.7660	0.023824
705.9986	0.023381
706.2312	0.027623
706.4638	0.031591
706.6965	0.033385
706.9291	0.033491
707.1618	0.039021
707.3945	0.039654
707.6272	0.037607
707.8599	0.037353
708.0926	0.039021
708.3253	0.038387
708.5580	0.037923
708.7907	0.034905
709.0235	0.035137
709.2562	0.035306
709.4890	0.034483
709.7217	0.033807
709.9545	0.035116
710.1873	0.033913
710.4201	0.035665
710.6529	0.034863
710.8857	0.035010
711.1186	0.032794
711.3514	0.032541
711.5842	0.029713
711.8171	0.032752
712.0500	0.030367
712.2828	0.029882
712.5157	0.030684
712.7486	0.029670
712.9815	0.029945
713.2144	0.032245
713.4474	0.032182
713.6803	0.033638
713.9132	0.037480
714.1462	0.036382
714.3791	0.035243
714.6121	0.033237
714.8451	0.034609
715.0781	0.035918
715.3111	0.032731
715.5441	0.033871
715.7771	0.034441
716.0102	0.032710
716.2432	0.029438
716.4762	0.026990
716.7093	0.027750
716.9424	0.028404
717.1754	0.030283
717.4085	0.027560
717.6416	0.028193
717.8747	0.028721
718.1078	0.027518
718.3410	0.029586
718.5741	0.026906
718.8072	0.028657
719.0404	0.028066
719.2736	0.031633
719.5067	0.030409
719.7399	0.029924
719.9731	0.028151
720.2063	0.026779
720.4395	0.029966
720.6727	0.029185
720.9060	0.030895
721.1392	0.030916
721.3725	0.029438
721.6057	0.029692
721.8390	0.026737
722.0723	0.029333
722.3055	0.028193
722.5388	0.028151
722.7721	0.024141
723.0055	0.027940
723.2388	0.027560
723.4721	0.029375
723.7055	0.027898
723.9388	0.028425
724.1722	0.028341
724.4056	0.027834
724.6389	0.027349
724.8723	0.028657
725.1057	0.031127
725.3391	0.030367
725.5726	0.033174
725.8060	0.032499
726.0394	0.033259
726.2729	0.032942
726.5063	0.033280
726.7398	0.034103
726.9733	0.032309
727.2068	0.032161
727.4403	0.033617
727.6738	0.033216
727.9073	0.033723
728.1408	0.032499
728.3743	0.035580
728.6079	0.034588
728.8414	0.034609
729.0750	0.036467
729.3086	0.034335
729.5421	0.038535
729.7757	0.036171
730.0093	0.037353
730.2429	0.035454
730.4766	0.038155
730.7102	0.038683
730.9438	0.041997
731.1775	0.043896
731.4111	0.044150
731.6448	0.042609
731.8785	0.041680
732.1122	0.042461
732.3458	0.040857
732.5795	0.040055
732.8133	0.041596
733.0470	0.043179
733.2807	0.043917
733.5145	0.042841
733.7482	0.044952
733.9820	0.047717
734.2157	0.050861
734.4495	0.051473
734.6833	0.051769
734.9171	0.048687
735.1509	0.046914
735.3847	0.047738
735.6185	0.048139
735.8524	0.046978
736.0862	0.047611
736.3201	0.049891
736.5539	0.049004
736.7878	0.048223
737.0217	0.049004
737.2556	0.047273
737.4895	0.046999
737.7234	0.047252
737.9573	0.041110
738.1912	0.042968
738.4252	0.041089
738.6591	0.040646
738.8931	0.044804
739.1271	0.046809
739.3610	0.043727
739.5950	0.045564
739.8290	0.047062
740.0630	0.046408
740.2970	0.040709
740.5310	0.039928
740.7651	0.038725
740.9991	0.036045
741.2332	0.034947
741.4672	0.037374
741.7013	0.034588
741.9354	0.036002
742.1695	0.035580
742.4036	0.033786
742.6377	0.036024
742.8718	0.035791
743.1059	0.033385
743.3400	0.032267
743.5742	0.030599
743.8083	0.030050
744.0425	0.030916
744.2767	0.027919
744.5108	0.030156
744.7450	0.030430
744.9792	0.030705
745.2134	0.031296
745.4477	0.029523
745.6819	0.028636
745.9161	0.029734
746.1504	0.028911
746.3846	0.026758
746.6189	0.026969
746.8532	0.027475
747.0874	0.029860
747.3217	0.030135
747.5560	0.032457
747.7903	0.031275
748.0247	0.030810
748.2590	0.028974
748.4933	0.029122
748.7277	0.027898
748.9620	0.029122
749.1964	0.032879
749.4308	0.033406
749.6652	0.033132
749.8995	0.035897
750.1339	0.038198
750.3684	0.037902
750.6028	0.040815
750.8372	0.042081
751.0717	0.037944
751.3061	0.038915
751.5406	0.038873
751.7750	0.040519
752.0095	0.039844
752.2440	0.039401
752.4785	0.036804
752.7130	0.036868
752.9475	0.034968
753.1820	0.036024
753.4166	0.038957
753.6511	0.039295
753.8856	0.043263
754.1202	0.041849
754.3548	0.039105
754.5894	0.041068
754.8239	0.039506
755.0585	0.041068
755.2931	0.041997
755.5278	0.041891
755.7624	0.043052
755.9970	0.042714
756.2317	0.044234
756.4663	0.049468
756.7010	0.047822
756.9356	0.052508
757.1703	0.053141
757.4050	0.055188
757.6397	0.059747
757.8744	0.061288
758.1091	0.059177
758.3438	0.057341
758.5786	0.052951
758.8133	0.052824
759.0481	0.054048
759.2828	0.054977
759.5176	0.059832
759.7524	0.060064
759.9872	0.061963
760.2220	0.062934
760.4568	0.062913
760.6916	0.062977
760.9264	0.063335
761.1613	0.062386
761.3961	0.059325
761.6310	0.057615
761.8658	0.054977
762.1007	0.053014
762.3356	0.049004
762.5705	0.049806
762.8054	0.049194
763.0403	0.048497
763.2752	0.049405
763.5101	0.052444
763.7450	0.052655
763.9800	0.049257
764.2149	0.050545
764.4499	0.055040
764.6849	0.057848
764.9198	0.059726
765.1548	0.060233
765.3898	0.056560
765.6248	0.056054
765.8599	0.052001
766.0949	0.052001
766.3299	0.046091
766.5650	0.043200
766.8000	0.041997
767.0351	0.040224
767.2701	0.037923
767.5052	0.038493
767.7403	0.039021
767.9754	0.039780
768.2105	0.044065
768.4456	0.045796
768.6808	0.050165
768.9159	0.048096
769.1510	0.050249
769.3862	0.047400
769.6214	0.045880
769.8565	0.044318
770.0917	0.045733
770.3269	0.045036
770.5621	0.046914
770.7973	0.048033
771.0325	0.049321
771.2677	0.048329
771.5030	0.048012
771.7382	0.045416
771.9735	0.043706
772.2087	0.040245
772.4440	0.040899
772.6793	0.041511
772.9146	0.040498
773.1499	0.040139
773.3852	0.039865
773.6205	0.039591
773.8558	0.037121
774.0911	0.036826
774.3265	0.038008
774.5618	0.033174
774.7972	0.029860
775.0326	0.031739
775.2679	0.030726
775.5033	0.029143
775.7387	0.029396
775.9741	0.026293
776.2095	0.025534
776.4450	0.024732
776.6804	0.026906
776.9158	0.025597
777.1513	0.025323
777.3868	0.024668
777.6222	0.026483
777.8577	0.024141
778.0932	0.023655
778.3287	0.025977
778.5642	0.027349
778.7997	0.029206
779.0352	0.031507
779.2707	0.031908
779.5063	0.031760
779.7418	0.031950
779.9774	0.029692
780.2130	0.029438
780.4485	0.027412
780.6841	0.027898
780.9197	0.032393
781.1553	0.031042
781.3909	0.034989
781.6265	0.034525
781.8622	0.035665
782.0978	0.032858
782.3335	0.035306
782.5691	0.032963
782.8048	0.034377
783.0405	0.034673
783.2761	0.032710
783.5118	0.034631
783.7475	0.036361
783.9832	0.033427
784.2190	0.031612
784.4547	0.030768
784.6904	0.028404
784.9262	0.030705
785.1619	0.028974
785.3977	0.029713
785.6335	0.027940
785.8692	0.028615
786.1050	0.028256
786.3408	0.029354
786.5766	0.026631
786.8124	0.026990
787.0483	0.026547
787.2841	0.028425
787.5199	0.028510
787.7558	0.030093
787.9917	0.028932
788.2275	0.029417
788.4634	0.029797
788.6993	0.031106
788.9352	0.031908
789.1711	0.031633
789.4070	0.029544
789.6429	0.028932
789.8789	0.027961
790.1148	0.028277
790.3507	0.025766
790.5867	0.026209
790.8227	0.025935
791.0586	0.023634
791.2946	0.023317
791.5306	0.024689
791.7666	0.025154
792.0026	0.023212
792.2387	0.022705
792.4747	0.021587
792.7107	0.021587
792.9468	0.020932
793.1828	0.023507
793.4189	0.022684
793.6550	0.022937
793.8910	0.027243
794.1271	0.030473
794.3632	0.032077
794.5993	0.031929
794.8355	0.031612
795.0716	0.031676
795.3077	0.033048
795.5439	0.031866
795.7800	0.029164
796.0162	0.027729
796.2523	0.024774
796.4885	0.023127
796.7247	0.023106
796.9609	0.021819
797.1971	0.021228
797.4333	0.020595
797.6695	0.024119
797.9058	0.024922
798.1420	0.023191
798.3783	0.023761
798.6145	0.025048
798.8508	0.023360
799.0871	0.023127
799.3233	0.021608
799.5596	0.021945
799.7959	0.019244
800.0322	0.020215
800.2686	0.019539
800.5049	0.021333
800.7412	0.019603
800.9776	0.018590
801.2139	0.018906
801.4503	0.019729
801.6867	0.019159
801.9230	0.018590
802.1594	0.018020
802.3958	0.018273
802.6322	0.016416
802.8686	0.018484
803.1051	0.019159
803.3415	0.019666
803.5779	0.020088
803.8144	0.017576
804.0508	0.017492
804.2873	0.015529
804.5238	0.017851
804.7603	0.018674
804.9968	0.018041
805.2333	0.017175
805.4698	0.017281
805.7063	0.019645
805.9428	0.019159
806.1794	0.022832
806.4159	0.024774
806.6525	0.023908
806.8890	0.025006
807.1256	0.022347
807.3622	0.022389
807.5988	0.021798
807.8354	0.022705
808.0720	0.022135
808.3086	0.023381
808.5452	0.024162
808.7818	0.023233
809.0185	0.024309
809.2551	0.022726
809.4918	0.023212
809.7284	0.020785
809.9651	0.019413
810.2018	0.020489
810.4385	0.020088
810.6752	0.019750
810.9119	0.019560
811.1486	0.019117
811.3853	0.017956
811.6221	0.018378
811.8588	0.018632
812.0956	0.016542
812.3323	0.015213
812.5691	0.015846
812.8059	0.013545
813.0427	0.016542
813.2795	0.016922
813.5163	0.016711
813.7531	0.019603
813.9899	0.017935
814.2267	0.019497
814.4636	0.018695
814.7004	0.016289
814.9373	0.017260
815.1742	0.016183
815.4110	0.016352
815.6479	0.015846
815.8848	0.013777
816.1217	0.015487
816.3586	0.013376
816.5955	0.014157
816.8324	0.015445
817.0694	0.015466
817.3063	0.014199
817.5433	0.015381
817.7802	0.014474
818.0172	0.015445
818.2542	0.014453
818.4912	0.014178
818.7282	0.013904
818.9652	0.015213
819.2022	0.011582
819.4392	0.013081
819.6762	0.014368
819.9133	0.013207
820.1503	0.013292
820.3874	0.015445
820.6244	0.014474
820.8615	0.015761
821.0986	0.015930
821.3357	0.015698
821.5727	0.015698
821.8099	0.014790
822.0470	0.013883
822.2841	0.013904
822.5212	0.013060
822.7584	0.012680
822.9955	0.012574
823.2327	0.010865
823.4698	0.011667
823.7070	0.011477
823.9442	0.011561
824.1814	0.011097
824.4186	0.010632
824.6558	0.012131
824.8930	0.010231
825.1302	0.012785
825.3675	0.013376
825.6047	0.013862
825.8419	0.013988
826.0792	0.010738
826.3165	0.012532
826.5537	0.012933
826.7910	0.012827
827.0283	0.014031
827.2656	0.012574
827.5029	0.014263
827.7402	0.014854
827.9776	0.012849
828.2149	0.011540
828.4522	0.011709
828.6896	0.011392
828.9270	0.013334
829.1643	0.012047
829.4017	0.012426
829.6391	0.012089
829.8765	0.013397
830.1139	0.011223
830.3513	0.012089
830.5887	0.009028
830.8261	0.010105
831.0636	0.010590
831.3010	0.009725
831.5385	0.008543
831.7759	0.007910
832.0134	0.008838
832.2509	0.010569
832.4884	0.007952
832.7259	0.011139
832.9634	0.009155
833.2009	0.008775
833.4384	0.011646
833.6759	0.009556
833.9135	0.010126
834.1510	0.009239
834.3886	0.010168
834.6261	0.010485
834.8637	0.010632
835.1013	0.012194
835.3389	0.009999
835.5765	0.009788
835.8141	0.010252
836.0517	0.009662
836.2893	0.008311
836.5269	0.009028
836.7646	0.007846
837.0022	0.007488
837.2399	0.007255
837.4775	0.007889
837.7152	0.008669
837.9529	0.008184
838.1906	0.006981
838.4283	0.006306
838.6660	0.006664
838.9037	0.007087
839.1414	0.007530
839.3791	0.006749
839.6169	0.008100
839.8546	0.008564
840.0924	0.008332
840.3302	0.007171
840.5679	0.007023
840.8057	0.008606
841.0435	0.007699
841.2813	0.006728
841.5191	0.006263
841.7569	0.008522
841.9947	0.006496
842.2326	0.005609
842.4704	0.006179
842.7082	0.005440
842.9461	0.005419
843.1840	0.006770
843.4218	0.004828
843.6597	0.005419
843.8976	0.005461
844.1355	0.006538
844.3734	0.006622
844.6113	0.005419
844.8492	0.004786
845.0872	0.005841
845.3251	0.004026
845.5631	0.005567
845.8010	0.006031
846.0390	0.007108
846.2770	0.003604
846.5149	0.003266
846.7529	0.005292
846.9909	0.004406
847.2289	0.004891
847.4669	0.005229
847.7050	0.005419
847.9430	0.005820
848.1810	0.004322
848.4191	0.003541
848.6571	0.005989
848.8952	0.005398
849.1333	0.004427
849.3713	0.005736
849.6094	0.004237
849.8475	0.005398
850.0856	0.005060
850.3237	0.005461
850.5619	0.005335
850.8000	0.004448
851.0381	0.004110
851.2763	0.005229
851.5144	0.005166
851.7526	0.005778
851.9908	0.005440
852.2289	0.006854
852.4671	0.008332
852.7053	0.008881
852.9435	0.010611
853.1817	0.012595
853.4200	0.014347
853.6582	0.014980
853.8964	0.015909
854.1347	0.015170
854.3729	0.013566
854.6112	0.015360
854.8495	0.015909
855.0877	0.013334
855.3260	0.012342
855.5643	0.013123
855.8026	0.011709
856.0409	0.014199
856.2792	0.012300
856.5176	0.012448
856.7559	0.011582
856.9942	0.011561
857.2326	0.011287
857.4710	0.011730
857.7093	0.010168
857.9477	0.009894
858.1861	0.010928
858.4245	0.010358
858.6629	0.009155
858.9013	0.009197
859.1397	0.009324
859.3781	0.008859
859.6166	0.006854
859.8550	0.009239
860.0935	0.008332
860.3319	0.007361
860.5704	0.008395
860.8089	0.006559
861.0473	0.007087
861.2858	0.007466
861.5243	0.006031
861.7628	0.005672
862.0013	0.004849
862.2399	0.005757
862.4784	0.006453
862.7169	0.006200
862.9555	0.006284
863.1940	0.007255
863.4326	0.008163
863.6712	0.007720
863.9098	0.006559
864.1483	0.007910
864.3869	0.006918
864.6255	0.006538
864.8642	0.007108
865.1028	0.004596
865.3414	0.006242
865.5800	0.006306
865.8187	0.005630
866.0573	0.005060
866.2960	0.007171
866.5347	0.004596
866.7733	0.006116
867.0120	0.006010
867.2507	0.005672
867.4894	0.007044
867.7281	0.005736
867.9669	0.005292
868.2056	0.006664
868.4443	0.005926
868.6831	0.006010
868.9218	0.005419
869.1606	0.005356
869.3993	0.005039
869.6381	0.005567
869.8769	0.004744
870.1157	0.004976
870.3545	0.005546
870.5933	0.004997
870.8321	0.007002
871.0709	0.006580
871.3097	0.006010
871.5486	0.004680
871.7874	0.005862
872.0263	0.005609
872.2651	0.005799
872.5040	0.004680
872.7429	0.004153
872.9818	0.004723
873.2207	0.006770
873.4596	0.005440
873.6985	0.005947
873.9374	0.004701
874.1763	0.005208
874.4153	0.005736
874.6542	0.005609
874.8932	0.004955
875.1321	0.006791
875.3711	0.006137
875.6101	0.005757
875.8491	0.006875
876.0880	0.005778
876.3270	0.005229
876.5661	0.004512
876.8051	0.006179
877.0441	0.006538
877.2831	0.004913
877.5222	0.006284
877.7612	0.006918
878.0003	0.007825
878.2393	0.007319
878.4784	0.007108
878.7175	0.006496
878.9566	0.008057
879.1957	0.006728
879.4348	0.006390
879.6739	0.009007
879.9130	0.007635
880.1521	0.007973
880.3913	0.010084
880.6304	0.008923
880.8696	0.008121
881.1087	0.008817
881.3479	0.008036
881.5871	0.009282
881.8262	0.007488
882.0654	0.007129
882.3046	0.006791
882.5438	0.005799
882.7831	0.006137
883.0223	0.005736
883.2615	0.005757
883.5007	0.007002
883.7400	0.005461
883.9792	0.006369
884.2185	0.005504
884.4578	0.006200
884.6971	0.006369
884.9363	0.006791
885.1756	0.006812
885.4149	0.007276
885.6542	0.006812
885.8936	0.005989
886.1329	0.006179
886.3722	0.006474
886.6116	0.005799
886.8509	0.006390
887.0903	0.006622
887.3296	0.004195
887.5690	0.005081
887.8084	0.006116
888.0478	0.004575
888.2872	0.005630
888.5266	0.005482
888.7660	0.005567
889.0054	0.005271
889.2448	0.006749
889.4843	0.004596
889.7237	0.005440
889.9632	0.004343
890.2026	0.004807
890.4421	0.004364
890.6816	0.005525
890.9211	0.004364
891.1606	0.006031
891.4001	0.004406
891.6396	0.005799
891.8791	0.004701
892.1186	0.005419
892.3581	0.004765
892.5977	0.005968
892.8372	0.004258
893.0768	0.005905
893.3163	0.004659
893.5559	0.005461
893.7955	0.004132
894.0351	0.005166
894.2747	0.004744
894.5143	0.003984
894.7539	0.005102
894.9935	0.004976
895.2331	0.003899
895.4727	0.006073
895.7124	0.006580
895.9520	0.005609
896.1917	0.004322
896.4314	0.005968
896.6710	0.003963
896.9107	0.005883
897.1504	0.004554
897.3901	0.004364
897.6298	0.005229
897.8695	0.004659
898.1092	0.005525
898.3489	0.005419
898.5887	0.004533
898.8284	0.005461
899.0682	0.006306
899.3079	0.005250
899.5477	0.003520
899.7875	0.005208
900.0272	0.004659
900.2670	0.004955
900.5068	0.005039
900.7466	0.005292
900.9864	0.004089
901.2263	0.004680
901.4661	0.005862
901.7059	0.005018
901.9458	0.005356
902.1856	0.005398
902.4255	0.005757
902.6654	0.004174
902.9052	0.004849
903.1451	0.005546
903.3850	0.003984
903.6249	0.004132
903.8648	0.004026
904.1047	0.004110
904.3446	0.005419
904.5846	0.006137
904.8245	0.003921
905.0644	0.005609
905.3044	0.006791
905.5444	0.006538
905.7843	0.005187
906.0243	0.006770
906.2643	0.005250
906.5043	0.006327
906.7443	0.005018
906.9843	0.004786
907.2243	0.004153
907.4643	0.004047
907.7043	0.003815
907.9444	0.004406
908.1844	0.004026
908.4245	0.003266
908.6645	0.004216
908.9046	0.004258
909.1447	0.003414
909.3847	0.003013
909.6248	0.004258
909.8649	0.004364
910.1050	0.003330
910.3452	0.004110
910.5853	0.003709
910.8254	0.002865
911.0655	0.004047
911.3057	0.004786
911.5458	0.003878
911.7860	0.005208
912.0262	0.004849
912.2663	0.004765
912.5065	0.004891
912.7467	0.003963
912.9869	0.004026
913.2271	0.003878
913.4673	0.003963
913.7075	0.004638
913.9478	0.004132
914.1880	0.002781
914.4283	0.003330
914.6685	0.005124
914.9088	0.003140
915.1490	0.003266
915.3893	0.003140
915.6296	0.003942
915.8699	0.004026
916.1102	0.005208
916.3505	0.003182
916.5908	0.002886
916.8311	0.003520
917.0714	0.005229
917.3118	0.005250
917.5521	0.004448
917.7925	0.004934
918.0328	0.004512
918.2732	0.004026
918.5136	0.005567
918.7539	0.004089
918.9943	0.005145
919.2347	0.004596
919.4751	0.002591
919.7155	0.003752
919.9560	0.004406
920.1964	0.003583
920.4368	0.005187
920.6773	0.003245
920.9177	0.004132
921.1582	0.003287
921.3986	0.004849
921.6391	0.003899
921.8796	0.004258
922.1201	0.002654
922.3606	0.003435
922.6011	0.003667
922.8416	0.003203
923.0821	0.003899
923.3226	0.002190
923.5631	0.004490
923.8037	0.003878
924.0442	0.003583
924.2848	0.003118
924.5254	0.002675
924.7659	0.003435
925.0065	0.003562
925.2471	0.002739
925.4877	0.003330
925.7283	0.004216
925.9689	0.003752
926.2095	0.001747
926.4501	0.002190
926.6908	0.002274
926.9314	0.003393
927.1720	0.002886
927.4127	0.002105
927.6533	0.003984
927.8940	0.002992
928.1347	0.004723
928.3754	0.003541
928.6161	0.002760
928.8568	0.002760
929.0975	0.001768
929.3382	0.003393
929.5789	0.004279
929.8196	0.001156
930.0604	0.002929
930.3011	0.001451
930.5419	0.002063
930.7826	0.002633
931.0234	0.001134
931.2642	0.002485
931.5049	0.002190
931.7457	0.003583
931.9865	0.002717
932.2273	0.003182
932.4681	0.002084
932.7089	0.002591
932.9498	0.001979
933.1906	0.002464
933.4314	0.002654
933.6723	0.002000
933.9131	0.003562
934.1540	0.004258
934.3949	0.002823
934.6358	0.003245
934.8766	0.003161
935.1175	0.001894
935.3584	0.003857
935.5993	0.002380
935.8403	0.003055
936.0812	0.002380
936.3221	0.002907
936.5630	0.002401
936.8040	0.002802
937.0449	0.001346
937.2859	0.002591
937.5269	0.002148
937.7678	0.001599
938.0088	0.000902
938.2498	0.001979
938.4908	0.003963
938.7318	0.002929
938.9728	0.002253
939.2138	0.001958
939.4549	0.001789
939.6959	0.001768
939.9369	0.000691
940.1780	0.001388
940.4190	0.002422
940.6601	0.003456
940.9012	0.002549
941.1422	0.002739
941.3833	0.001346
941.6244	0.000945
941.8655	0.001177
942.1066	0.000691
942.3477	0.003161
942.5889	0.001430
942.8300	0.000121
943.0711	0.001177
943.3123	0.001409
943.5534	0.001303
943.7946	0.002760
944.0357	0.002000
944.2769	0.003308
944.5181	0.001578
944.7593	0.001768
945.0005	0.002844
945.2417	0.002105
945.4829	0.002359
945.7241	0.001725
945.9653	0.000839
946.2066	0.002126
946.4478	0.000607
946.6891	0.001008
946.9303	0.002675
947.1716	0.000480
947.4128	0.001029
947.6541	0.001388
947.8954	0.001029
948.1367	0.000797
948.3780	0.001324
948.6193	0.002232
948.8606	0.001303
949.1019	0.002781
949.3433	0.000733
949.5846	0.001472
949.8259	0.001852
950.0673	0.001768
950.3086	-0.000470
950.5500	0.001557
950.7914	0.002380
951.0327	0.001979
951.2741	0.000586
951.5155	0.001388
951.7569	0.000670
951.9983	0.001662
952.2398	0.000586
952.4812	0.001261
952.7226	0.002886
952.9640	0.001958
953.2055	0.001725
953.4469	0.001367
953.6884	0.002232
953.9299	0.002971
954.1713	0.000354
954.4128	0.002760
954.6543	0.001156
954.8958	0.002443
955.1373	0.002126
955.3788	0.002316
955.6203	0.002675
955.8618	0.001768
956.1034	0.001388
956.3449	0.002675
956.5865	0.000565
956.8280	0.002696
957.0696	0.001852
957.3111	0.002802
957.5527	0.001261
957.7943	0.002570
958.0359	0.002105
958.2775	0.001937
958.5191	0.000565
958.7607	0.000691
959.0023	0.001831
959.2439	0.001261
959.4856	0.000923
959.7272	0.002971
959.9688	0.001557
960.2105	0.001177
960.4522	0.001514
960.6938	0.002232
960.9355	0.000480
961.1772	0.002464
961.4189	0.001261
961.6606	0.000164
961.9023	0.000100
962.1440	0.001915
962.3857	0.000522
962.6274	-0.000174
962.8692	0.002359
963.1109	0.001388
963.3527	0.001937
963.5944	0.000818
963.8362	0.001789
964.0779	0.000354
964.3197	0.002274
964.5615	0.001747
964.8033	0.001388
965.0451	0.000712
965.2869	-0.000638
965.5287	0.001979
965.7705	0.001810
966.0123	0.001261
966.2542	0.000332
966.4960	0.000501
966.7379	-0.000174
966.9797	0.000966
967.2216	0.000459
967.4634	0.002042
967.7053	0.001367
967.9472	-0.000026
968.1891	0.001282
968.4310	0.000987
968.6729	0.001578
968.9148	0.001641
969.1567	0.001662
969.3987	0.002000
969.6406	0.000227
969.8825	0.000733
970.1245	0.001050
970.3664	0.000860
970.6084	0.002232
970.8504	0.000818
971.0923	0.000480
971.3343	0.000945
971.5763	0.000480
971.8183	0.000945
972.0603	0.001071
972.3023	0.001958
972.5443	0.001451
972.7864	0.001451
973.0284	-0.000449
973.2704	0.001557
973.5125	0.001071
973.7545	0.001219
973.9966	0.000417
974.2387	0.001219
974.4807	0.000354
974.7228	0.000016
974.9649	-0.000047
975.2070	0.000797
975.4491	0.000375
975.6912	0.002760
975.9333	0.000649
976.1755	0.001346
976.4176	0.000733
976.6597	0.000121
976.9019	0.000776
977.1440	0.000691
977.3862	0.001134
977.6283	0.001409
977.8705	0.000100
978.1127	0.001472
978.3549	0.000649
978.5971	0.000712
978.8393	0.001346
979.0815	0.000607
979.3237	0.000691
979.5659	0.001451
979.8082	-0.000596
980.0504	0.000712
980.2926	0.001134
980.5349	0.001578
980.7771	-0.000111
981.0194	0.000121
981.2617	0.001134
981.5040	0.001134
981.7462	-0.000259
981.9885	0.001388
982.2308	0.003118
982.4731	0.000860
982.7155	0.000459
982.9578	0.001894
983.2001	0.000100
983.4424	0.000691
983.6848	0.000016
983.9271	0.002000
984.1695	0.000670
984.4118	0.001240
984.6542	0.000058
984.8966	0.000543
985.1390	0.001071
985.3814	0.001514
985.6238	0.000417
985.8662	0.000354
986.1086	0.000227
986.3510	0.002021
986.5934	0.002148
986.8358	0.001641
987.0783	0.001514
987.3207	0.001134
987.5632	0.000480
987.8056	0.001557
988.0481	0.000227
988.2906	0.002675
988.5331	-0.000427
988.7756	0.001789
989.0180	0.000712
989.2605	0.001303
989.5031	-0.000449
989.7456	0.001367
989.9881	0.000945
990.2306	0.001641
990.4732	-0.000132
990.7157	0.001219
990.9582	0.000839
991.2008	0.001177
991.4434	0.001134
991.6859	0.001346
991.9285	0.000565
992.1711	0.001134
992.4137	-0.000195
992.6563	0.002274
992.8989	0.001113
993.1415	0.000881
993.3841	0.000185
993.6267	-0.000047
993.8694	0.001388
994.1120	0.001177
994.3547	-0.000132
994.5973	0.000396
994.8400	0.000501
995.0826	0.001388
995.3253	0.001535
995.5680	0.001535
995.8107	0.000881
996.0534	0.001747
996.2961	0.000628
996.5388	0.002021
996.7815	0.000691
997.0242	0.000607
997.2670	0.000923
997.5097	0.001578
997.7524	0.001092
997.9952	0.002316
998.2379	0.000396
998.4807	-0.000470
998.7235	0.000586
998.9662	0.002591
999.2090	0.000902
999.4518	0.001113
999.6946	-0.000575
999.9374	0.000290
1000.1802	-0.000111
1000.4230	0.000311
1000.6659	0.000649
1000.9087	0.001050
1001.1515	0.000670
1001.3944	-0.000237
1001.6372	0.000417
1001.8801	-0.000638
1002.1230	0.001451
1002.3658	0.000565
1002.6087	0.000522
1002.8516	0.000712
1003.0945	0.001177
1003.3374	0.000755
1003.5803	0.001599
1003.8232	0.000100
1004.0661	0.001578
1004.3091	-0.000554
1004.5520	0.001303
1004.7949	0.000522
1005.0379	0.000480
1005.2808	-0.000385
1005.5238	0.000733
1005.7667	0.001599
1006.0097	0.001831
1006.2527	0.000607
1006.4957	0.001451
1006.7387	-0.000026
1006.9817	0.000375
1007.2247	0.000670
1007.4677	0.001578
1007.7107	-0.000385
1007.9538	0.001240
1008.1968	0.001810
1008.4398	0.000607
1008.6829	0.001113
1008.9259	0.001134
1009.1690	0.001409
1009.4121	0.000839
1009.6551	0.000776
1009.8982	0.001071
1010.1413	0.000797
1010.3844	0.001620
1010.6275	-0.000153
1010.8706	0.001198
1011.1137	0.002253
1011.3568	0.001219
1011.6000	-0.000575
1011.8431	0.000797
1012.0863	-0.000512
1012.3294	0.001071
1012.5726	0.000923
1012.8157	0.001029
1013.0589	0.002126
1013.3021	0.000438
1013.5452	0.000332
1013.7884	-0.000069
1014.0316	0.000628
1014.2748	0.000543
1014.5180	-0.000259
1014.7613	0.001704
1015.0045	0.000079
1015.2477	0.000501
1015.4909	0.001261
1015.7342	-0.000259
1015.9774	0.000417
1016.2207	-0.000681
1016.4640	-0.000280
1016.7072	0.000206
1016.9505	0.002000
1017.1938	0.001641
1017.4371	-0.000406
1017.6804	0.000522
1017.9237	0.000375
1018.1670	0.001324
1018.4103	0.001071
1018.6536	0.000037
1018.8969	0.000016
1019.1403	0.001008
1019.3836	0.000311
1019.6270	0.000586
1019.8703	-0.000681
1020.1137	0.001979
1020.3571	-0.000216
1020.6004	0.001388
1020.8438	0.001071
1021.0872	0.000438
1021.3306	0.000797
1021.5740	0.000311
1021.8174	-0.000174
1022.0608	-0.000997
1022.3042	-0.000765
1022.5477	0.000945
1022.7911	0.000396
1023.0345	0.000290
