# Wavelength (nm)	Intensity (a.u.)
197.7802	0.000215
197.9842	0.000151
198.1882	0.001101
198.3922	0.000405
198.5963	0.001565
198.8003	-0.000102
199.0044	-0.000334
199.2085	-0.000735
199.4126	0.001375
199.6168	-0.000039
199.8209	0.000405
200.0251	0.000362
200.2292	0.000911
200.4334	0.000004
200.6376	0.000700
200.8418	0.001333
201.0461	0.000257
201.2503	0.001228
201.4546	0.001861
201.6589	-0.000946
201.8631	0.000784
202.0674	0.001776
202.2718	0.000426
202.4761	0.001502
202.6805	0.000468
202.8848	0.000995
203.0892	0.000257
203.2936	-0.000060
203.4980	0.000573
203.7024	-0.000524
203.9069	0.000890
204.1113	-0.000376
204.3158	-0.000461
204.5203	0.000763
204.7248	-0.000081
204.9293	-0.000292
205.1338	-0.000798
205.3384	-0.000461
205.5430	0.001059
205.7475	-0.000208
205.9521	0.000679
206.1567	0.001206
206.3614	0.000151
206.5660	0.000426
206.7706	0.001038
206.9753	-0.000018
207.1800	0.000890
207.3847	0.000088
207.5894	0.000594
207.7941	0.000573
207.9989	-0.000018
208.2036	-0.000208
208.4084	-0.000039
208.6132	-0.000123
208.8180	-0.000144
209.0228	-0.001094
209.2276	0.000215
209.4325	-0.001347
209.6373	0.002452
209.8422	0.000383
210.0471	-0.000355
210.2520	0.000552
210.4569	-0.000229
210.6618	-0.000798
210.8668	0.000278
211.0718	-0.000524
211.2767	-0.000630
211.4817	0.000172
211.6867	-0.000693
211.8918	-0.000250
212.0968	0.000573
212.3018	-0.001600
212.5069	-0.000271
212.7120	0.000236
212.9171	-0.000060
213.1222	-0.000482
213.3273	0.001059
213.5325	0.000341
213.7376	-0.000440
213.9428	0.000531
214.1480	0.000552
214.3532	-0.001326
214.5584	0.000320
214.7636	0.000067
214.9689	0.000215
215.1741	0.000827
215.3794	0.001840
215.5847	-0.000967
215.7900	0.002325
215.9953	-0.000545
216.2007	-0.001010
216.4060	0.000383
216.6114	0.000848
216.8168	-0.001410
217.0222	0.000405
217.2276	0.000637
217.4330	-0.000735
217.6384	0.000067
217.8439	0.000109
218.0494	0.000362
218.2548	0.000320
218.4603	0.000447
218.6659	0.000763
218.8714	-0.000967
219.0769	0.000447
219.2825	0.000447
219.4881	0.000109
219.6936	-0.000081
219.8992	0.000531
220.1049	0.000299
220.3105	-0.001579
220.5161	0.001607
220.7218	-0.000587
220.9275	0.000721
221.1332	0.000763
221.3389	-0.000862
221.5446	0.000869
221.7503	-0.000524
221.9561	-0.000334
222.1618	0.000172
222.3676	-0.000440
222.5734	0.000151
222.7792	0.000763
222.9850	0.000172
223.1909	-0.000102
223.3967	0.000383
223.6026	0.000700
223.8085	0.000616
224.0144	0.000383
224.2203	0.001291
224.4262	-0.000503
224.6322	0.000805
224.8381	0.000468
225.0441	-0.000735
225.2501	0.000594
225.4561	0.000616
225.6621	0.000130
225.8681	0.000953
226.0742	0.000721
226.2802	0.000383
226.4863	-0.000946
226.6924	-0.001010
226.8985	0.001122
227.1046	-0.000693
227.3107	-0.000039
227.5169	0.000827
227.7230	-0.000271
227.9292	0.001038
228.1354	-0.000925
228.3416	-0.000229
228.5478	0.000088
228.7541	0.000151
228.9603	0.000278
229.1666	0.000426
229.3729	-0.000503
229.5791	0.000341
229.7855	-0.000988
229.9918	0.000172
230.1981	0.000215
230.4045	0.000193
230.6108	-0.000313
230.8172	-0.000609
231.0236	-0.000587
231.2300	-0.000735
231.4364	0.001819
231.6429	0.000594
231.8493	0.000637
232.0558	0.000383
232.2623	-0.000545
232.4688	0.000151
232.6753	0.000573
232.8818	0.000109
233.0884	-0.001284
233.2949	0.000594
233.5015	0.001270
233.7081	-0.000229
233.9147	0.000088
234.1213	-0.000376
234.3279	-0.000208
234.5346	-0.000946
234.7413	-0.000123
234.9479	0.001122
235.1546	0.000932
235.3613	-0.000229
235.5680	-0.000186
235.7748	0.000447
235.9815	-0.000545
236.1883	-0.000630
236.3951	0.002262
236.6018	-0.001136
236.8087	0.000426
237.0155	0.000721
237.2223	0.000236
237.4292	0.000109
237.6360	0.000784
237.8429	-0.000566
238.0498	0.000890
238.2567	0.000088
238.4636	0.001228
238.6706	-0.000018
238.8775	0.000257
239.0845	0.000679
239.2915	0.000405
239.4985	-0.000144
239.7055	0.000383
239.9125	-0.000820
240.1195	0.000869
240.3266	-0.000883
240.5337	0.000362
240.7407	-0.000102
240.9478	0.000911
241.1549	-0.000946
241.3621	0.001291
241.5692	-0.000503
241.7764	0.001038
241.9835	0.000468
242.1907	-0.000208
242.3979	-0.000967
242.6051	0.001481
242.8124	-0.000355
243.0196	0.001143
243.2269	-0.001199
243.4341	-0.000208
243.6414	0.000827
243.8487	0.000510
244.0560	0.000088
244.2634	0.000025
244.4707	0.000827
244.6781	0.000827
244.8854	0.000236
245.0928	0.000869
245.3002	0.000784
245.5076	0.000763
245.7151	-0.000144
245.9225	0.000784
246.1300	0.000531
246.3375	0.001291
246.5449	-0.000630
246.7524	0.001080
246.9600	0.002473
247.1675	-0.000482
247.3750	-0.000651
247.5826	-0.000419
247.7902	0.000046
247.9978	0.000869
248.2054	0.000869
248.4130	0.000447
248.6206	-0.000419
248.8283	0.001312
249.0359	0.000320
249.2436	0.000742
249.4513	0.000130
249.6590	-0.000292
249.8667	0.000172
250.0745	0.001375
250.2822	-0.000587
250.4900	-0.000271
250.6978	-0.000482
250.9056	0.000658
251.1134	0.000805
251.3212	0.000130
251.5290	0.000067
251.7369	0.001354
251.9447	-0.000988
252.1526	0.000257
252.3605	0.000088
252.5684	0.001460
252.7763	-0.000018
252.9843	-0.000229
253.1922	0.000890
253.4002	0.000637
253.6082	0.000658
253.8162	0.000025
254.0242	-0.000376
254.2322	0.000911
254.4402	0.000616
254.6483	0.000679
254.8564	0.000088
255.0644	0.000974
255.2725	0.000489
255.4806	0.000974
255.6888	0.000890
255.8969	0.001650
256.1051	-0.000524
256.3132	0.001038
256.5214	-0.000208
256.7296	0.000658
256.9378	-0.000229
257.1460	0.001418
257.3543	0.000637
257.5625	0.001312
257.7708	0.000257
257.9791	0.000130
258.1874	0.000784
258.3957	-0.000925
258.6040	0.000890
258.8124	0.000067
259.0207	-0.000524
259.2291	0.001228
259.4375	-0.000988
259.6459	-0.000039
259.8543	0.000046
260.0627	0.000742
260.2711	0.000700
260.4796	0.001101
260.6881	-0.000376
260.8965	0.000552
261.1050	-0.000904
261.3135	0.000025
261.5221	-0.000672
261.7306	0.001312
261.9392	0.000890
262.1477	-0.000461
262.3563	0.000468
262.5649	-0.000081
262.7735	0.002135
262.9822	0.001249
263.1908	-0.000355
263.3995	0.000130
263.6081	-0.000039
263.8168	0.001059
264.0255	0.001038
264.2342	0.000130
264.4429	-0.000545
264.6517	-0.000039
264.8604	0.000257
265.0692	0.001481
265.2780	0.001481
265.4868	0.000700
265.6956	-0.000102
265.9044	0.001038
266.1133	0.000088
266.3221	0.001270
266.5310	0.000088
266.7399	0.000468
266.9488	0.000341
267.1577	0.001439
267.3666	0.000215
267.5755	-0.000777
267.7845	0.000658
267.9935	0.000890
268.2024	0.001819
268.4114	0.001101
268.6205	-0.000587
268.8295	0.001164
269.0385	-0.000123
269.2476	0.001502
269.4566	-0.000039
269.6657	0.001439
269.8748	0.001544
270.0839	0.000763
270.2931	0.000046
270.5022	0.001270
270.7114	-0.000397
270.9205	-0.000123
271.1297	-0.000039
271.3389	0.000552
271.5481	-0.000250
271.7573	-0.000862
271.9666	-0.000461
272.1758	-0.000208
272.3851	-0.000461
272.5944	-0.000229
272.8037	0.000700
273.0130	0.000447
273.2223	-0.000482
273.4316	0.000974
273.6410	0.000067
273.8504	0.001185
274.0597	0.000299
274.2691	0.000805
274.4785	-0.000165
274.6880	0.000763
274.8974	0.000341
275.1069	0.001713
275.3163	0.000573
275.5258	0.000637
275.7353	-0.000208
275.9448	0.000004
276.1543	0.000658
276.3639	0.001228
276.5734	-0.000461
276.7830	0.000552
276.9926	0.001502
277.2022	0.000151
277.4118	-0.000693
277.6214	0.000784
277.8310	0.000426
278.0407	0.000721
278.2503	-0.000862
278.4600	0.000594
278.6697	0.001291
278.8794	0.000658
279.0891	0.001101
279.2989	0.000405
279.5086	0.000257
279.7184	0.000362
279.9281	0.001206
280.1379	0.001987
280.3477	0.000004
280.5576	0.001038
280.7674	0.000489
280.9772	-0.000925
281.1871	0.001903
281.3970	-0.000376
281.6069	0.000236
281.8168	-0.000208
282.0267	0.000721
282.2366	0.000109
282.4466	0.000193
282.6565	0.000827
282.8665	-0.000841
283.0765	0.000742
283.2865	0.000848
283.4965	0.000594
283.7065	-0.000102
283.9166	-0.000461
284.1266	-0.000144
284.3367	0.000616
284.5468	-0.000672
284.7569	0.000763
284.9670	-0.000672
285.1771	0.001249
285.3873	0.000805
285.5974	-0.001052
285.8076	0.001038
286.0178	0.001354
286.2280	-0.001221
286.4382	0.000763
286.6484	0.000510
286.8587	0.000046
287.0689	0.000700
287.2792	-0.000419
287.4895	0.000383
287.6998	0.000341
287.9101	0.000573
288.1204	0.000911
288.3308	-0.000018
288.5411	-0.000693
288.7515	0.000067
288.9619	0.001586
289.1723	0.000890
289.3827	0.001101
289.5931	0.000426
289.8035	0.000827
290.0140	-0.000397
290.2245	-0.000334
290.4349	0.001017
290.6454	0.001396
290.8559	0.001164
291.0665	0.000637
291.2770	0.000911
291.4875	0.000637
291.6981	-0.000925
291.9087	0.000130
292.1193	-0.001010
292.3299	-0.000630
292.5405	0.001143
292.7511	0.001502
292.9618	-0.000461
293.1724	0.000426
293.3831	0.000742
293.5938	-0.000123
293.8045	-0.000144
294.0152	0.000405
294.2260	0.000193
294.4367	-0.000587
294.6475	0.000341
294.8582	-0.000988
295.0690	-0.000208
295.2798	0.000151
295.4906	-0.000967
295.7015	0.000383
295.9123	0.000805
296.1232	-0.000587
296.3340	0.000362
296.5449	0.000046
296.7558	0.001291
296.9667	0.000784
297.1777	0.000067
297.3886	-0.000081
297.5995	0.000468
297.8105	0.000172
298.0215	-0.000102
298.2325	0.001206
298.4435	0.000088
298.6545	0.001101
298.8656	0.000974
299.0766	0.001017
299.2877	-0.000039
299.4988	0.000299
299.7099	0.001354
299.9210	0.001312
300.1321	0.000953
300.3432	0.001544
300.5544	0.000637
300.7655	0.000890
300.9767	-0.000503
301.1879	0.001017
301.3991	-0.001263
301.6103	0.001819
301.8215	0.001101
302.0328	0.000046
302.2441	0.000721
302.4553	0.000911
302.6666	0.000658
302.8779	0.001228
303.0892	-0.000250
303.3006	0.001375
303.5119	0.000679
303.7233	0.000658
303.9346	0.000151
304.1460	0.000468
304.3574	0.000995
304.5688	0.000721
304.7803	-0.000123
304.9917	-0.000334
305.2031	0.000531
305.4146	0.000046
305.6261	-0.000250
305.8376	0.001375
306.0491	0.000151
306.2606	-0.000693
306.4722	-0.000798
306.6837	0.001270
306.8953	0.000700
307.1069	0.001396
307.3184	-0.000651
307.5301	0.000616
307.7417	0.000236
307.9533	0.000932
308.1650	0.000616
308.3766	0.000721
308.5883	0.001080
308.8000	0.000004
309.0117	-0.000271
309.2234	0.000130
309.4351	0.000468
309.6469	0.001059
309.8586	0.001059
310.0704	0.000405
310.2822	0.000046
310.4940	0.001903
310.7058	-0.001094
310.9176	0.000130
311.1295	0.000679
311.3413	0.000193
311.5532	0.000552
311.7651	0.000974
311.9770	0.001249
312.1889	0.001629
312.4008	0.000172
312.6127	0.000510
312.8247	0.001396
313.0366	0.001206
313.2486	0.000215
313.4606	-0.000904
313.6726	0.000531
313.8846	0.001903
314.0967	-0.000355
314.3087	0.000974
314.5208	0.000236
314.7328	0.000742
314.9449	0.002156
315.1570	0.000995
315.3692	0.000616
315.5813	0.001185
315.7934	0.000004
316.0056	0.000552
316.2177	0.000383
316.4299	0.001671
316.6421	0.000637
316.8543	0.001418
317.0666	0.001439
317.2788	0.000869
317.4911	-0.000292
317.7033	0.001734
317.9156	0.000742
318.1279	0.001565
318.3402	0.000911
318.5525	0.001544
318.7649	0.001713
318.9772	0.001354
319.1896	0.000784
319.4019	0.002431
319.6143	0.000763
319.8267	0.002473
320.0392	0.001734
320.2516	0.001734
320.4640	0.001713
320.6765	0.001439
320.8890	0.001629
321.1014	0.001903
321.3139	0.000658
321.5265	0.002979
321.7390	0.001164
321.9515	0.000130
322.1641	0.001945
322.3766	0.001882
322.5892	0.001206
322.8018	0.001439
323.0144	0.002283
323.2270	0.001122
323.4397	0.002304
323.6523	0.001481
323.8650	0.001629
324.0777	0.003422
324.2904	0.002557
324.5031	0.001607
324.7158	0.000447
324.9285	0.002768
325.1412	0.002832
325.3540	0.003676
325.5668	0.003233
325.7796	0.001987
325.9924	0.002346
326.2052	0.001460
326.4180	0.001903
326.6308	0.002958
326.8437	-0.000250
327.0566	0.002599
327.2694	0.003401
327.4823	0.001439
327.6952	0.001776
327.9082	0.002578
328.1211	0.002494
328.3340	0.000763
328.5470	0.001629
328.7600	0.002557
328.9730	0.002072
329.1860	0.003000
329.3990	0.003254
329.6120	0.003823
329.8251	0.003802
330.0381	0.003612
330.2512	0.001692
330.4643	0.003633
330.6774	0.002599
330.8905	0.003296
331.1036	0.002452
331.3167	0.003296
331.5299	0.003866
331.7431	0.002874
331.9562	0.002473
332.1694	0.003781
332.3826	0.001755
332.5959	0.003655
332.8091	0.002979
333.0223	0.003465
333.2356	0.003106
333.4489	0.002409
333.6622	0.003845
333.8755	0.003000
334.0888	0.004182
334.3021	0.004246
334.5154	0.005005
334.7288	0.005111
334.9422	0.004267
335.1555	0.003887
335.3689	0.004942
335.5823	0.004435
335.7958	0.003570
336.0092	0.005090
336.2227	0.003676
336.4361	0.004034
336.6496	0.003845
336.8631	0.004013
337.0766	0.004203
337.2901	0.004541
337.5036	0.004435
337.7172	0.004520
337.9307	0.005048
338.1443	0.004034
338.3579	0.004668
338.5715	0.005955
338.7851	0.005765
338.9987	0.004393
339.2124	0.005427
339.4260	0.004520
339.6397	0.004984
339.8533	0.005596
340.0670	0.005554
340.2807	0.007242
340.4945	0.005280
340.7082	0.004858
340.9219	0.005828
341.1357	0.006926
341.3495	0.006103
341.5633	0.006039
341.7771	0.004288
341.9909	0.006314
342.2047	0.004182
342.4185	0.004900
342.6324	0.006250
342.8463	0.006947
343.0601	0.006187
343.2740	0.006630
343.4879	0.005385
343.7019	0.006272
343.9158	0.005997
344.1297	0.005427
344.3437	0.005765
344.5577	0.006483
344.7717	0.006483
344.9857	0.006799
345.1997	0.007432
345.4137	0.006335
345.6277	0.005744
345.8418	0.008171
346.0559	0.007200
346.2699	0.008002
346.4840	0.005448
346.6981	0.007643
346.9123	0.007580
347.1264	0.007960
347.3406	0.007390
347.5547	0.007179
347.7689	0.006124
347.9831	0.006947
348.1973	0.006082
348.4115	0.007559
348.6257	0.007137
348.8400	0.008509
349.0542	0.007580
349.2685	0.007686
349.4828	0.006483
349.6971	0.007390
349.9114	0.006799
350.1257	0.008192
350.3400	0.007432
350.5544	0.008572
350.7687	0.007686
350.9831	0.007601
351.1975	0.008530
351.4119	0.007390
351.6263	0.007876
351.8407	0.008509
352.0552	0.010049
352.2696	0.009036
352.4841	0.008424
352.6986	0.007728
352.9131	0.008044
353.1276	0.008298
353.3421	0.007580
353.5566	0.008973
353.7712	0.007285
353.9858	0.009944
354.2003	0.009691
354.4149	0.009057
354.6295	0.008108
354.8441	0.009627
355.0588	0.007411
355.2734	0.009880
355.4881	0.008340
355.7027	0.009627
355.9174	0.007960
356.1321	0.009247
356.3468	0.009226
356.5615	0.008656
356.7763	0.008171
356.9910	0.009458
357.2058	0.009479
357.4206	0.007749
357.6353	0.009184
357.8501	0.009606
358.0650	0.009311
358.2798	0.009501
358.4946	0.010387
358.7095	0.009733
358.9243	0.010070
359.1392	0.008614
359.3541	0.007791
359.5690	0.010619
359.7839	0.009268
359.9989	0.010028
360.2138	0.010429
360.4288	0.011379
360.6438	0.009669
360.8587	0.008804
361.0737	0.009775
361.2888	0.008931
361.5038	0.009184
361.7188	0.009712
361.9339	0.008846
362.1489	0.009648
362.3640	0.010556
362.5791	0.009479
362.7942	0.010598
363.0093	0.010070
363.2245	0.010893
363.4396	0.010851
363.6548	0.009859
363.8699	0.010893
364.0851	0.009543
364.3003	0.010260
364.5155	0.009374
364.7308	0.010007
364.9460	0.010598
365.1612	0.009564
365.3765	0.011294
365.5918	0.011231
365.8071	0.010957
366.0224	0.008973
366.2377	0.011569
366.4530	0.009691
366.6684	0.010260
366.8837	0.010957
367.0991	0.013046
367.3145	0.011717
367.5299	0.011337
367.7453	0.011105
367.9607	0.010387
368.1761	0.012751
368.3916	0.011759
368.6070	0.011822
368.8225	0.010556
369.0380	0.010915
369.2535	0.013025
369.4690	0.012814
369.6845	0.012223
369.9001	0.013004
370.1156	0.010028
370.3312	0.011949
370.5468	0.012223
370.7624	0.011759
370.9780	0.012835
371.1936	0.012603
371.4092	0.012497
371.6249	0.013384
371.8405	0.012793
372.0562	0.011928
372.2719	0.013257
372.4876	0.011970
372.7033	0.013088
372.9190	0.013173
373.1348	0.013215
373.3505	0.013046
373.5663	0.013911
373.7820	0.013447
373.9978	0.013700
374.2136	0.013173
374.4294	0.014144
374.6453	0.013869
374.8611	0.015283
375.0770	0.016465
375.2928	0.015726
375.5087	0.015621
375.7246	0.016127
375.9405	0.015347
376.1564	0.016950
376.3724	0.015748
376.5883	0.015410
376.8043	0.016592
377.0203	0.015304
377.2362	0.016233
377.4522	0.016592
377.6682	0.015663
377.8843	0.017225
378.1003	0.018027
378.3164	0.017520
378.5324	0.018744
378.7485	0.016423
378.9646	0.017731
379.1807	0.016929
379.3968	0.018048
379.6129	0.019926
379.8291	0.018702
380.0452	0.016592
380.2614	0.018322
380.4776	0.018681
380.6938	0.019589
380.9100	0.018428
381.1262	0.019061
381.3424	0.019166
381.5587	0.019842
381.7749	0.017647
381.9912	0.019842
382.2075	0.020834
382.4238	0.019040
382.6401	0.021214
382.8564	0.019483
383.0728	0.020644
383.2891	0.021678
383.5055	0.022100
383.7219	0.021129
383.9382	0.020454
384.1546	0.021003
384.3711	0.022417
384.5875	0.021593
384.8039	0.020623
385.0204	0.020686
385.2368	0.022205
385.4533	0.023303
385.6698	0.022585
385.8863	0.022965
386.1028	0.021657
386.3194	0.021593
386.5359	0.021171
386.7525	0.023556
386.9690	0.023619
387.1856	0.020412
387.4022	0.024042
387.6188	0.024126
387.8355	0.022965
388.0521	0.023936
388.2687	0.024105
388.4854	0.024210
388.7021	0.024633
388.9188	0.025646
389.1355	0.023999
389.3522	0.024316
389.5689	0.022923
389.7856	0.023683
390.0024	0.023493
390.2192	0.024822
390.4359	0.024780
390.6527	0.024063
390.8695	0.023113
391.0863	0.026004
391.3032	0.024696
391.5200	0.025160
391.7369	0.025160
391.9537	0.026448
392.1706	0.026659
392.3875	0.028706
392.6044	0.028241
392.8213	0.029951
393.0383	0.029022
393.2552	0.029444
393.4722	0.027545
393.6891	0.028431
393.9061	0.028030
394.1231	0.026806
394.3401	0.029360
394.5572	0.028600
394.7742	0.029170
394.9912	0.029719
395.2083	0.028495
395.4254	0.028516
395.6425	0.026806
395.8596	0.028157
396.0767	0.027545
396.2938	0.027988
396.5109	0.028938
396.7281	0.029930
396.9453	0.028959
397.1624	0.030901
397.3796	0.031344
397.5968	0.031724
397.8140	0.033771
398.0313	0.031787
398.2485	0.032399
398.4658	0.032146
398.6830	0.034341
398.9003	0.033496
399.1176	0.034446
399.3349	0.032716
399.5522	0.031703
399.7696	0.031470
399.9869	0.034678
400.2043	0.032483
400.4216	0.031724
400.6390	0.031534
400.8564	0.031154
401.0738	0.031998
401.2912	0.032336
401.5087	0.030563
401.7261	0.029866
401.9436	0.031365
402.1610	0.031639
402.3785	0.030521
402.5960	0.034594
402.8135	0.031449
403.0310	0.032694
403.2486	0.030626
403.4661	0.032188
403.6837	0.031513
403.9013	0.031597
404.1189	0.031491
404.3365	0.032568
404.5541	0.034024
404.7717	0.034573
404.9893	0.034446
405.2070	0.032927
405.4246	0.034362
405.6423	0.034509
405.8600	0.035417
406.0777	0.033961
406.2954	0.034087
406.5131	0.030732
406.7309	0.031618
406.9486	0.031639
407.1664	0.032336
407.3842	0.033032
407.6020	0.031175
407.8198	0.031660
408.0376	0.031639
408.2554	0.032483
408.4733	0.034320
408.6911	0.034045
408.9090	0.032990
409.1269	0.033729
409.3448	0.035881
409.5627	0.033180
409.7806	0.033243
409.9985	0.033328
410.2165	0.032082
410.4344	0.032990
410.6524	0.030415
410.8704	0.029845
411.0884	0.031745
411.3064	0.032800
411.5244	0.030816
411.7424	0.031914
411.9605	0.030668
412.1785	0.035248
412.3966	0.035079
412.6147	0.033560
412.8328	0.034995
413.0509	0.035037
413.2690	0.035037
413.4871	0.035037
413.7053	0.035818
413.9234	0.036050
414.1416	0.032251
414.3598	0.035248
414.5780	0.032948
414.7962	0.034214
415.0144	0.033475
415.2326	0.033602
415.4509	0.035607
415.6692	0.033940
415.8874	0.032652
416.1057	0.034298
416.3240	0.034552
416.5423	0.033412
416.7606	0.034657
416.9790	0.033433
417.1973	0.032990
417.4157	0.036282
417.6341	0.032821
417.8524	0.036092
418.0708	0.034256
418.2893	0.035839
418.5077	0.034488
418.7261	0.033623
418.9446	0.033053
419.1630	0.037148
419.3815	0.035565
419.6000	0.035354
419.8185	0.037274
420.0370	0.035121
420.2555	0.035079
420.4741	0.036578
420.6926	0.038878
420.9112	0.039490
421.1298	0.039997
421.3483	0.040123
421.5669	0.043289
421.7856	0.042002
422.0042	0.044239
422.2228	0.041664
422.4415	0.041073
422.6601	0.041938
422.8788	0.041178
423.0975	0.040355
423.3162	0.041854
423.5349	0.042360
423.7536	0.040756
423.9724	0.040229
424.1911	0.039680
424.4099	0.040081
424.6287	0.038688
424.8475	0.040398
425.0663	0.038477
425.2851	0.038118
425.5039	0.037591
425.7228	0.038498
425.9416	0.036303
426.1605	0.035923
426.3793	0.035966
426.5982	0.034742
426.8171	0.036008
427.0361	0.035776
427.2550	0.036704
427.4739	0.041136
427.6929	0.040039
427.9118	0.038308
428.1308	0.036451
428.3498	0.038540
428.5688	0.038836
428.7878	0.038857
429.0068	0.038245
429.2259	0.039722
429.4449	0.040946
429.6640	0.044386
429.8831	0.044956
430.1022	0.044956
430.3213	0.047721
430.5404	0.046222
430.7595	0.043711
430.9787	0.043226
431.1978	0.046033
431.4170	0.042571
431.6362	0.038393
431.8553	0.039195
432.0745	0.036514
432.2938	0.036852
432.5130	0.037633
432.7322	0.037738
432.9515	0.036620
433.1707	0.036514
433.3900	0.040630
433.6093	0.043437
433.8286	0.043479
434.0479	0.044196
434.2673	0.043036
434.4866	0.039722
434.7059	0.040292
434.9253	0.039300
435.1447	0.040144
435.3641	0.041221
435.5835	0.039216
435.8029	0.041305
436.0223	0.040503
436.2418	0.041896
436.4612	0.040355
436.6807	0.042297
436.9001	0.043416
437.1196	0.045125
437.3391	0.041875
437.5586	0.041980
437.7782	0.042445
437.9977	0.042318
438.2173	0.044513
438.4368	0.044429
438.6564	0.043774
438.8760	0.043901
439.0956	0.045484
439.3152	0.044407
439.5348	0.042508
439.7545	0.042677
439.9741	0.041579
440.1938	0.042276
440.4135	0.040018
440.6331	0.042825
440.8528	0.042930
441.0725	0.046201
441.2923	0.048966
441.5120	0.053229
441.7318	0.051689
441.9515	0.052554
442.1713	0.052343
442.3911	0.049515
442.6109	0.049283
442.8307	0.048861
443.0505	0.048924
443.2703	0.051098
443.4902	0.049705
443.7101	0.053271
443.9299	0.050021
444.1498	0.051541
444.3697	0.049874
444.5896	0.052047
444.8095	0.051667
445.0295	0.049979
445.2494	0.047974
445.4694	0.054052
445.6894	0.049304
445.9093	0.051288
446.1293	0.048649
446.3493	0.050802
446.5694	0.050464
446.7894	0.053567
447.0094	0.047911
447.2295	0.050232
447.4496	0.049726
447.6696	0.049198
447.8897	0.048565
448.1098	0.050211
448.3300	0.045758
448.5501	0.049515
448.7702	0.050464
448.9904	0.047869
449.2106	0.048987
449.4307	0.049346
449.6509	0.050676
449.8711	0.048945
450.0914	0.046666
450.3116	0.049494
450.5318	0.046813
450.7521	0.049029
450.9724	0.048755
451.1926	0.047404
451.4129	0.045526
451.6332	0.047383
451.8535	0.047636
452.0739	0.046729
452.2942	0.045927
452.5146	0.047151
452.7349	0.048565
452.9553	0.046244
453.1757	0.044281
453.3961	0.045336
453.6165	0.044724
453.8369	0.043605
454.0574	0.045399
454.2778	0.042656
454.4983	0.041305
454.7188	0.043627
454.9393	0.043542
455.1597	0.044787
455.3803	0.045336
455.6008	0.048312
455.8213	0.044049
456.0419	0.046265
456.2624	0.043985
456.4830	0.045167
456.7036	0.044724
456.9242	0.045758
457.1448	0.046771
457.3654	0.045463
457.5860	0.046434
457.8067	0.049304
458.0274	0.045821
458.2480	0.050000
458.4687	0.049473
458.6894	0.049557
458.9101	0.050296
459.1308	0.049515
459.3516	0.048861
459.5723	0.046623
459.7931	0.051119
460.0138	0.049219
460.2346	0.049958
460.4554	0.048649
460.6762	0.048713
460.8970	0.049050
461.1178	0.049008
461.3387	0.048692
461.5595	0.048037
461.7804	0.047848
462.0013	0.046328
462.2222	0.044154
462.4431	0.043648
462.6640	0.044323
462.8849	0.044218
463.1059	0.044576
463.3268	0.045969
463.5478	0.046834
463.7687	0.048671
463.9897	0.048987
464.2107	0.047848
464.4317	0.050127
464.6528	0.052005
464.8738	0.053250
465.0948	0.051119
465.3159	0.053862
465.5370	0.054242
465.7581	0.056606
465.9792	0.057070
466.2003	0.053250
466.4214	0.048692
466.6425	0.050359
466.8637	0.049029
467.0848	0.046391
467.3060	0.046370
467.5272	0.045526
467.7484	0.046476
467.9696	0.045104
468.1908	0.044281
468.4120	0.045420
468.6333	0.043690
468.8545	0.044365
469.0758	0.042656
469.2970	0.044386
469.5183	0.041833
469.7396	0.038625
469.9610	0.040292
470.1823	0.038498
470.4036	0.039427
470.6250	0.037253
470.8463	0.038688
471.0677	0.040123
471.2891	0.040967
471.5105	0.040165
471.7319	0.038794
471.9533	0.040862
472.1748	0.041622
472.3962	0.038899
472.6177	0.041094
472.8391	0.041664
473.0606	0.044893
473.2821	0.043373
473.5036	0.045420
473.7251	0.045146
473.9467	0.045463
474.1682	0.044302
474.3898	0.042065
474.6113	0.042930
474.8329	0.046201
475.0545	0.044028
475.2761	0.050063
475.4977	0.044576
475.7193	0.048861
475.9410	0.046982
476.1626	0.044555
476.3843	0.045568
476.6060	0.047172
476.8277	0.044049
477.0494	0.045948
477.2711	0.042107
477.4928	0.043437
477.7145	0.044724
477.9363	0.045800
478.1580	0.047932
478.3798	0.046349
478.6016	0.043943
478.8234	0.045843
479.0452	0.045695
479.2670	0.043648
479.4888	0.045378
479.7107	0.047763
479.9325	0.046729
480.1544	0.050317
480.3763	0.049958
480.5982	0.049810
480.8201	0.048755
481.0420	0.049072
481.2639	0.049135
481.4859	0.049093
481.7078	0.049810
481.9298	0.051245
482.1517	0.048565
482.3737	0.048987
482.5957	0.050718
482.8177	0.048122
483.0398	0.048164
483.2618	0.047784
483.4838	0.051034
483.7059	0.049262
483.9280	0.049008
484.1501	0.050422
484.3721	0.053504
484.5943	0.057492
484.8164	0.055846
485.0385	0.057197
485.2606	0.057134
485.4828	0.078491
485.7050	0.130683
485.9271	0.178168
486.1493	0.189311
486.3715	0.159343
486.5937	0.125407
486.8160	0.108734
487.0382	0.102403
487.2605	0.096240
487.4827	0.075980
487.7050	0.066040
487.9273	0.057598
488.1496	0.053229
488.3719	0.051034
488.5942	0.053504
488.8165	0.052807
489.0389	0.051794
489.2612	0.049937
489.4836	0.051773
489.7060	0.050676
489.9284	0.050148
490.1508	0.052533
490.3732	0.050000
490.5956	0.049895
490.8180	0.049895
491.0405	0.052174
491.2630	0.050992
491.4854	0.049599
491.7079	0.047299
491.9304	0.050211
492.1529	0.049283
492.3755	0.050718
492.5980	0.050739
492.8205	0.047531
493.0431	0.049874
493.2657	0.049599
493.4882	0.050865
493.7108	0.050633
493.9334	0.050275
494.1561	0.050190
494.3787	0.049219
494.6013	0.051224
494.8240	0.053525
495.0466	0.050739
495.2693	0.048417
495.4920	0.045526
495.7147	0.046412
495.9374	0.048544
496.1601	0.051710
496.3829	0.055720
496.6056	0.055340
496.8284	0.055150
497.0511	0.050085
497.2739	0.051541
497.4967	0.047193
497.7195	0.046054
497.9423	0.046138
498.1652	0.047700
498.3880	0.049093
498.6109	0.047742
498.8337	0.050211
499.0566	0.050971
499.2795	0.051667
499.5024	0.051710
499.7253	0.053292
499.9482	0.052680
500.1712	0.052976
500.3941	0.051372
500.6171	0.050992
500.8400	0.046645
501.0630	0.049050
501.2860	0.050085
501.5090	0.052638
501.7320	0.052258
501.9551	0.052723
502.1781	0.049789
502.4012	0.055086
502.6242	0.054137
502.8473	0.055783
503.0704	0.049831
503.2935	0.051773
503.5166	0.051878
503.7397	0.054474
503.9628	0.052279
504.1860	0.050232
504.4092	0.048628
504.6323	0.048692
504.8555	0.048270
505.0787	0.050464
505.3019	0.048628
505.5251	0.050127
505.7483	0.048143
505.9716	0.046666
506.1948	0.049198
506.4181	0.049114
506.6414	0.051604
506.8647	0.050739
507.0880	0.050464
507.3113	0.047088
507.5346	0.044724
507.7579	0.047362
507.9813	0.047784
508.2046	0.049852
508.4280	0.048143
508.6514	0.049219
508.8748	0.047425
509.0982	0.047151
509.3216	0.044450
509.5450	0.045758
509.7685	0.046054
509.9919	0.045547
510.2154	0.045062
510.4388	0.047911
510.6623	0.043141
510.8858	0.045568
511.1093	0.047235
511.3329	0.046581
511.5564	0.047003
511.7799	0.045610
512.0035	0.045505
512.2270	0.044049
512.4506	0.042930
512.6742	0.043542
512.8978	0.044154
513.1214	0.043162
513.3451	0.044872
513.5687	0.045716
513.7923	0.042445
514.0160	0.043521
514.2397	0.042002
514.4634	0.043838
514.6871	0.042318
514.9108	0.043627
515.1345	0.041685
515.3582	0.039701
515.5819	0.039849
515.8057	0.043817
516.0295	0.040799
516.2532	0.040229
516.4770	0.039638
516.7008	0.043584
516.9246	0.042065
517.1485	0.041453
517.3723	0.042234
517.5961	0.041685
517.8200	0.040060
518.0439	0.039174
518.2677	0.039828
518.4916	0.037274
518.7155	0.036789
518.9395	0.037949
519.1634	0.039152
519.3873	0.042128
519.6113	0.040820
519.8352	0.042276
520.0592	0.039195
520.2832	0.037443
520.5072	0.036261
520.7312	0.036472
520.9552	0.036535
521.1792	0.038583
521.4033	0.036599
521.6273	0.036388
521.8514	0.036219
522.0755	0.035100
522.2996	0.034130
522.5237	0.035945
522.7478	0.036303
522.9719	0.036029
523.1960	0.036008
523.4202	0.034066
523.6443	0.034341
523.8685	0.036704
524.0927	0.035248
524.3169	0.037675
524.5411	0.036008
524.7653	0.035079
524.9895	0.036282
525.2138	0.033750
525.4380	0.036219
525.6623	0.033940
525.8865	0.036240
526.1108	0.036936
526.3351	0.034805
526.5594	0.034953
526.7837	0.036514
527.0081	0.035945
527.2324	0.035417
527.4568	0.035269
527.6811	0.037084
527.9055	0.035143
528.1299	0.035290
528.3543	0.035734
528.5787	0.038139
528.8031	0.037696
529.0276	0.039743
529.2520	0.039532
529.4765	0.039258
529.7009	0.036894
529.9254	0.037738
530.1499	0.035670
530.3744	0.036346
530.5989	0.037380
530.8234	0.035333
531.0480	0.036008
531.2725	0.036493
531.4971	0.035797
531.7217	0.038224
531.9462	0.036810
532.1708	0.036810
532.3954	0.037760
532.6200	0.036493
532.8447	0.037886
533.0693	0.040334
533.2940	0.044175
533.5186	0.043605
533.7433	0.041516
533.9680	0.042213
534.1927	0.041664
534.4174	0.044281
534.6421	0.044133
534.8668	0.041980
535.0916	0.044028
535.3163	0.041411
535.5411	0.045252
535.7659	0.046244
535.9907	0.042276
536.2155	0.043394
536.4403	0.041010
536.6651	0.039237
536.8899	0.039997
537.1148	0.039089
537.3396	0.038540
537.5645	0.038034
537.7894	0.040165
538.0143	0.042592
538.2392	0.043310
538.4641	0.042297
538.6890	0.042191
538.9139	0.043774
539.1389	0.044407
539.3638	0.043437
539.5888	0.043458
539.8138	0.042424
540.0388	0.042276
540.2638	0.043605
540.4888	0.043036
540.7138	0.045378
540.9389	0.045716
541.1639	0.043985
541.3890	0.043479
541.6140	0.045674
541.8391	0.044260
542.0642	0.046412
542.2893	0.046307
542.5144	0.046539
542.7396	0.048755
542.9647	0.045568
543.1899	0.042424
543.4150	0.044851
543.6402	0.046750
543.8654	0.047130
544.0906	0.048565
544.3158	0.050042
544.5410	0.047953
544.7662	0.048080
544.9915	0.047573
545.2167	0.052195
545.4420	0.048755
545.6673	0.045927
545.8926	0.044302
546.1179	0.043880
546.3432	0.043268
546.5685	0.045062
546.7938	0.044492
547.0192	0.047447
547.2445	0.044893
547.4699	0.046054
547.6953	0.050338
547.9206	0.051055
548.1460	0.053208
548.3715	0.055171
548.5969	0.053736
548.8223	0.053736
549.0478	0.053208
549.2732	0.050042
549.4987	0.045653
549.7242	0.048059
549.9496	0.048270
550.1751	0.046919
550.4007	0.046708
550.6262	0.045547
550.8517	0.042086
551.0773	0.043542
551.3028	0.043964
551.5284	0.043817
551.7540	0.043648
551.9796	0.048861
552.2052	0.052828
552.4308	0.051309
552.6564	0.050296
552.8820	0.050275
553.1077	0.048945
553.3333	0.047658
553.5590	0.048628
553.7847	0.054348
554.0104	0.051773
554.2361	0.052512
554.4618	0.048481
554.6875	0.045209
554.9132	0.045779
555.1390	0.048776
555.3648	0.050169
555.5905	0.050612
555.8163	0.051921
556.0421	0.052090
556.2679	0.052469
556.4937	0.052279
556.7195	0.048101
556.9454	0.051098
557.1712	0.049663
557.3971	0.048164
557.6230	0.048903
557.8488	0.049262
558.0747	0.048987
558.3006	0.047067
558.5266	0.047679
558.7525	0.045969
558.9784	0.044006
559.2044	0.044049
559.4303	0.046244
559.6563	0.044492
559.8823	0.048396
560.1083	0.052237
560.3343	0.052891
560.5603	0.053124
560.7863	0.055445
561.0124	0.056184
561.2384	0.058336
561.4645	0.057134
561.6905	0.056733
561.9166	0.055804
562.1427	0.055741
562.3688	0.055403
562.5949	0.051224
562.8211	0.055065
563.0472	0.053736
563.2733	0.055931
563.4995	0.054137
563.7257	0.056838
563.9519	0.058252
564.1781	0.056733
564.4043	0.058125
564.6305	0.057556
564.8567	0.058737
565.0829	0.058590
565.3092	0.059793
565.5355	0.060320
565.7617	0.058611
565.9880	0.060616
566.2143	0.061734
566.4406	0.058885
566.6669	0.062979
566.8932	0.064478
567.1196	0.068108
567.3459	0.075051
567.5723	0.077457
567.7987	0.077204
568.0250	0.076697
568.2514	0.079251
568.4778	0.085308
568.7043	0.088368
568.9307	0.092821
569.1571	0.097549
569.3836	0.105231
569.6100	0.114960
569.8365	0.124900
570.0630	0.135199
570.2895	0.137563
570.5160	0.137774
570.7425	0.139336
570.9690	0.148622
571.1956	0.160947
571.4221	0.167932
571.6487	0.167953
571.8752	0.168186
572.1018	0.181249
572.3284	0.174791
572.5550	0.163458
572.7816	0.149023
573.0082	0.150162
573.2349	0.162023
573.4615	0.175403
573.6882	0.188298
573.9149	0.194271
574.1415	0.200982
574.3682	0.208432
574.5949	0.212379
574.8216	0.214974
575.0484	0.215502
575.2751	0.218520
575.5018	0.213518
575.7286	0.204675
575.9554	0.193342
576.1821	0.191316
576.4089	0.191591
576.6357	0.204232
576.8626	0.220145
577.0894	0.224218
577.3162	0.225822
577.5431	0.232554
577.7699	0.258914
577.9968	0.291457
578.2237	0.279174
578.4505	0.270078
578.6774	0.248868
578.9044	0.233040
579.1313	0.226687
579.3582	0.223121
579.5851	0.231942
579.8121	0.238274
580.0391	0.239076
580.2660	0.240975
580.4930	0.237366
580.7200	0.224387
580.9470	0.235931
581.1741	0.272273
581.4011	0.333582
581.6281	0.356227
581.8552	0.362179
582.0822	0.354074
582.3093	0.339955
582.5364	0.320117
582.7635	0.292175
582.9906	0.264718
583.2177	0.247349
583.4449	0.231119
583.6720	0.213624
583.8991	0.210542
584.1263	0.216810
584.3535	0.219976
584.5807	0.221453
584.8079	0.226751
585.0351	0.249902
585.2623	0.260687
585.4895	0.258872
585.7167	0.256403
585.9440	0.251717
586.1713	0.239266
586.3985	0.222593
586.6258	0.216262
586.8531	0.217359
587.0804	0.232892
587.3077	0.245534
587.5350	0.251380
587.7624	0.243866
587.9897	0.234158
588.2171	0.220905
588.4445	0.210416
588.6718	0.216093
588.8992	0.203494
589.1266	0.185238
589.3540	0.179730
589.5815	0.170212
589.8089	0.172596
590.0363	0.172027
590.2638	0.166413
590.4913	0.161221
590.7187	0.155882
590.9462	0.148347
591.1737	0.140602
591.4012	0.133764
591.6288	0.138534
591.8563	0.138175
592.0838	0.137352
592.3114	0.137225
592.5389	0.160271
592.7665	0.188636
592.9941	0.210521
593.2217	0.213961
593.4493	0.209656
593.6769	0.207039
593.9046	0.201784
594.1322	0.190535
594.3598	0.179835
594.5875	0.176543
594.8152	0.186589
595.0429	0.202544
595.2705	0.202396
595.4983	0.198829
595.7260	0.190767
595.9537	0.174791
596.1814	0.165569
596.4092	0.159659
596.6369	0.149086
596.8647	0.146279
597.0925	0.150690
597.3203	0.152674
597.5481	0.156156
597.7759	0.152421
598.0037	0.146342
598.2315	0.142797
598.4594	0.144633
598.6872	0.157760
598.9151	0.179666
599.1430	0.191000
599.3709	0.187602
599.5988	0.179983
599.8267	0.183951
600.0546	0.184584
600.2825	0.187517
600.5105	0.188446
600.7384	0.183951
600.9664	0.187728
601.1944	0.190831
601.4223	0.185892
601.6503	0.177619
601.8783	0.172554
602.1064	0.171689
602.3344	0.164387
602.5624	0.171119
602.7905	0.171626
603.0185	0.174306
603.2466	0.179624
603.4747	0.186293
603.7028	0.189607
603.9309	0.184415
604.1590	0.174939
604.3871	0.166729
604.6152	0.162129
604.8434	0.156093
605.0715	0.155776
605.2997	0.157127
605.5279	0.164091
605.7561	0.171415
605.9843	0.178970
606.2125	0.172786
606.4407	0.160124
606.6689	0.154615
606.8972	0.154932
607.1254	0.155650
607.3537	0.160060
607.5819	0.156283
607.8102	0.156177
608.0385	0.149930
608.2668	0.146385
608.4951	0.141868
608.7235	0.144000
608.9518	0.141235
609.1801	0.138175
609.4085	0.132878
609.6369	0.128741
609.8653	0.136276
610.0936	0.144760
610.3220	0.148453
610.5505	0.147355
610.7789	0.140686
611.0073	0.138871
611.2357	0.134334
611.4642	0.134228
611.6927	0.136444
611.9211	0.133933
612.1496	0.130472
612.3781	0.129374
612.6066	0.127602
612.8351	0.126926
613.0637	0.127327
613.2922	0.128235
613.5208	0.126082
613.7493	0.124415
613.9779	0.124499
614.2065	0.124563
614.4351	0.125196
614.6637	0.125132
614.8923	0.124309
615.1209	0.126800
615.3495	0.125639
615.5782	0.128952
615.8068	0.126251
616.0355	0.119772
616.2642	0.120131
616.4929	0.113546
616.7216	0.111140
616.9503	0.105378
617.1790	0.109726
617.4077	0.105843
617.6365	0.110570
617.8652	0.110127
618.0940	0.109198
618.3227	0.107531
618.5515	0.100757
618.7803	0.093961
619.0091	0.089191
619.2379	0.088621
619.4667	0.087883
619.6956	0.090711
619.9244	0.090985
620.1533	0.096789
620.3821	0.096261
620.6110	0.092568
620.8399	0.085941
621.0688	0.080285
621.2977	0.074080
621.5266	0.071358
621.7556	0.075684
621.9845	0.077774
622.2135	0.080982
622.4424	0.080327
622.6714	0.081995
622.9004	0.085815
623.1294	0.088389
623.3584	0.086511
623.5874	0.086743
623.8164	0.087334
624.0454	0.084844
624.2745	0.084802
624.5035	0.084295
624.7326	0.089234
624.9617	0.088643
625.1908	0.082269
625.4199	0.080644
625.6490	0.080032
625.8781	0.075431
626.1072	0.075115
626.3364	0.071843
626.5655	0.070007
626.7947	0.069036
627.0238	0.070556
627.2530	0.067770
627.4822	0.069543
627.7114	0.069817
627.9406	0.065217
628.1698	0.062367
628.3991	0.057851
628.6283	0.059244
628.8576	0.057830
629.0868	0.057661
629.3161	0.058716
629.5454	0.063233
629.7747	0.062663
630.0040	0.060763
630.2333	0.058210
630.4626	0.056543
630.6920	0.057978
630.9213	0.054390
631.1507	0.051288
631.3801	0.050633
631.6094	0.049304
631.8388	0.051119
632.0682	0.051773
632.2976	0.050063
632.5271	0.047130
632.7565	0.047447
632.9859	0.046180
633.2154	0.044555
633.4448	0.044049
633.6743	0.043373
633.9038	0.043352
634.1333	0.041643
634.3628	0.041284
634.5923	0.040735
634.8218	0.039448
635.0514	0.039216
635.2809	0.040229
635.5105	0.041432
635.7400	0.039976
635.9696	0.037992
636.1992	0.040482
636.4288	0.045737
636.6584	0.046391
636.8880	0.042951
637.1177	0.044977
637.3473	0.041368
637.5770	0.041157
637.8066	0.039258
638.0363	0.040588
638.2660	0.041010
638.4957	0.039448
638.7254	0.042571
638.9551	0.041178
639.1848	0.039131
639.4145	0.038899
639.6443	0.038799
639.8740	0.037819
640.1038	0.036980
640.3336	0.038987
640.5633	0.035042
640.7931	0.033147
641.0229	0.034360
641.2528	0.034289
641.4826	0.033297
641.7124	0.030806
641.9423	0.032158
642.1721	0.030878
642.4020	0.030393
642.6319	0.027682
642.8617	0.030045
643.0916	0.029449
643.3216	0.029168
643.5515	0.030399
643.7814	0.028819
644.0113	0.028345
644.2413	0.027782
644.4712	0.028770
644.7012	0.027875
644.9312	0.025823
645.1612	0.024940
645.3912	0.026604
645.6212	0.025340
645.8512	0.028310
646.0812	0.026898
646.3113	0.024696
646.5413	0.023746
646.7714	0.023954
647.0015	0.024234
647.2316	0.025127
647.4616	0.024191
647.6918	0.026482
647.9219	0.027232
648.1520	0.029245
648.3821	0.029477
648.6123	0.031144
648.8424	0.032731
649.0726	0.034785
649.3028	0.033421
649.5329	0.033831
649.7631	0.031728
649.9933	0.030273
650.2236	0.028950
650.4538	0.029871
650.6840	0.028941
650.9143	0.027386
651.1445	0.028239
651.3748	0.028597
651.6051	0.028551
651.8354	0.028879
652.0657	0.028864
652.2960	0.033059
652.5263	0.031526
652.7566	0.029880
652.9870	0.031281
653.2173	0.031165
653.4477	0.029447
653.6780	0.031409
653.9084	0.031203
654.1388	0.032159
654.3692	0.031911
654.5996	0.036254
654.8300	0.040192
655.0605	0.059169
655.2909	0.174403
655.5213	0.502057
655.7518	0.936121
655.9823	1.000000
656.2128	1.000000
656.4433	1.000000
656.6738	1.000000
656.9043	1.000000
657.1348	0.832987
657.3653	0.675243
657.5959	0.586710
657.8264	0.507004
658.0570	0.464886
658.2875	0.424496
658.5181	0.386324
658.7487	0.362038
658.9793	0.348329
659.2099	0.298033
659.4406	0.220979
659.6712	0.142370
659.9018	0.082703
660.1325	0.051669
660.3632	0.035460
660.5938	0.028269
660.8245	0.025382
661.0552	0.023045
661.2859	0.022783
661.5166	0.021986
661.7474	0.020755
661.9781	0.021086
662.2088	0.021331
662.4396	0.021512
662.6704	0.022080
662.9011	0.020662
663.1319	0.020271
663.3627	0.019803
663.5935	0.020244
663.8243	0.021688
664.0552	0.022718
664.2860	0.022646
664.5168	0.022104
664.7477	0.020571
664.9786	0.022076
665.2094	0.022983
665.4403	0.023397
665.6712	0.023020
665.9021	0.022374
666.1330	0.020305
666.3640	0.020458
666.5949	0.021105
666.8259	0.021075
667.0568	0.020571
667.2878	0.020248
667.5188	0.019970
667.7497	0.020475
667.9807	0.021989
668.2117	0.020980
668.4428	0.021066
668.6738	0.019736
668.9048	0.019652
669.1359	0.019314
669.3669	0.022332
669.5980	0.019166
669.8291	0.022205
670.0602	0.020855
670.2913	0.021129
670.5224	0.021636
670.7535	0.022522
670.9846	0.020876
671.2157	0.022628
671.4469	0.024590
671.6781	0.028284
671.9092	0.028748
672.1404	0.029803
672.3716	0.031238
672.6028	0.034932
672.8340	0.030014
673.0652	0.030879
673.2964	0.030056
673.5277	0.028748
673.7589	0.027672
673.9902	0.027735
674.2214	0.027883
674.4527	0.027735
674.6840	0.025920
674.9153	0.024020
675.1466	0.025371
675.3779	0.027735
675.6093	0.024590
675.8406	0.023197
676.0719	0.024822
676.3033	0.025245
676.5347	0.024780
676.7661	0.022585
676.9974	0.023999
677.2288	0.023704
677.4602	0.024253
677.6917	0.025878
677.9231	0.029043
678.1545	0.026743
678.3860	0.027418
678.6174	0.028115
678.8489	0.029149
679.0804	0.029761
679.3119	0.032441
679.5434	0.033391
679.7749	0.033665
680.0064	0.036008
680.2379	0.033750
680.4694	0.032547
680.7010	0.033855
680.9325	0.031681
681.1641	0.031428
681.3957	0.035206
681.6273	0.035248
681.8589	0.033285
682.0905	0.031977
682.3221	0.030373
682.5537	0.032167
682.7854	0.027735
683.0170	0.028241
683.2487	0.029803
683.4803	0.028896
683.7120	0.030331
683.9437	0.031956
684.1754	0.031196
684.4071	0.034805
684.6388	0.034193
684.8705	0.037844
685.1023	0.040165
685.3340	0.041115
685.5658	0.043753
685.7975	0.041664
686.0293	0.042403
686.2611	0.043352
686.4929	0.043880
686.7247	0.041094
686.9565	0.041432
687.1883	0.041368
687.4202	0.042170
687.6520	0.041791
687.8838	0.039575
688.1157	0.038857
688.3476	0.039575
688.5795	0.034953
688.8114	0.034256
689.0433	0.035522
689.2752	0.036535
689.5071	0.035797
689.7390	0.036915
689.9710	0.034130
690.2029	0.032821
690.4349	0.033243
690.6669	0.031597
690.8988	0.033665
691.1308	0.035881
691.3628	0.036747
691.5948	0.036873
691.8269	0.035544
692.0589	0.037548
692.2909	0.034320
692.5230	0.035248
692.7550	0.033982
692.9871	0.039216
693.2192	0.038540
693.4513	0.038878
693.6834	0.040271
693.9155	0.037633
694.1476	0.034108
694.3797	0.032209
694.6119	0.031238
694.8440	0.034362
695.0762	0.034763
695.3083	0.035522
695.5405	0.032948
695.7727	0.029782
696.0049	0.029170
696.2371	0.027207
696.4693	0.031112
696.7016	0.033454
696.9338	0.038498
697.1660	0.038435
697.3983	0.037570
697.6306	0.035333
697.8628	0.036641
698.0951	0.036915
698.3274	0.038182
698.5597	0.037570
698.7920	0.033644
699.0243	0.035712
699.2567	0.032315
699.4890	0.035670
699.7214	0.033011
699.9537	0.030267
700.1861	0.030816
700.4185	0.030753
700.6509	0.030922
700.8833	0.030331
701.1157	0.028094
701.3481	0.027144
701.5806	0.026996
701.8130	0.027503
702.0454	0.028790
702.2779	0.029043
702.5104	0.027967
702.7429	0.029064
702.9753	0.029951
703.2078	0.027376
703.4403	0.026574
703.6729	0.027587
703.9054	0.027144
704.1379	0.026827
704.3705	0.028917
704.6030	0.026215
704.8356	0.025983
705.0682	0.021488
705.3008	0.024020
705.5334	0.023472
705.7660	0.021931
705.9986	0.023894
706.2312	0.025245
706.4638	0.031196
706.6965	0.032652
706.9291	0.034383
707.1618	0.035923
707.3945	0.035438
707.6272	0.037506
707.8599	0.035501
708.0926	0.036662
708.3253	0.036683
708.5580	0.038139
708.7907	0.035333
709.0235	0.033180
709.2562	0.033391
709.4890	0.033496
709.7217	0.033560
709.9545	0.032779
710.1873	0.032842
710.4201	0.035480
710.6529	0.034277
710.8857	0.032146
711.1186	0.030542
711.3514	0.031196
711.5842	0.029782
711.8171	0.030141
712.0500	0.027228
712.2828	0.028030
712.5157	0.025329
712.7486	0.026300
712.9815	0.027545
713.2144	0.027735
713.4474	0.029993
713.6803	0.032293
713.9132	0.031724
714.1462	0.033623
714.3791	0.033792
714.6121	0.034151
714.8451	0.033496
715.0781	0.035649
715.3111	0.032884
715.5441	0.033412
715.7771	0.033306
716.0102	0.030879
716.2432	0.030690
716.4762	0.026785
716.7093	0.026089
716.9424	0.028875
717.1754	0.026004
717.4085	0.024949
717.6416	0.027862
717.8747	0.025688
718.1078	0.027840
718.3410	0.028558
718.5741	0.027503
718.8072	0.026870
719.0404	0.027439
719.2736	0.031703
719.5067	0.028685
719.7399	0.028811
719.9731	0.027355
720.2063	0.027439
720.4395	0.026680
720.6727	0.028790
720.9060	0.030099
721.1392	0.029550
721.3725	0.027925
721.6057	0.028389
721.8390	0.030605
722.0723	0.028621
722.3055	0.029086
722.5388	0.026574
722.7721	0.026637
723.0055	0.026680
723.2388	0.027566
723.4721	0.027925
723.7055	0.026215
723.9388	0.027714
724.1722	0.027017
724.4056	0.026152
724.6389	0.025118
724.8723	0.027271
725.1057	0.028685
725.3391	0.030077
725.5726	0.032758
725.8060	0.031323
726.0394	0.032905
726.2729	0.033264
726.5063	0.032441
726.7398	0.032821
726.9733	0.032884
727.2068	0.030605
727.4403	0.031217
727.6738	0.029508
727.9073	0.031154
728.1408	0.032758
728.3743	0.032251
728.6079	0.032969
728.8414	0.033391
729.0750	0.031998
729.3086	0.033644
729.5421	0.034699
729.7757	0.034256
730.0093	0.035818
730.2429	0.034425
730.4766	0.038203
730.7102	0.036557
730.9438	0.040292
731.1775	0.041368
731.4111	0.041537
731.6448	0.043268
731.8785	0.041959
732.1122	0.042128
732.3458	0.038963
732.5795	0.039807
732.8133	0.041031
733.0470	0.040482
733.2807	0.041031
733.5145	0.041875
733.7482	0.043943
733.9820	0.046856
734.2157	0.048713
734.4495	0.050275
734.6833	0.047636
734.9171	0.050106
735.1509	0.045990
735.3847	0.046244
735.6185	0.047890
735.8524	0.044998
736.0862	0.045927
736.3201	0.046856
736.5539	0.044661
736.7878	0.045885
737.0217	0.047257
737.2556	0.048565
737.4895	0.046244
737.7234	0.042529
737.9573	0.040503
738.1912	0.039701
738.4252	0.038118
738.6591	0.039068
738.8931	0.042044
739.1271	0.043331
739.3610	0.042888
739.5950	0.043690
739.8290	0.044196
740.0630	0.043205
740.2970	0.039511
740.5310	0.039385
740.7651	0.038329
740.9991	0.036409
741.2332	0.035375
741.4672	0.034531
741.7013	0.032821
741.9354	0.030521
742.1695	0.031892
742.4036	0.033201
742.6377	0.033707
742.8718	0.035923
743.1059	0.029845
743.3400	0.032146
743.5742	0.030732
743.8083	0.027650
744.0425	0.029402
744.2767	0.028558
744.5108	0.030183
744.7450	0.031259
744.9792	0.029930
745.2134	0.029360
745.4477	0.028389
745.6819	0.028262
745.9161	0.028157
746.1504	0.028558
746.3846	0.025835
746.6189	0.025582
746.8532	0.027482
747.0874	0.029592
747.3217	0.030246
747.5560	0.030943
747.7903	0.029402
748.0247	0.029128
748.2590	0.029212
748.4933	0.027439
748.7277	0.028178
748.9620	0.027840
749.1964	0.030394
749.4308	0.031956
749.6652	0.033518
749.8995	0.036261
750.1339	0.037654
750.3684	0.035712
750.6028	0.036810
750.8372	0.038540
751.0717	0.039110
751.3061	0.035670
751.5406	0.039870
751.7750	0.040018
752.0095	0.039152
752.2440	0.038182
752.4785	0.037907
752.7130	0.035100
752.9475	0.036430
753.1820	0.035691
753.4166	0.036282
753.6511	0.039068
753.8856	0.040862
754.1202	0.040566
754.3548	0.040250
754.5894	0.037485
754.8239	0.038984
755.0585	0.038688
755.2931	0.040651
755.5278	0.039237
755.7624	0.041748
755.9970	0.042972
756.2317	0.041411
756.4663	0.046623
756.7010	0.046729
756.9356	0.050781
757.1703	0.051625
757.4050	0.055086
757.6397	0.056015
757.8744	0.056775
758.1091	0.057471
758.3438	0.057218
758.5786	0.051625
758.8133	0.052723
759.0481	0.052005
759.2828	0.056184
759.5176	0.057007
759.7524	0.057007
759.9872	0.058315
760.2220	0.057598
760.4568	0.061164
760.6916	0.061291
760.9264	0.060151
761.1613	0.059898
761.3961	0.058843
761.6310	0.053060
761.8658	0.050464
762.1007	0.047932
762.3356	0.045209
762.5705	0.047109
762.8054	0.045927
763.0403	0.047826
763.2752	0.048818
763.5101	0.047594
763.7450	0.046898
763.9800	0.045716
764.2149	0.048016
764.4499	0.052111
764.6849	0.055614
764.9198	0.056838
765.1548	0.055698
765.3898	0.054517
765.6248	0.054706
765.8599	0.052491
766.0949	0.047869
766.3299	0.044154
766.5650	0.041347
766.8000	0.039575
767.0351	0.038203
767.2701	0.039047
767.5052	0.037316
767.7403	0.037992
767.9754	0.037063
768.2105	0.039131
768.4456	0.045484
768.6808	0.045399
768.9159	0.046011
769.1510	0.047088
769.3862	0.044640
769.6214	0.045041
769.8565	0.042403
770.0917	0.042888
770.3269	0.043057
770.5621	0.042213
770.7973	0.044766
771.0325	0.046075
771.2677	0.046201
771.5030	0.044006
771.7382	0.043205
771.9735	0.042804
772.2087	0.038350
772.4440	0.039385
772.6793	0.039068
772.9146	0.040229
773.1499	0.038899
773.3852	0.037781
773.6205	0.038646
773.8558	0.037675
774.0911	0.035628
774.3265	0.034910
774.5618	0.030457
774.7972	0.028896
775.0326	0.028832
775.2679	0.029381
775.5033	0.028663
775.7387	0.027650
775.9741	0.026659
776.2095	0.025730
776.4450	0.025266
776.6804	0.024274
776.9158	0.023261
777.1513	0.021678
777.3868	0.024464
777.6222	0.023936
777.8577	0.023092
778.0932	0.024928
778.3287	0.024970
778.5642	0.025181
778.7997	0.026215
779.0352	0.029107
779.2707	0.030225
779.5063	0.030563
779.7418	0.029381
779.9774	0.029339
780.2130	0.025498
780.4485	0.029001
780.6841	0.027461
780.9197	0.027228
781.1553	0.032146
781.3909	0.033370
781.6265	0.036261
781.8622	0.036958
782.0978	0.034024
782.3335	0.034847
782.5691	0.032716
782.8048	0.032462
783.0405	0.033243
783.2761	0.031935
783.5118	0.034784
783.7475	0.032357
783.9832	0.033306
784.2190	0.029149
784.4547	0.029866
784.6904	0.027439
784.9262	0.028474
785.1619	0.027397
785.3977	0.024611
785.6335	0.027693
785.8692	0.029761
786.1050	0.028790
786.3408	0.029888
786.5766	0.025835
786.8124	0.026701
787.0483	0.025730
787.2841	0.025751
787.5199	0.028009
787.7558	0.028178
787.9917	0.028157
788.2275	0.026490
788.4634	0.028157
788.6993	0.028115
788.9352	0.030858
789.1711	0.030289
789.4070	0.029444
789.6429	0.027819
789.8789	0.027017
790.1148	0.025540
790.3507	0.026068
790.5867	0.025012
790.8227	0.023957
791.0586	0.024105
791.2946	0.022923
791.5306	0.021889
791.7666	0.021783
792.0026	0.021593
792.2387	0.022480
792.4747	0.022079
792.7107	0.023366
792.9468	0.021931
793.1828	0.021340
793.4189	0.019715
793.6550	0.026047
793.8910	0.026363
794.1271	0.028220
794.3632	0.029761
794.5993	0.028516
794.8355	0.032357
795.0716	0.032125
795.3077	0.030521
795.5439	0.030415
795.7800	0.027883
796.0162	0.026659
796.2523	0.024569
796.4885	0.020960
796.7247	0.020791
796.9609	0.019567
797.1971	0.021868
797.4333	0.023155
797.6695	0.022438
797.9058	0.022606
798.1420	0.022754
798.3783	0.022417
798.6145	0.021636
798.8508	0.022058
799.0871	0.020791
799.3233	0.021087
799.5596	0.021572
799.7959	0.020813
800.0322	0.018934
800.2686	0.019483
800.5049	0.019800
800.7412	0.017288
800.9776	0.017795
801.2139	0.019631
801.4503	0.018343
801.6867	0.018892
801.9230	0.015790
802.1594	0.015642
802.3958	0.016001
802.6322	0.015600
802.8686	0.016972
803.1051	0.016845
803.3415	0.016338
803.5779	0.018723
803.8144	0.018723
804.0508	0.016697
804.2873	0.016212
804.5238	0.017140
804.7603	0.017330
804.9968	0.018069
805.2333	0.015579
805.4698	0.016866
805.7063	0.016908
805.9428	0.019040
806.1794	0.021467
806.4159	0.023261
806.6525	0.022860
806.8890	0.021720
807.1256	0.022775
807.3622	0.020813
807.5988	0.022860
807.8354	0.019525
808.0720	0.021910
808.3086	0.022459
808.5452	0.022079
808.7818	0.022543
809.0185	0.020897
809.2551	0.020855
809.4918	0.020285
809.7284	0.018449
809.9651	0.019399
810.2018	0.019293
810.4385	0.019778
810.6752	0.017204
810.9119	0.017731
811.1486	0.019884
811.3853	0.017457
811.6221	0.016444
811.8588	0.017246
812.0956	0.015051
812.3323	0.015220
812.5691	0.015368
812.8059	0.014671
813.0427	0.013363
813.2795	0.014122
813.5163	0.017478
813.7531	0.017309
813.9899	0.019293
814.2267	0.019567
814.4636	0.015937
814.7004	0.015980
814.9373	0.017098
815.1742	0.015663
815.4110	0.014734
815.6479	0.015030
815.8848	0.013553
816.1217	0.013553
816.3586	0.014038
816.5955	0.013679
816.8324	0.014249
817.0694	0.014587
817.3063	0.013405
817.5433	0.014882
817.7802	0.012856
818.0172	0.013954
818.2542	0.012054
818.4912	0.013468
818.7282	0.012835
818.9652	0.012413
819.2022	0.012434
819.4392	0.012519
819.6762	0.012898
819.9133	0.011906
820.1503	0.010830
820.3874	0.014038
820.6244	0.014312
820.8615	0.015494
821.0986	0.015410
821.3357	0.015199
821.5727	0.014924
821.8099	0.012392
822.0470	0.013447
822.2841	0.012434
822.5212	0.013848
822.7584	0.012856
822.9955	0.010851
823.2327	0.011168
823.4698	0.010577
823.7070	0.010218
823.9442	0.010893
824.1814	0.011843
824.4186	0.010893
824.6558	0.011379
824.8930	0.010830
825.1302	0.012624
825.3675	0.011632
825.6047	0.012603
825.8419	0.012434
826.0792	0.012350
826.3165	0.011126
826.5537	0.013764
826.7910	0.011484
827.0283	0.012983
827.2656	0.012666
827.5029	0.012392
827.7402	0.013363
827.9776	0.012603
828.2149	0.010598
828.4522	0.012919
828.6896	0.011273
828.9270	0.013721
829.1643	0.012160
829.4017	0.011105
829.6391	0.011041
829.8765	0.010915
830.1139	0.011105
830.3513	0.010260
830.5887	0.010197
830.8261	0.009627
831.0636	0.009522
831.3010	0.007918
831.5385	0.007031
831.7759	0.008867
832.0134	0.009078
832.2509	0.007538
832.4884	0.007833
832.7259	0.008867
832.9634	0.006968
833.2009	0.009268
833.4384	0.008614
833.6759	0.008192
833.9135	0.008952
834.1510	0.010556
834.3886	0.009268
834.6261	0.010007
834.8637	0.010957
835.1013	0.009374
835.3389	0.009522
835.5765	0.008952
835.8141	0.009311
836.0517	0.009268
836.2893	0.008171
836.5269	0.010049
836.7646	0.007728
837.0022	0.008677
837.2399	0.006504
837.4775	0.007453
837.7152	0.006208
837.9529	0.006673
838.1906	0.006736
838.4283	0.006694
838.6660	0.006018
838.9037	0.006841
839.1414	0.007643
839.3791	0.007200
839.6169	0.007939
839.8546	0.008994
840.0924	0.007580
840.3302	0.008424
840.5679	0.006377
840.8057	0.007770
841.0435	0.007137
841.2813	0.006525
841.5191	0.005723
841.7569	0.006567
841.9947	0.005638
842.2326	0.005660
842.4704	0.005090
842.7082	0.006778
842.9461	0.004794
843.1840	0.005575
843.4218	0.005596
843.6597	0.004077
843.8976	0.005660
844.1355	0.006504
844.3734	0.005512
844.6113	0.005470
844.8492	0.004984
845.0872	0.004077
845.3251	0.004984
845.5631	0.004309
845.8010	0.004013
846.0390	0.006778
846.2770	0.005259
846.5149	0.005005
846.7529	0.003823
846.9909	0.004246
847.2289	0.005005
847.4669	0.005174
847.7050	0.004731
847.9430	0.004414
848.1810	0.005554
848.4191	0.004879
848.6571	0.005744
848.8952	0.004351
849.1333	0.002916
849.3713	0.006314
849.6094	0.005111
849.8475	0.004224
850.0856	0.004203
850.3237	0.006124
850.5619	0.004224
850.8000	0.004161
851.0381	0.003465
851.2763	0.003908
851.5144	0.004520
851.7526	0.004731
851.9908	0.005575
852.2289	0.005955
852.4671	0.006335
852.7053	0.008910
852.9435	0.009374
853.1817	0.011294
853.4200	0.013320
853.6582	0.014355
853.8964	0.015009
854.1347	0.013679
854.3729	0.013911
854.6112	0.014186
854.8495	0.012561
855.0877	0.013721
855.3260	0.012919
855.5643	0.012730
855.8026	0.010915
856.0409	0.011083
856.2792	0.012033
856.5176	0.012244
856.7559	0.012202
856.9942	0.011379
857.2326	0.010345
857.4710	0.011041
857.7093	0.010450
857.9477	0.010028
858.1861	0.010767
858.4245	0.010408
858.6629	0.009754
858.9013	0.007960
859.1397	0.008002
859.3781	0.009944
859.6166	0.009986
859.8550	0.009205
860.0935	0.008108
860.3319	0.007749
860.5704	0.005617
860.8089	0.007939
861.0473	0.006440
861.2858	0.007475
861.5243	0.004815
861.7628	0.005343
862.0013	0.007095
862.2399	0.005280
862.4784	0.005575
862.7169	0.006103
862.9555	0.005976
863.1940	0.005259
863.4326	0.008044
863.6712	0.008424
863.9098	0.007538
864.1483	0.005132
864.3869	0.006673
864.6255	0.005660
864.8642	0.005280
865.1028	0.005132
865.3414	0.004478
865.5800	0.005301
865.8187	0.004668
866.0573	0.003845
866.2960	0.004478
866.5347	0.005111
866.7733	0.005005
867.0120	0.005512
867.2507	0.004246
867.4894	0.004393
867.7281	0.005849
867.9669	0.005533
868.2056	0.005491
868.4443	0.005237
868.6831	0.005216
868.9218	0.005216
869.1606	0.004056
869.3993	0.003064
869.6381	0.004794
869.8769	0.004752
870.1157	0.005470
870.3545	0.003929
870.5933	0.003760
870.8321	0.005871
871.0709	0.004984
871.3097	0.005892
871.5486	0.005132
871.7874	0.005343
872.0263	0.004879
872.2651	0.005744
872.5040	0.004435
872.7429	0.004034
872.9818	0.004372
873.2207	0.005660
873.4596	0.004900
873.6985	0.005448
873.9374	0.005786
874.1763	0.004288
874.4153	0.003296
874.6542	0.004794
874.8932	0.003612
875.1321	0.006862
875.3711	0.006187
875.6101	0.006335
875.8491	0.004161
876.0880	0.005617
876.3270	0.006061
876.5661	0.005723
876.8051	0.007749
877.0441	0.004182
877.2831	0.006525
877.5222	0.005364
877.7612	0.005385
878.0003	0.005195
878.2393	0.007221
878.4784	0.007475
878.7175	0.007390
878.9566	0.006905
879.1957	0.006546
879.4348	0.007686
879.6739	0.005448
879.9130	0.008720
880.1521	0.007538
880.3913	0.008192
880.6304	0.006799
880.8696	0.008635
881.1087	0.008319
881.3479	0.008234
881.5871	0.007601
881.8262	0.007179
882.0654	0.007116
882.3046	0.006124
882.5438	0.006609
882.7831	0.006736
883.0223	0.006250
883.2615	0.006103
883.5007	0.005828
883.7400	0.005786
883.9792	0.006546
884.2185	0.006335
884.4578	0.004773
884.6971	0.006483
884.9363	0.006039
885.1756	0.005786
885.4149	0.006419
885.6542	0.006546
885.8936	0.007010
886.1329	0.006398
886.3722	0.006694
886.6116	0.006039
886.8509	0.006525
887.0903	0.006082
887.3296	0.005617
887.5690	0.003528
887.8084	0.005828
888.0478	0.005343
888.2872	0.004414
888.5266	0.006398
888.7660	0.004625
889.0054	0.003760
889.2448	0.005280
889.4843	0.005533
889.7237	0.003401
889.9632	0.003655
890.2026	0.004499
890.4421	0.003718
890.6816	0.004056
890.9211	0.004098
891.1606	0.005765
891.4001	0.005280
891.6396	0.003929
891.8791	0.005702
892.1186	0.005660
892.3581	0.004710
892.5977	0.004858
892.8372	0.003233
893.0768	0.004815
893.3163	0.004942
893.5559	0.005153
893.7955	0.004794
894.0351	0.003760
894.2747	0.005512
894.5143	0.004013
894.7539	0.003591
894.9935	0.004013
895.2331	0.004203
895.4727	0.002789
895.7124	0.004773
895.9520	0.004773
896.1917	0.005195
896.4314	0.004267
896.6710	0.005702
896.9107	0.004414
897.1504	0.004731
897.3901	0.004541
897.6298	0.003190
897.8695	0.006462
898.1092	0.003845
898.3489	0.005301
898.5887	0.003887
898.8284	0.005322
899.0682	0.004794
899.3079	0.003085
899.5477	0.004815
899.7875	0.003739
900.0272	0.003296
900.2670	0.004351
900.5068	0.002642
900.7466	0.005174
900.9864	0.003570
901.2263	0.004478
901.4661	0.003507
901.7059	0.005807
901.9458	0.004414
902.1856	0.003992
902.4255	0.003718
902.6654	0.004731
902.9052	0.003570
903.1451	0.004435
903.3850	0.004689
903.6249	0.004435
903.8648	0.004520
904.1047	0.003633
904.3446	0.003992
904.5846	0.005195
904.8245	0.004520
905.0644	0.002599
905.3044	0.004773
905.5444	0.004520
905.7843	0.004773
906.0243	0.002937
906.2643	0.006061
906.5043	0.004773
906.7443	0.004879
906.9843	0.005343
907.2243	0.004119
907.4643	0.003085
907.7043	0.004330
907.9444	0.005216
908.1844	0.002853
908.4245	0.004013
908.6645	0.004056
908.9046	0.004056
909.1447	0.001903
909.3847	0.003570
909.6248	0.003211
909.8649	0.002536
910.1050	0.003401
910.3452	0.002241
910.5853	0.004267
910.8254	0.004098
911.0655	0.003866
911.3057	0.004499
911.5458	0.002663
911.7860	0.004246
912.0262	0.002663
912.2663	0.002409
912.5065	0.001544
912.7467	0.004625
912.9869	0.003823
913.2271	0.004478
913.4673	0.003296
913.7075	0.003549
913.9478	0.002536
914.1880	0.003233
914.4283	0.003254
914.6685	0.003655
914.9088	0.003760
915.1490	0.004119
915.3893	0.002388
915.6296	0.003465
915.8699	0.002093
916.1102	0.003570
916.3505	0.004034
916.5908	0.003233
916.8311	0.002747
917.0714	0.005406
917.3118	0.004203
917.5521	0.004393
917.7925	0.004013
918.0328	0.004731
918.2732	0.004246
918.5136	0.003802
918.7539	0.003887
918.9943	0.002620
919.2347	0.003338
919.4751	0.004562
919.7155	0.002409
919.9560	0.003823
920.1964	0.002937
920.4368	0.004963
920.6773	0.003486
920.9177	0.002198
921.1582	0.001481
921.3986	0.003549
921.6391	0.003718
921.8796	0.002283
922.1201	0.002642
922.3606	0.003401
922.6011	0.002494
922.8416	0.003359
923.0821	0.001713
923.3226	0.003422
923.5631	0.003338
923.8037	0.003190
924.0442	0.001502
924.2848	0.005575
924.5254	0.004330
924.7659	0.002557
925.0065	0.003507
925.2471	0.003085
925.4877	0.002958
925.7283	0.002156
925.9689	0.003971
926.2095	0.002663
926.4501	0.002156
926.6908	0.001418
926.9314	0.003254
927.1720	0.001439
927.4127	0.002979
927.6533	0.003338
927.8940	0.001650
928.1347	0.004203
928.3754	0.003317
928.6161	0.004140
928.8568	0.000953
929.0975	0.001882
929.3382	0.001439
929.5789	0.001903
929.8196	0.002832
930.0604	0.002156
930.3011	0.002346
930.5419	0.002093
930.7826	0.001692
931.0234	0.001924
931.2642	0.002346
931.5049	0.002452
931.7457	0.000531
931.9865	0.002747
932.2273	0.001396
932.4681	0.002030
932.7089	0.001671
932.9498	0.002895
933.1906	0.002114
933.4314	0.003064
933.6723	0.002072
933.9131	0.003000
934.1540	0.003106
934.3949	0.002536
934.6358	0.001375
934.8766	0.001080
935.1175	0.000763
935.3584	0.003739
935.5993	0.002283
935.8403	0.003043
936.0812	0.001481
936.3221	0.002853
936.5630	0.000447
936.8040	0.002494
937.0449	0.001185
937.2859	0.000995
937.5269	0.001650
937.7678	0.002177
938.0088	0.001987
938.2498	0.000911
938.4908	0.001586
938.7318	0.001228
938.9728	0.001945
939.2138	0.001460
939.4549	0.003190
939.6959	0.003486
939.9369	0.000827
940.1780	0.000784
940.4190	0.001354
940.6601	0.000151
940.9012	0.001523
941.1422	0.001396
941.3833	0.001164
941.6244	0.000278
941.8655	0.003317
942.1066	0.000109
942.3477	0.000278
942.5889	0.000362
942.8300	0.000911
943.0711	0.001333
943.3123	0.000426
943.5534	0.000721
943.7946	0.002008
944.0357	0.001080
944.2769	0.001080
944.5181	0.001080
944.7593	0.001312
945.0005	0.000531
945.2417	0.002747
945.4829	-0.000144
945.7241	0.000658
945.9653	0.001059
946.2066	0.001206
946.4478	-0.000482
946.6891	0.001354
946.9303	0.000236
947.1716	0.001945
947.4128	-0.000271
947.6541	0.001101
947.8954	0.000658
948.1367	0.001861
948.3780	0.001354
948.6193	-0.000060
948.8606	0.002325
949.1019	0.001840
949.3433	0.000383
949.5846	0.001439
949.8259	0.001185
950.0673	0.000700
950.3086	-0.000334
950.5500	0.002979
950.7914	0.001206
951.0327	0.001586
951.2741	0.001607
951.5155	0.000383
951.7569	0.000278
951.9983	0.000890
952.2398	0.001101
952.4812	0.001228
952.7226	0.002114
952.9640	0.001861
953.2055	0.000869
953.4469	0.003380
953.6884	0.000468
953.9299	0.000447
954.1713	0.000320
954.4128	0.001734
954.6543	0.001038
954.8958	0.001692
955.1373	0.000341
955.3788	0.001439
955.6203	0.002008
955.8618	0.001586
956.1034	0.000236
956.3449	0.000383
956.5865	0.000172
956.8280	0.001882
957.0696	0.000383
957.3111	0.001038
957.5527	0.000215
957.7943	0.001523
958.0359	0.000637
958.2775	0.000616
958.5191	0.001354
958.7607	0.002557
959.0023	0.000679
959.2439	0.000890
959.4856	0.001059
959.7272	0.000995
959.9688	-0.000208
960.2105	0.001840
960.4522	0.001502
960.6938	0.002241
960.9355	0.001312
961.1772	-0.000039
961.4189	0.001481
961.6606	-0.000250
961.9023	0.000383
962.1440	0.000995
962.3857	-0.000376
962.6274	0.000215
962.8692	0.001249
963.1109	0.000594
963.3527	-0.000060
963.5944	0.001544
963.8362	-0.000165
964.0779	0.001650
964.3197	-0.000587
964.5615	0.001375
964.8033	0.000046
965.0451	0.001565
965.2869	-0.000714
965.5287	0.001164
965.7705	0.000426
966.0123	0.000257
966.2542	0.001544
966.4960	0.000805
966.7379	0.000742
966.9797	0.001924
967.2216	0.000848
967.4634	0.001734
967.7053	-0.000039
967.9472	0.000088
968.1891	0.001354
968.4310	0.000953
968.6729	-0.001263
968.9148	0.001333
969.1567	0.000848
969.3987	0.000257
969.6406	0.001164
969.8825	0.000405
970.1245	-0.000609
970.3664	0.001143
970.6084	-0.000376
970.8504	-0.000208
971.0923	-0.000482
971.3343	0.000215
971.5763	0.000362
971.8183	0.001544
972.0603	0.001607
972.3023	-0.000039
972.5443	0.000700
972.7864	0.001312
973.0284	-0.001157
973.2704	0.000700
973.5125	0.000531
973.7545	0.002409
973.9966	-0.000482
974.2387	0.000637
974.4807	0.000763
974.7228	0.001143
974.9649	0.000447
975.2070	-0.000334
975.4491	-0.000208
975.6912	0.000932
975.9333	-0.000229
976.1755	0.000510
976.4176	0.000594
976.6597	0.001312
976.9019	0.000341
977.1440	0.001861
977.3862	0.001418
977.6283	0.000531
977.8705	0.001122
978.1127	-0.000651
978.3549	0.000257
978.5971	-0.000967
978.8393	0.001586
979.0815	-0.000820
979.3237	-0.000081
979.5659	0.000025
979.8082	0.000426
980.0504	0.000616
980.2926	0.001017
980.5349	0.000383
980.7771	-0.000904
981.0194	0.000805
981.2617	-0.000355
981.5040	-0.000039
981.7462	0.000299
981.9885	-0.000609
982.2308	0.000890
982.4731	0.000637
982.7155	0.000637
982.9578	-0.000419
983.2001	-0.000039
983.4424	-0.000123
983.6848	0.000299
983.9271	0.000151
984.1695	0.001375
984.4118	0.001017
984.6542	-0.000566
984.8966	0.000848
985.1390	0.000278
985.3814	0.001396
985.6238	-0.000081
985.8662	0.000827
986.1086	-0.000566
986.3510	0.001861
986.5934	-0.000798
986.8358	0.000130
987.0783	-0.000693
987.3207	0.000193
987.5632	-0.000397
987.8056	0.000848
988.0481	0.000320
988.2906	0.000088
988.5331	0.000869
988.7756	0.000721
989.0180	-0.000587
989.2605	0.000046
989.5031	-0.000018
989.7456	-0.000018
989.9881	-0.000018
990.2306	-0.000735
990.4732	-0.001031
990.7157	0.000531
990.9582	0.000827
991.2008	0.001544
991.4434	-0.000271
991.6859	0.001502
991.9285	0.001206
992.1711	-0.000482
992.4137	0.000088
992.6563	0.001059
992.8989	0.000362
993.1415	0.000151
993.3841	0.000594
993.6267	0.000468
993.8694	-0.001136
994.1120	0.000552
994.3547	0.000573
994.5973	0.000193
994.8400	-0.000144
995.0826	0.001122
995.3253	-0.001115
995.5680	0.000236
995.8107	-0.000841
996.0534	0.001396
996.2961	-0.000967
996.5388	-0.000672
996.7815	-0.000123
997.0242	0.000995
997.2670	-0.000820
997.5097	0.002515
997.7524	0.000510
997.9952	0.000025
998.2379	-0.001284
998.4807	0.000848
998.7235	-0.000545
998.9662	0.001017
999.2090	-0.001537
999.4518	0.000679
999.6946	0.000573
999.9374	0.000911
1000.1802	0.001333
1000.4230	-0.000018
1000.6659	0.000637
1000.9087	0.000658
1001.1515	0.000658
1001.3944	-0.000018
1001.6372	0.000679
1001.8801	0.001692
1002.1230	0.001059
1002.3658	-0.000018
1002.6087	-0.000651
1002.8516	-0.000524
1003.0945	0.002156
1003.3374	-0.000165
1003.5803	0.000531
1003.8232	-0.000081
1004.0661	0.000278
1004.3091	-0.000165
1004.5520	-0.000524
1004.7949	-0.000461
1005.0379	-0.000186
1005.2808	0.000320
1005.5238	0.001776
1005.7667	-0.000904
1006.0097	0.000594
1006.2527	-0.000925
1006.4957	0.002030
1006.7387	0.000130
1006.9817	-0.000334
1007.2247	0.000510
1007.4677	0.001396
1007.7107	0.000257
1007.9538	0.002325
1008.1968	-0.000060
1008.4398	0.000004
1008.6829	0.000320
1008.9259	-0.000735
1009.1690	0.000995
1009.4121	-0.000081
1009.6551	0.000827
1009.8982	0.001164
1010.1413	-0.000566
1010.3844	0.000109
1010.6275	0.000869
1010.8706	-0.000102
1011.1137	-0.000081
1011.3568	-0.000018
1011.6000	-0.001031
1011.8431	0.000172
1012.0863	-0.000186
1012.3294	0.000004
1012.5726	0.000215
1012.8157	0.000489
1013.0589	0.001776
1013.3021	-0.000186
1013.5452	0.000932
1013.7884	0.000890
1014.0316	-0.000419
1014.2748	-0.000250
1014.5180	0.000405
1014.7613	0.000468
1015.0045	0.000953
1015.2477	0.000890
1015.4909	-0.000440
1015.7342	-0.000165
1015.9774	-0.000376
1016.2207	0.001481
1016.4640	0.000784
1016.7072	0.001017
1016.9505	-0.000144
1017.1938	0.000341
1017.4371	0.000341
1017.6804	0.000510
1017.9237	-0.000440
1018.1670	0.000299
1018.4103	0.000742
1018.6536	0.000489
1018.8969	-0.000292
1019.1403	0.000299
1019.3836	-0.000165
1019.6270	-0.000798
1019.8703	0.000848
1020.1137	0.000426
1020.3571	-0.000503
1020.6004	0.000109
1020.8438	0.000827
1021.0872	-0.000081
1021.3306	0.000953
1021.5740	0.001776
1021.8174	-0.000039
1022.0608	0.000151
1022.3042	-0.000039
1022.5477	0.000193
1022.7911	0.000151
1023.0345	-0.000545
