# Wavelength (nm)	Intensity (a.u.)
197.7802	0.000294
197.9842	-0.000508
198.1882	0.000631
198.3922	0.000969
198.5963	-0.000487
198.8003	-0.000360
199.0044	0.001053
199.2085	0.000695
199.4126	0.000167
199.6168	-0.000656
199.8209	0.000631
200.0251	0.000040
200.2292	0.000357
200.4334	0.001771
200.6376	0.000695
200.8418	0.000505
201.0461	0.000167
201.2503	0.000209
201.4546	-0.000128
201.6589	-0.000318
201.8631	0.000737
202.0674	-0.000571
202.2718	0.000336
202.4761	0.000716
202.6805	-0.000044
202.8848	-0.000086
203.0892	-0.000403
203.2936	0.000040
203.4980	0.000652
203.7024	0.000652
203.9069	0.000188
204.1113	-0.000086
204.3158	0.000505
204.5203	0.000125
204.7248	-0.000213
204.9293	-0.000360
205.1338	0.000568
205.3384	0.000230
205.5430	0.001496
205.7475	0.000146
205.9521	0.000315
206.1567	-0.000213
206.3614	0.000716
206.5660	-0.000339
206.7706	-0.000044
206.9753	-0.000276
207.1800	0.000040
207.3847	-0.000128
207.5894	-0.000171
207.7941	0.001243
207.9989	0.000589
208.2036	-0.000192
208.4084	0.000589
208.6132	-0.000424
208.8180	-0.000550
209.0228	0.000146
209.2276	0.000420
209.4325	0.000505
209.6373	0.001982
209.8422	0.000800
210.0471	0.001496
210.2520	-0.000972
210.4569	-0.000044
210.6618	-0.001563
210.8668	0.000357
211.0718	-0.001394
211.2767	-0.001078
211.4817	0.000758
211.6867	-0.000065
211.8918	0.000399
212.0968	0.000505
212.3018	0.000863
212.5069	0.000209
212.7120	0.001053
212.9171	-0.000529
213.1222	-0.000571
213.3273	-0.000677
213.5325	0.000315
213.7376	0.000484
213.9428	0.000695
214.1480	0.000505
214.3532	0.000399
214.5584	0.000441
214.7636	-0.000571
214.9689	-0.000382
215.1741	0.000125
215.3794	-0.000635
215.5847	-0.000318
215.7900	0.000842
215.9953	-0.000023
216.2007	0.000167
216.4060	-0.000571
216.6114	0.000737
216.8168	-0.001458
217.0222	0.000969
217.2276	0.000062
217.4330	0.001053
217.6384	0.000062
217.8439	0.000040
218.0494	0.000420
218.2548	0.000146
218.4603	-0.000234
218.6659	0.000399
218.8714	0.000209
219.0769	0.000315
219.2825	0.000884
219.4881	0.000505
219.6936	0.000737
219.8992	0.001349
220.1049	0.001644
220.3105	0.000167
220.5161	0.001475
220.7218	-0.000804
220.9275	-0.000023
221.1332	0.001539
221.3389	0.000652
221.5446	0.000631
221.7503	-0.000677
221.9561	0.000821
222.1618	0.000399
222.3676	-0.000550
222.5734	0.001074
222.7792	0.001496
222.9850	0.000568
223.1909	0.000610
223.3967	0.001644
223.6026	0.000399
223.8085	0.000526
224.0144	-0.000002
224.2203	0.000146
224.4262	-0.001205
224.6322	0.001475
224.8381	0.000737
225.0441	-0.001437
225.2501	-0.000044
225.4561	0.000251
225.6621	0.000821
225.8681	-0.000023
226.0742	0.001159
226.2802	0.000273
226.4863	-0.000213
226.6924	-0.000192
226.8985	0.001750
227.1046	0.000083
227.3107	-0.000339
227.5169	-0.000002
227.7230	-0.000192
227.9292	0.000019
228.1354	0.000990
228.3416	0.000104
228.5478	0.001328
228.7541	0.000188
228.9603	0.000062
229.1666	0.000083
229.3729	0.001834
229.5791	0.000547
229.7855	0.001602
229.9918	0.001032
230.1981	0.000927
230.4045	-0.000614
230.6108	0.000547
230.8172	0.000652
231.0236	0.000737
231.2300	-0.000276
231.4364	0.001560
231.6429	-0.000065
231.8493	-0.000065
232.0558	0.000062
232.2623	0.000251
232.4688	0.000420
232.6753	0.000484
232.8818	0.000040
233.0884	0.000146
233.2949	0.000927
233.5015	0.000505
233.7081	-0.000972
233.9147	-0.000107
234.1213	-0.000635
234.3279	0.000083
234.5346	0.000441
234.7413	-0.000149
234.9479	0.000589
235.1546	0.001665
235.3613	-0.000445
235.5680	0.000695
235.7748	0.000441
235.9815	0.000737
236.1883	-0.000128
236.3951	0.000990
236.6018	-0.000107
236.8087	0.001433
237.0155	-0.000804
237.2223	0.000462
237.4292	-0.000149
237.6360	0.002172
237.8429	0.000441
238.0498	0.000631
238.2567	0.000462
238.4636	0.001349
238.6706	-0.000360
238.8775	-0.000065
239.0845	0.000230
239.2915	0.000842
239.4985	-0.000466
239.7055	-0.000382
239.9125	-0.000487
240.1195	0.000251
240.3266	-0.001605
240.5337	0.000040
240.7407	-0.000318
240.9478	-0.000065
241.1549	-0.000044
241.3621	0.001053
241.5692	0.002362
241.7764	-0.000086
241.9835	-0.000719
242.1907	0.000125
242.3979	-0.001226
242.6051	0.000420
242.8124	-0.000382
243.0196	0.000673
243.2269	-0.000930
243.4341	-0.000234
243.6414	-0.001205
243.8487	0.001349
244.0560	0.001011
244.2634	0.000737
244.4707	0.001264
244.6781	-0.000023
244.8854	0.000230
245.0928	0.001032
245.3002	0.000568
245.5076	0.000251
245.7151	-0.001036
245.9225	0.000378
246.1300	0.000357
246.3375	-0.000002
246.5449	0.000652
246.7524	-0.000023
246.9600	0.000990
247.1675	0.002151
247.3750	0.000441
247.5826	0.000821
247.7902	-0.000107
247.9978	0.001644
248.2054	0.000104
248.4130	0.000631
248.6206	0.000294
248.8283	0.002108
249.0359	0.000631
249.2436	-0.000255
249.4513	0.000863
249.6590	0.000990
249.8667	0.001180
250.0745	0.000399
250.2822	0.001496
250.4900	-0.000234
250.6978	0.001053
250.9056	0.000251
251.1134	-0.000234
251.3212	0.000167
251.5290	-0.000508
251.7369	0.001285
251.9447	0.000399
252.1526	0.000378
252.3605	0.001053
252.5684	-0.000382
252.7763	0.000294
252.9843	-0.000128
253.1922	0.000336
253.4002	0.001391
253.6082	0.001285
253.8162	0.000420
254.0242	0.001518
254.2322	-0.001015
254.4402	0.000273
254.6483	0.000188
254.8564	0.000209
255.0644	0.000357
255.2725	0.001117
255.4806	0.001285
255.6888	-0.000234
255.8969	0.000505
256.1051	0.001074
256.3132	0.001222
256.5214	-0.000192
256.7296	0.000927
256.9378	0.000399
257.1460	0.000378
257.3543	0.000273
257.5625	0.002488
257.7708	-0.000550
257.9791	0.001264
258.1874	0.000547
258.3957	0.000441
258.6040	0.000273
258.8124	0.001602
259.0207	-0.000149
259.2291	0.000230
259.4375	0.000209
259.6459	0.000484
259.8543	0.000990
260.0627	0.000589
260.2711	-0.001205
260.4796	0.000083
260.6881	-0.001437
260.8965	0.000779
261.1050	0.000251
261.3135	0.000652
261.5221	0.000547
261.7306	0.000378
261.9392	-0.000044
262.1477	0.000125
262.3563	0.001686
262.5649	0.000399
262.7735	-0.000740
262.9822	0.001349
263.1908	0.000800
263.3995	0.000589
263.6081	0.002467
263.8168	0.000863
264.0255	0.000695
264.2342	0.000484
264.4429	-0.000213
264.6517	-0.000466
264.8604	0.000631
265.0692	0.001391
265.2780	0.000315
265.4868	0.000294
265.6956	0.000399
265.9044	0.000758
266.1133	0.000610
266.3221	0.000800
266.5310	0.001243
266.7399	0.000441
266.9488	0.000441
267.1577	0.001518
267.3666	0.000695
267.5755	-0.000656
267.7845	-0.000529
267.9935	0.000821
268.2024	0.000631
268.4114	-0.000382
268.6205	0.000294
268.8295	0.000652
269.0385	0.000821
269.2476	0.000716
269.4566	-0.000255
269.6657	0.000357
269.8748	0.000990
270.0839	0.001285
270.2931	0.000019
270.5022	0.000167
270.7114	-0.000128
270.9205	-0.000614
271.1297	-0.000044
271.3389	-0.000065
271.5481	0.000484
271.7573	0.000083
271.9666	0.001159
272.1758	0.001391
272.3851	-0.000571
272.5944	0.000948
272.8037	0.000273
273.0130	-0.000445
273.2223	0.000484
273.4316	0.001032
273.6410	-0.002112
273.8504	0.001412
274.0597	0.000800
274.2691	0.001095
274.4785	0.000378
274.6880	0.000125
274.8974	-0.001205
275.1069	0.001370
275.3163	0.000568
275.5258	-0.000002
275.7353	0.000484
275.9448	0.000884
276.1543	0.000399
276.3639	0.000188
276.5734	0.000589
276.7830	0.001496
276.9926	0.001180
277.2022	0.001328
277.4118	0.000420
277.6214	0.001243
277.8310	-0.000761
278.0407	0.000821
278.2503	-0.000360
278.4600	0.000230
278.6697	0.001243
278.8794	0.001813
279.0891	0.001623
279.2989	0.000990
279.5086	-0.001099
279.7184	0.002193
279.9281	-0.000128
280.1379	0.000716
280.3477	0.000547
280.5576	0.000610
280.7674	0.000420
280.9772	0.000019
281.1871	0.000526
281.3970	-0.000382
281.6069	-0.000255
281.8168	0.000441
282.0267	-0.000529
282.2366	0.000547
282.4466	-0.000149
282.6565	-0.000023
282.8665	0.000251
283.0765	0.000209
283.2865	-0.000276
283.4965	0.002805
283.7065	0.000526
283.9166	0.001581
284.1266	0.000695
284.3367	0.001243
284.5468	0.000652
284.7569	0.000568
284.9670	0.000062
285.1771	0.000104
285.3873	0.000062
285.5974	0.000906
285.8076	-0.000677
286.0178	0.001370
286.2280	-0.000065
286.4382	0.000357
286.6484	0.000083
286.8587	0.001095
287.0689	-0.000192
287.2792	0.001074
287.4895	0.000230
287.6998	-0.000698
287.9101	0.000251
288.1204	-0.000403
288.3308	0.000631
288.5411	-0.000403
288.7515	0.000610
288.9619	-0.000550
289.1723	-0.000065
289.3827	0.000399
289.5931	0.000652
289.8035	0.001307
290.0140	0.000083
290.2245	0.001729
290.4349	0.000399
290.6454	0.000631
290.8559	-0.000234
291.0665	0.000167
291.2770	-0.001416
291.4875	0.000484
291.6981	0.000673
291.9087	0.000547
292.1193	-0.000445
292.3299	0.000948
292.5405	0.000040
292.7511	0.001328
292.9618	-0.000466
293.1724	0.000378
293.3831	0.000125
293.5938	0.000505
293.8045	0.000040
294.0152	0.000589
294.2260	0.000294
294.4367	0.000568
294.6475	0.000251
294.8582	0.000188
295.0690	0.000399
295.2798	0.000631
295.4906	-0.000297
295.7015	-0.000297
295.9123	0.000884
296.1232	0.001433
296.3340	-0.000255
296.5449	0.000040
296.7558	-0.000086
296.9667	-0.000128
297.1777	-0.000234
297.3886	-0.000529
297.5995	-0.000804
297.8105	0.001496
298.0215	0.000230
298.2325	0.000357
298.4435	0.000821
298.6545	0.000695
298.8656	0.000441
299.0766	0.000589
299.2877	0.001475
299.4988	0.001750
299.7099	0.000294
299.9210	0.000209
300.1321	-0.001605
300.3432	0.001138
300.5544	-0.000107
300.7655	0.000420
300.9767	-0.001732
301.1879	0.001665
301.3991	0.000484
301.6103	0.001201
301.8215	0.000779
302.0328	0.000484
302.2441	0.000083
302.4553	-0.000171
302.6666	0.000589
302.8779	0.001328
303.0892	0.000441
303.3006	0.000821
303.5119	0.001243
303.7233	0.000631
303.9346	0.000842
304.1460	0.002952
304.3574	-0.000719
304.5688	0.000927
304.7803	-0.000171
304.9917	0.001539
305.2031	-0.000867
305.4146	0.000673
305.6261	0.001307
305.8376	0.000420
306.0491	0.001222
306.2606	0.000990
306.4722	-0.000086
306.6837	-0.000466
306.8953	0.001095
307.1069	0.001095
307.3184	0.002066
307.5301	0.000948
307.7417	0.000040
307.9533	0.000842
308.1650	-0.000846
308.3766	0.000652
308.5883	0.001138
308.8000	0.000821
309.0117	0.000251
309.2234	-0.000192
309.4351	0.000357
309.6469	-0.000761
309.8586	0.000484
310.0704	0.002066
310.2822	0.001138
310.4940	-0.000297
310.7058	0.001180
310.9176	0.000589
311.1295	-0.001162
311.3413	-0.000424
311.5532	0.000062
311.7651	0.001433
311.9770	-0.000909
312.1889	0.000315
312.4008	0.000631
312.6127	0.001285
312.8247	-0.000972
313.0366	0.000568
313.2486	-0.000023
313.4606	0.000758
313.6726	-0.001732
313.8846	-0.000466
314.0967	0.000146
314.3087	0.000884
314.5208	0.000631
314.7328	0.001855
314.9449	-0.000276
315.1570	0.001391
315.3692	-0.001226
315.5813	0.001560
315.7934	0.001750
316.0056	0.000652
316.2177	0.000420
316.4299	0.002024
316.6421	0.000484
316.8543	0.000526
317.0666	0.001138
317.2788	0.000484
317.4911	0.000589
317.7033	0.001264
317.9156	0.001053
318.1279	0.000884
318.3402	-0.001247
318.5525	0.000357
318.7649	0.000062
318.9772	0.001138
319.1896	-0.000382
319.4019	0.000526
319.6143	0.000969
319.8267	0.000779
320.0392	0.000104
320.2516	-0.000002
320.4640	0.000526
320.6765	0.000188
320.8890	0.000969
321.1014	0.001581
321.3139	0.000800
321.5265	0.001053
321.7390	-0.001627
321.9515	0.000673
322.1641	0.000378
322.3766	0.001750
322.5892	0.000230
322.8018	0.001328
323.0144	0.000652
323.2270	0.000336
323.4397	0.000737
323.6523	0.000315
323.8650	-0.000635
324.0777	0.001307
324.2904	0.000526
324.5031	0.000083
324.7158	-0.000192
324.9285	0.000906
325.1412	0.000441
325.3540	0.000251
325.5668	0.000083
325.7796	0.001264
325.9924	0.000673
326.2052	0.000589
326.4180	0.001095
326.6308	-0.000318
326.8437	0.000568
327.0566	0.001750
327.2694	-0.000149
327.4823	0.000631
327.6952	0.000441
327.9082	0.000146
328.1211	-0.000466
328.3340	-0.000339
328.5470	0.000083
328.7600	0.000737
328.9730	0.000547
329.1860	0.000230
329.3990	0.001011
329.6120	0.000547
329.8251	0.000716
330.0381	0.001982
330.2512	0.000040
330.4643	0.000040
330.6774	0.001792
330.8905	0.000547
331.1036	-0.001036
331.3167	0.000019
331.5299	0.000758
331.7431	0.002108
331.9562	-0.000297
332.1694	0.001053
332.3826	0.000104
332.5959	0.000758
332.8091	0.001433
333.0223	0.001644
333.2356	0.000062
333.4489	0.001370
333.6622	0.000589
333.8755	0.000125
334.0888	0.000420
334.3021	0.001602
334.5154	0.000695
334.7288	0.001686
334.9422	0.000737
335.1555	0.001180
335.3689	0.000125
335.5823	0.001264
335.7958	-0.000065
336.0092	-0.002238
336.2227	-0.000888
336.4361	0.000927
336.6496	0.000104
336.8631	-0.000698
337.0766	-0.000593
337.2901	0.000315
337.5036	0.000863
337.7172	-0.002091
337.9307	-0.000234
338.1443	0.001328
338.3579	0.000610
338.5715	0.001095
338.7851	-0.000086
338.9987	0.001496
339.2124	0.000969
339.4260	0.000505
339.6397	-0.000234
339.8533	0.000040
340.0670	0.001264
340.2807	0.001074
340.4945	0.000716
340.7082	0.002235
340.9219	-0.000593
341.1357	0.001834
341.3495	0.000040
341.5633	0.002151
341.7771	0.000779
341.9909	0.000842
342.2047	0.000294
342.4185	0.000821
342.6324	0.000251
342.8463	0.001813
343.0601	0.000294
343.2740	0.002045
343.4879	0.001412
343.7019	-0.000128
343.9158	0.000906
344.1297	0.000758
344.3437	0.000040
344.5577	0.000336
344.7717	0.001095
344.9857	0.000062
345.1997	0.000673
345.4137	-0.000846
345.6277	-0.000593
345.8418	-0.000719
346.0559	0.000315
346.2699	0.001707
346.4840	-0.000339
346.6981	-0.000107
346.9123	0.001095
347.1264	0.000969
347.3406	0.001940
347.5547	0.000589
347.7689	-0.000318
347.9831	0.000631
348.1973	-0.001078
348.4115	0.000040
348.6257	0.000505
348.8400	0.000230
349.0542	0.001011
349.2685	0.000462
349.4828	-0.000107
349.6971	0.002087
349.9114	0.000568
350.1257	0.000294
350.3400	0.001454
350.5544	0.000505
350.7687	-0.000192
350.9831	0.000526
351.1975	-0.000213
351.4119	0.000884
351.6263	0.000336
351.8407	-0.000677
352.0552	-0.000972
352.2696	0.001665
352.4841	0.000315
352.6986	0.002235
352.9131	0.000462
353.1276	0.002066
353.3421	0.000209
353.5566	0.000737
353.7712	0.001264
353.9858	0.001433
354.2003	0.001581
354.4149	0.000505
354.6295	0.001011
354.8441	0.001032
355.0588	0.001518
355.2734	0.000969
355.4881	-0.000635
355.7027	0.000399
355.9174	-0.000297
356.1321	0.000399
356.3468	0.000104
356.5615	0.000589
356.7763	-0.000635
356.9910	0.002108
357.2058	0.000336
357.4206	-0.000382
357.6353	0.000336
357.8501	0.001454
358.0650	-0.001120
358.2798	0.001011
358.4946	-0.000761
358.7095	0.001750
358.9243	-0.000635
359.1392	0.001032
359.3541	-0.000023
359.5690	0.000526
359.7839	0.000547
359.9989	0.001011
360.2138	-0.000002
360.4288	-0.000297
360.6438	0.001243
360.8587	0.000526
361.0737	-0.001120
361.2888	0.000378
361.5038	-0.000128
361.7188	0.001855
361.9339	0.000146
362.1489	0.000673
362.3640	0.000315
362.5791	0.000526
362.7942	0.000336
363.0093	0.001201
363.2245	0.000209
363.4396	-0.000825
363.6548	0.001159
363.8699	-0.000044
364.0851	0.000083
364.3003	0.001053
364.5155	-0.000297
364.7308	0.000589
364.9460	-0.000276
365.1612	-0.000445
365.3765	0.000273
365.5918	0.000779
365.8071	0.002172
366.0224	0.000800
366.2377	-0.000339
366.4530	0.000062
366.6684	0.000062
366.8837	-0.000149
367.0991	0.000420
367.3145	-0.000107
367.5299	0.001117
367.7453	0.001138
367.9607	0.001011
368.1761	0.001032
368.3916	0.000188
368.6070	-0.000149
368.8225	0.002087
369.0380	0.000484
369.2535	-0.001162
369.4690	0.000589
369.6845	-0.000297
369.9001	0.000505
370.1156	0.000315
370.3312	0.000357
370.5468	0.001159
370.7624	0.000336
370.9780	0.000906
371.1936	0.000737
371.4092	0.000821
371.6249	0.001391
371.8405	0.001370
372.0562	0.000948
372.2719	0.000125
372.4876	0.002024
372.7033	0.000083
372.9190	0.002151
373.1348	0.001454
373.3505	0.000251
373.5663	0.000273
373.7820	0.002446
373.9978	0.000273
374.2136	0.002425
374.4294	0.001328
374.6453	0.002657
374.8611	0.001412
375.0770	0.000589
375.2928	0.003543
375.5087	0.002045
375.7246	0.002446
375.9405	0.002594
376.1564	0.002129
376.3724	0.003142
376.5883	0.003248
376.8043	0.003585
377.0203	0.001475
377.2362	0.002699
377.4522	0.002129
377.6682	0.002530
377.8843	0.003290
378.1003	0.003944
378.3164	0.003311
378.5324	0.003374
378.7485	0.002488
378.9646	0.003206
379.1807	0.004282
379.3968	0.004303
379.6129	0.003522
379.8291	0.005717
380.0452	0.004197
380.2614	0.004809
380.4776	0.005696
380.6938	0.005569
380.9100	0.006898
381.1262	0.006708
381.3424	0.006075
381.5587	0.006455
381.7749	0.007405
381.9912	0.007299
382.2075	0.008185
382.4238	0.007574
382.6401	0.009072
382.8564	0.009831
383.0728	0.008924
383.2891	0.009072
383.5055	0.008607
383.7219	0.010760
383.9382	0.011984
384.1546	0.009008
384.3711	0.009114
384.5875	0.009557
384.8039	0.009684
385.0204	0.011435
385.2368	0.012026
385.4533	0.010612
385.6698	0.010338
385.8863	0.011625
386.1028	0.011477
386.3194	0.014389
386.5359	0.010274
386.7525	0.014495
386.9690	0.013186
387.1856	0.013967
387.4022	0.014115
387.6188	0.014769
387.8355	0.016204
388.0521	0.014389
388.2687	0.016394
388.4854	0.016753
388.7021	0.016668
388.9188	0.017681
389.1355	0.016373
389.3522	0.016267
389.5689	0.015465
389.7856	0.017259
390.0024	0.016035
390.2192	0.015824
390.4359	0.016731
390.6527	0.017786
390.8695	0.016584
391.0863	0.019432
391.3032	0.019770
391.5200	0.019221
391.7369	0.019053
391.9537	0.019812
392.1706	0.020698
392.3875	0.020466
392.6044	0.021606
392.8213	0.024412
393.0383	0.022830
393.2552	0.022914
393.4722	0.023969
393.6891	0.022534
393.9061	0.022598
394.1231	0.025066
394.3401	0.023420
394.5572	0.022640
394.7742	0.024982
394.9912	0.025214
395.2083	0.023589
395.4254	0.026332
395.6425	0.022661
395.8596	0.024644
396.0767	0.023547
396.2938	0.026459
396.5109	0.025151
396.7281	0.025362
396.9453	0.024539
397.1624	0.026923
397.3796	0.027324
397.5968	0.027366
397.8140	0.027809
398.0313	0.029962
398.2485	0.030700
398.4658	0.032030
398.6830	0.030954
398.9003	0.030342
399.1176	0.029814
399.3349	0.028780
399.5522	0.029033
399.7696	0.029856
399.9869	0.028970
400.2043	0.030194
400.4216	0.028485
400.6390	0.029097
400.8564	0.029392
401.0738	0.029835
401.2912	0.030510
401.5087	0.028485
401.7261	0.030384
401.9436	0.029877
402.1610	0.029941
402.3785	0.030553
402.5960	0.028928
402.8135	0.028822
403.0310	0.030215
403.2486	0.028569
403.4661	0.029624
403.6837	0.030658
403.9013	0.031122
404.1189	0.032853
404.3365	0.030827
404.5541	0.032599
404.7717	0.031249
404.9893	0.030637
405.2070	0.033507
405.4246	0.032832
405.6423	0.033190
405.8600	0.034182
406.0777	0.032262
406.2954	0.032431
406.5131	0.029772
406.7309	0.029265
406.9486	0.030616
407.1664	0.032367
407.3842	0.031587
407.6020	0.028274
407.8198	0.031987
408.0376	0.030679
408.2554	0.027767
408.4733	0.030700
408.6911	0.033676
408.9090	0.031882
409.1269	0.032810
409.3448	0.034435
409.5627	0.031080
409.7806	0.032705
409.9985	0.033401
410.2165	0.031819
410.4344	0.033676
410.6524	0.032199
410.8704	0.030679
411.0884	0.033612
411.3064	0.033021
411.5244	0.032093
411.7424	0.032051
411.9605	0.033296
412.1785	0.031692
412.3966	0.032810
412.6147	0.032621
412.8328	0.031755
413.0509	0.033127
413.2690	0.033422
413.4871	0.034456
413.7053	0.033718
413.9234	0.033802
414.1416	0.033865
414.3598	0.032768
414.5780	0.032410
414.7962	0.032410
415.0144	0.035321
415.2326	0.034520
415.4509	0.032599
415.6692	0.034562
415.8874	0.033950
416.1057	0.034604
416.3240	0.035258
416.5423	0.034899
416.7606	0.032684
416.9790	0.033844
417.1973	0.034604
417.4157	0.034077
417.6341	0.033085
417.8524	0.034836
418.0708	0.034477
418.2893	0.031924
418.5077	0.033169
418.7261	0.032199
418.9446	0.034140
419.1630	0.034836
419.3815	0.033528
419.6000	0.035300
419.8185	0.033865
420.0370	0.034878
420.2555	0.035258
420.4741	0.037495
420.6926	0.037875
420.9112	0.038191
421.1298	0.036883
421.3483	0.038655
421.5669	0.042074
421.7856	0.043066
422.0042	0.043445
422.2228	0.043255
422.4415	0.042011
422.6601	0.040196
422.8788	0.040660
423.0975	0.041989
423.3162	0.041842
423.5349	0.038571
423.7536	0.040386
423.9724	0.039710
424.1911	0.037263
424.4099	0.037136
424.6287	0.037664
424.8475	0.040512
425.0663	0.038276
425.2851	0.040048
425.5039	0.039985
425.7228	0.037073
425.9416	0.036946
426.1605	0.035532
426.3793	0.034477
426.5982	0.036419
426.8171	0.034414
427.0361	0.033254
427.2550	0.038086
427.4739	0.037094
427.6929	0.039732
427.9118	0.039943
428.1308	0.038677
428.3498	0.038698
428.5688	0.037432
428.7878	0.036229
429.0068	0.037221
429.2259	0.036588
429.4449	0.039331
429.6640	0.036714
429.8831	0.041209
430.1022	0.041145
430.3213	0.044311
430.5404	0.043171
430.7595	0.044733
430.9787	0.042791
431.1978	0.042855
431.4170	0.042327
431.6362	0.040702
431.8553	0.039774
432.0745	0.036588
432.2938	0.035828
432.5130	0.035279
432.7322	0.034456
432.9515	0.037748
433.1707	0.035870
433.3900	0.034414
433.6093	0.037917
433.8286	0.039225
434.0479	0.043023
434.2673	0.044374
434.4866	0.039710
434.7059	0.037621
434.9253	0.040301
435.1447	0.037854
435.3641	0.039394
435.5835	0.041145
435.8029	0.037832
436.0223	0.038529
436.2418	0.038888
436.4612	0.039288
436.6807	0.039331
436.9001	0.041800
437.1196	0.038149
437.3391	0.040069
437.5586	0.038529
437.7782	0.040175
437.9977	0.038782
438.2173	0.039542
438.4368	0.039795
438.6564	0.038993
438.8760	0.042559
439.0956	0.040871
439.3152	0.040449
439.5348	0.041968
439.7545	0.040977
439.9741	0.040217
440.1938	0.040808
440.4135	0.041884
440.6331	0.037621
440.8528	0.040301
441.0725	0.042158
441.2923	0.045260
441.5120	0.045682
441.7318	0.049164
441.9515	0.048130
442.1713	0.048911
442.3911	0.046779
442.6109	0.046653
442.8307	0.046146
443.0505	0.043509
443.2703	0.044585
443.4902	0.048172
443.7101	0.046716
443.9299	0.048531
444.1498	0.047898
444.3697	0.045978
444.5896	0.047011
444.8095	0.045745
445.0295	0.045260
445.2494	0.045999
445.4694	0.044289
445.6894	0.045724
445.9093	0.046653
446.1293	0.043382
446.3493	0.042981
446.5694	0.047117
446.7894	0.046822
447.0094	0.045133
447.2295	0.043846
447.4496	0.044564
447.6696	0.045007
447.8897	0.043277
448.1098	0.043277
448.3300	0.041377
448.5501	0.044817
448.7702	0.042791
448.9904	0.042686
449.2106	0.042939
449.4307	0.043382
449.6509	0.043213
449.8711	0.043255
450.0914	0.042538
450.3116	0.044142
450.5318	0.040597
450.7521	0.042918
450.9724	0.042580
451.1926	0.039837
451.4129	0.041230
451.6332	0.038444
451.8535	0.041525
452.0739	0.040196
452.2942	0.040407
452.5146	0.039014
452.7349	0.038360
452.9553	0.038782
453.1757	0.038170
453.3961	0.040196
453.6165	0.040090
453.8369	0.038022
454.0574	0.037790
454.2778	0.038888
454.4983	0.035828
454.7188	0.037664
454.9393	0.036735
455.1597	0.036820
455.3803	0.037854
455.6008	0.037432
455.8213	0.038698
456.0419	0.038824
456.2624	0.036102
456.4830	0.036756
456.7036	0.039267
456.9242	0.037980
457.1448	0.038845
457.3654	0.036440
457.5860	0.037706
457.8067	0.036777
458.0274	0.039457
458.2480	0.038466
458.4687	0.039352
458.6894	0.039035
458.9101	0.039099
459.1308	0.040702
459.3516	0.038866
459.5723	0.037010
459.7931	0.038803
460.0138	0.038107
460.2346	0.040133
460.4554	0.035807
460.6762	0.038276
460.8970	0.036440
461.1178	0.036672
461.3387	0.037643
461.5595	0.037664
461.7804	0.037495
462.0013	0.037178
462.2222	0.034203
462.4431	0.033760
462.6640	0.031059
462.8849	0.034393
463.1059	0.032325
463.3268	0.031755
463.5478	0.034013
463.7687	0.035110
463.9897	0.034815
464.2107	0.036398
464.4317	0.033971
464.6528	0.036123
464.8738	0.036461
465.0948	0.037685
465.3159	0.038655
465.5370	0.036334
465.7581	0.037263
465.9792	0.037896
466.2003	0.041272
466.4214	0.037136
466.6425	0.034435
466.8637	0.034667
467.0848	0.034182
467.3060	0.031671
467.5272	0.033422
467.7484	0.032388
467.9696	0.029772
468.1908	0.031671
468.4120	0.032874
468.6333	0.031017
468.8545	0.030342
469.0758	0.030574
469.2970	0.029054
469.5183	0.028738
469.7396	0.027999
469.9610	0.026860
470.1823	0.026881
470.4036	0.027430
470.6250	0.025256
470.8463	0.024708
471.0677	0.024834
471.2891	0.026269
471.5105	0.024940
471.7319	0.025699
471.9533	0.025910
472.1748	0.026121
472.3962	0.025298
472.6177	0.026121
472.8391	0.026332
473.0606	0.026902
473.2821	0.027598
473.5036	0.028168
473.7251	0.027092
473.9467	0.027641
474.1682	0.025868
474.3898	0.026881
474.6113	0.027134
474.8329	0.027430
475.0545	0.026818
475.2761	0.028020
475.4977	0.028590
475.7193	0.027387
475.9410	0.028569
476.1626	0.028210
476.3843	0.028274
476.6060	0.025953
476.8277	0.028084
477.0494	0.026670
477.2711	0.024982
477.4928	0.026185
477.7145	0.023990
477.9363	0.023885
478.1580	0.024855
478.3798	0.028084
478.6016	0.027261
478.8234	0.024391
479.0452	0.024307
479.2670	0.024771
479.4888	0.025699
479.7107	0.023948
479.9325	0.027282
480.1544	0.026079
480.3763	0.027873
480.5982	0.027240
480.8201	0.027683
481.0420	0.026058
481.2639	0.023505
481.4859	0.025024
481.7078	0.024982
481.9298	0.025172
482.1517	0.028147
482.3737	0.026354
482.5957	0.025594
482.8177	0.026037
483.0398	0.025636
483.2618	0.025172
483.4838	0.025298
483.7059	0.024708
483.9280	0.024539
484.1501	0.024623
484.3721	0.025910
484.5943	0.026079
484.8164	0.027472
485.0385	0.027915
485.2606	0.027999
485.4828	0.026733
485.7050	0.037432
485.9271	0.060980
486.1493	0.085226
486.3715	0.085352
486.5937	0.072670
486.8160	0.059820
487.0382	0.051316
487.2605	0.047265
487.4827	0.043213
487.7050	0.036545
487.9273	0.032431
488.1496	0.026417
488.3719	0.025277
488.5942	0.023737
488.8165	0.023906
489.0389	0.022935
489.2612	0.022408
489.4836	0.022091
489.7060	0.022365
489.9284	0.020909
490.1508	0.021331
490.3732	0.023864
490.5956	0.022408
490.8180	0.023273
491.0405	0.022344
491.2630	0.020973
491.4854	0.022386
491.7079	0.021078
491.9304	0.020656
492.1529	0.020023
492.3755	0.019327
492.5980	0.021606
492.8205	0.020614
493.0431	0.021437
493.2657	0.020086
493.4882	0.018103
493.7108	0.021310
493.9334	0.021606
494.1561	0.020635
494.3787	0.020382
494.6013	0.021331
494.8240	0.019854
495.0466	0.021120
495.2693	0.017533
495.4920	0.019369
495.7147	0.017407
495.9374	0.018504
496.1601	0.019390
496.3829	0.020909
496.6056	0.020213
496.8284	0.021099
497.0511	0.020804
497.2739	0.020086
497.4967	0.019306
497.7195	0.019137
497.9423	0.019242
498.1652	0.017765
498.3880	0.017554
498.6109	0.017533
498.8337	0.017913
499.0566	0.018272
499.2795	0.016626
499.5024	0.017575
499.7253	0.018019
499.9482	0.019369
500.1712	0.019580
500.3941	0.018588
500.6171	0.017660
500.8400	0.019031
501.0630	0.016753
501.2860	0.017765
501.5090	0.020720
501.7320	0.018419
501.9551	0.018968
502.1781	0.018884
502.4012	0.018398
502.6242	0.017808
502.8473	0.019158
503.0704	0.017428
503.2935	0.018272
503.5166	0.016246
503.7397	0.017871
503.9628	0.016330
504.1860	0.018968
504.4092	0.017660
504.6323	0.016436
504.8555	0.016774
505.0787	0.015887
505.3019	0.016394
505.5251	0.015972
505.7483	0.017470
505.9716	0.014853
506.1948	0.017175
506.4181	0.015866
506.6414	0.015360
506.8647	0.016942
507.0880	0.016098
507.3113	0.016415
507.5346	0.016668
507.7579	0.013904
507.9813	0.014959
508.2046	0.014431
508.4280	0.015339
508.6514	0.015001
508.8748	0.015930
509.0982	0.015170
509.3216	0.015444
509.5450	0.015212
509.7685	0.013798
509.9919	0.014853
510.2154	0.015550
510.4388	0.012975
510.6623	0.015887
510.8858	0.013904
511.1093	0.015149
511.3329	0.013334
511.5564	0.014875
511.7799	0.015297
512.0035	0.014727
512.2270	0.013735
512.4506	0.014326
512.6742	0.014326
512.8978	0.014389
513.1214	0.013271
513.3451	0.015149
513.5687	0.013988
513.7923	0.015001
514.0160	0.012363
514.2397	0.013904
514.4634	0.013503
514.6871	0.013587
514.9108	0.013630
515.1345	0.013988
515.3582	0.011899
515.5819	0.012279
515.8057	0.011076
516.0295	0.013883
516.2532	0.013081
516.4770	0.014220
516.7008	0.013419
516.9246	0.014495
517.1485	0.014115
517.3723	0.012469
517.5961	0.012786
517.8200	0.011583
518.0439	0.013060
518.2677	0.012786
518.4916	0.012152
518.7155	0.012743
518.9395	0.012216
519.1634	0.012005
519.3873	0.011266
519.6113	0.014832
519.8352	0.012701
520.0592	0.013144
520.2832	0.012342
520.5072	0.012131
520.7312	0.012448
520.9552	0.010718
521.1792	0.011730
521.4033	0.013271
521.6273	0.011055
521.8514	0.011224
522.0755	0.012068
522.2996	0.010865
522.5237	0.010296
522.7478	0.010401
522.9719	0.012279
523.1960	0.011836
523.4202	0.011878
523.6443	0.010971
523.8685	0.011119
524.0927	0.013144
524.3169	0.013524
524.5411	0.011224
524.7653	0.012975
524.9895	0.012279
525.2138	0.012849
525.4380	0.012448
525.6623	0.012068
525.8865	0.012448
526.1108	0.012385
526.3351	0.012786
526.5594	0.011287
526.7837	0.013060
527.0081	0.012722
527.2324	0.011393
527.4568	0.014790
527.6811	0.013060
527.9055	0.013524
528.1299	0.012279
528.3543	0.013144
528.5787	0.012786
528.8031	0.014241
529.0276	0.013334
529.2520	0.014009
529.4765	0.014241
529.7009	0.014600
529.9254	0.013883
530.1499	0.013482
530.3744	0.015086
530.5989	0.015318
530.8234	0.013102
531.0480	0.012997
531.2725	0.012701
531.4971	0.015803
531.7217	0.012448
531.9462	0.014241
532.1708	0.014284
532.3954	0.013693
532.6200	0.012617
532.8447	0.015360
533.0693	0.015339
533.2940	0.014748
533.5186	0.015360
533.7433	0.016457
533.9680	0.017153
534.1927	0.018230
534.4174	0.016731
534.6421	0.018525
534.8668	0.018251
535.0916	0.017786
535.3163	0.017850
535.5411	0.017153
535.7659	0.016541
535.9907	0.018757
536.2155	0.018736
536.4403	0.018293
536.6651	0.016246
536.8899	0.018251
537.1148	0.016183
537.3396	0.017006
537.5645	0.016816
537.7894	0.017364
538.0143	0.016964
538.2392	0.018905
538.4641	0.018398
538.6890	0.021500
538.9139	0.019432
539.1389	0.018842
539.3638	0.020023
539.5888	0.021838
539.8138	0.019897
540.0388	0.020635
540.2638	0.020909
540.4888	0.020994
540.7138	0.019770
540.9389	0.022007
541.1639	0.021205
541.3890	0.022007
541.6140	0.021796
541.8391	0.021479
542.0642	0.021395
542.2893	0.023041
542.5144	0.023336
542.7396	0.022914
542.9647	0.023864
543.1899	0.021753
543.4150	0.022640
543.6402	0.025277
543.8654	0.024560
544.0906	0.026058
544.3158	0.023653
544.5410	0.026480
544.7662	0.026902
544.9915	0.026269
545.2167	0.027303
545.4420	0.026332
545.6673	0.027219
545.8926	0.024243
546.1179	0.024433
546.3432	0.024518
546.5685	0.024708
546.7938	0.025130
547.0192	0.023167
547.2445	0.025931
547.4699	0.027978
547.6953	0.026016
547.9206	0.026818
548.1460	0.029455
548.3715	0.031481
548.5969	0.031059
548.8223	0.031186
549.0478	0.030131
549.2732	0.029329
549.4987	0.029793
549.7242	0.026754
549.9496	0.028358
550.1751	0.028590
550.4007	0.030700
550.6262	0.028822
550.8517	0.028822
551.0773	0.026691
551.3028	0.027113
551.5284	0.027556
551.7540	0.026902
551.9796	0.028865
552.2052	0.029709
552.4308	0.030595
552.6564	0.033549
552.8820	0.034625
553.1077	0.032452
553.3333	0.031987
553.5590	0.032114
553.7847	0.032684
554.0104	0.035089
554.2361	0.033697
554.4618	0.033401
554.6875	0.031397
554.9132	0.030342
555.1390	0.030426
555.3648	0.034013
555.5905	0.033802
555.8163	0.035195
556.0421	0.034625
556.2679	0.034541
556.4937	0.035511
556.7195	0.035701
556.9454	0.036967
557.1712	0.034541
557.3971	0.035511
557.6230	0.035300
557.8488	0.034309
558.0747	0.036039
558.3006	0.039246
558.5266	0.036039
558.7525	0.032304
558.9784	0.034330
559.2044	0.032789
559.4303	0.034499
559.6563	0.032283
559.8823	0.034857
560.1083	0.034688
560.3343	0.037811
560.5603	0.041103
560.7863	0.040533
561.0124	0.040217
561.2384	0.043171
561.4645	0.043361
561.6905	0.043509
561.9166	0.044627
562.1427	0.041356
562.3688	0.043340
562.5949	0.043382
562.8211	0.041335
563.0472	0.040639
563.2733	0.042327
563.4995	0.042749
563.7257	0.041230
563.9519	0.043952
564.1781	0.046822
564.4043	0.042855
564.6305	0.048362
564.8567	0.047497
565.0829	0.046779
565.3092	0.047856
565.5355	0.048088
565.7617	0.048256
565.9880	0.048320
566.2143	0.049185
566.4406	0.051548
566.6669	0.048805
566.8932	0.051126
567.1196	0.051400
567.3459	0.056190
567.5723	0.059440
567.7987	0.063787
568.0250	0.066361
568.2514	0.064146
568.4778	0.066973
568.7043	0.070581
568.9307	0.074591
569.1571	0.081343
569.3836	0.083896
569.6100	0.089762
569.8365	0.096536
570.0630	0.110948
570.2895	0.117130
570.5160	0.121245
570.7425	0.117405
570.9690	0.123186
571.1956	0.128820
571.4221	0.136543
571.6487	0.140025
571.8752	0.143950
572.1018	0.150280
572.3284	0.154669
572.5550	0.153994
572.7816	0.143000
573.0082	0.135193
573.2349	0.132260
573.4615	0.136543
573.6882	0.156294
573.9149	0.166106
574.1415	0.169271
574.3682	0.175243
574.5949	0.185392
574.8216	0.188980
575.0484	0.189929
575.2751	0.192482
575.5018	0.194360
575.7286	0.188241
575.9554	0.181003
576.1821	0.177100
576.4089	0.171487
576.6357	0.180497
576.8626	0.188663
577.0894	0.199298
577.3162	0.200691
577.5431	0.203687
577.7699	0.212592
577.9968	0.259542
578.2237	0.270388
578.4505	0.259014
578.6774	0.240762
578.9044	0.232933
579.1313	0.215377
579.3582	0.204531
579.5851	0.209363
579.8121	0.218838
580.0391	0.218395
580.2660	0.227742
580.4930	0.222784
580.7200	0.223121
580.9470	0.214786
581.1741	0.220547
581.4011	0.259120
581.6281	0.310564
581.8552	0.338333
582.0822	0.336919
582.3093	0.338460
582.5364	0.320608
582.7635	0.300604
582.9906	0.274207
583.2177	0.249308
583.4449	0.232891
583.6720	0.218521
583.8991	0.204552
584.1263	0.197336
584.3535	0.198792
584.5807	0.203666
584.8079	0.210482
585.0351	0.220695
585.2623	0.234558
585.4895	0.246248
585.7167	0.249012
585.9440	0.246860
586.1713	0.234452
586.3985	0.222340
586.6258	0.212824
586.8531	0.203371
587.0804	0.210840
587.3077	0.225843
587.5350	0.236795
587.7624	0.237597
587.9897	0.236647
588.2171	0.223902
588.4445	0.212634
588.6718	0.207633
588.8992	0.204932
589.1266	0.195162
589.3540	0.177374
589.5815	0.173027
589.8089	0.168237
590.0363	0.169123
590.2638	0.167752
590.4913	0.163532
590.7187	0.150512
590.9462	0.148719
591.1737	0.139898
591.4012	0.136227
591.6288	0.132661
591.8563	0.133315
592.0838	0.135531
592.3114	0.132682
592.5389	0.135847
592.7665	0.155977
592.9941	0.185477
593.2217	0.203645
593.4493	0.212043
593.6769	0.206768
593.9046	0.207654
594.1322	0.195036
594.3598	0.186954
594.5875	0.174420
594.8152	0.173386
595.0429	0.185941
595.2705	0.201493
595.4983	0.199994
595.7260	0.197040
595.9537	0.185224
596.1814	0.178028
596.4092	0.162034
596.6369	0.152517
596.8647	0.145532
597.0925	0.143697
597.3203	0.148845
597.5481	0.150998
597.7759	0.156104
598.0037	0.150006
598.2315	0.142958
598.4594	0.138590
598.6872	0.137113
598.9151	0.157476
599.1430	0.176361
599.3709	0.191617
599.5988	0.185055
599.8267	0.180434
600.0546	0.179927
600.2825	0.182966
600.5105	0.184865
600.7384	0.184928
600.9664	0.182966
601.1944	0.184802
601.4223	0.189275
601.6503	0.182628
601.8783	0.177585
602.1064	0.172057
602.3344	0.168153
602.5624	0.164460
602.7905	0.167013
603.0185	0.172310
603.2466	0.175327
603.4747	0.182628
603.7028	0.193263
603.9309	0.191765
604.1590	0.185688
604.3871	0.174990
604.6152	0.170896
604.8434	0.163384
605.0715	0.156357
605.2997	0.156484
605.5279	0.160683
605.7561	0.164502
605.9843	0.172647
606.2125	0.177796
606.4407	0.171846
606.6689	0.163806
606.8972	0.159206
607.1254	0.157687
607.3537	0.159375
607.5819	0.160620
607.8102	0.160156
608.0385	0.158510
608.2668	0.155049
608.4951	0.151588
608.7235	0.150154
608.9518	0.144710
609.1801	0.143148
609.4085	0.137535
609.6369	0.134623
609.8653	0.133779
610.0936	0.137641
610.3220	0.144857
610.5505	0.149985
610.7789	0.145448
611.0073	0.144456
611.2357	0.140320
611.4642	0.136438
611.6927	0.132724
611.9211	0.138337
612.1496	0.138928
612.3781	0.132070
612.6066	0.130340
612.8351	0.126225
613.0637	0.124874
613.2922	0.129010
613.5208	0.126837
613.7493	0.122891
613.9779	0.127934
614.2065	0.127554
614.4351	0.126942
614.6637	0.127175
614.8923	0.125845
615.1209	0.122701
615.3495	0.127132
615.5782	0.127934
615.8068	0.129707
616.0355	0.127301
616.2642	0.123798
616.4929	0.117278
616.7216	0.112003
616.9503	0.111391
617.1790	0.108753
617.4077	0.109133
617.6365	0.106221
617.8652	0.112129
618.0940	0.109597
618.3227	0.108331
618.5515	0.107529
618.7803	0.100861
619.0091	0.096240
619.2379	0.091007
619.4667	0.091788
619.6956	0.090269
619.9244	0.090353
620.1533	0.092400
620.3821	0.098287
620.6110	0.099574
620.8399	0.093961
621.0688	0.087272
621.2977	0.080541
621.5266	0.076553
621.7556	0.073725
621.9845	0.076806
622.2135	0.081132
622.4424	0.081744
622.6714	0.082693
622.9004	0.084508
623.1294	0.085373
623.3584	0.087631
623.5874	0.090712
623.8164	0.087800
624.0454	0.084698
624.2745	0.085373
624.5035	0.085120
624.7326	0.088581
624.9617	0.087146
625.1908	0.089826
625.4199	0.084972
625.6490	0.083137
625.8781	0.083179
626.1072	0.078283
626.3364	0.077439
626.5655	0.074907
626.7947	0.071404
627.0238	0.070033
627.2530	0.070096
627.4822	0.069273
627.7114	0.072164
627.9406	0.070244
628.1698	0.066868
628.3991	0.062268
628.6283	0.060769
628.8576	0.056423
629.0868	0.055684
629.3161	0.058701
629.5454	0.060221
629.7747	0.062858
630.0040	0.060812
630.2333	0.060136
630.4626	0.058111
630.6920	0.058701
630.9213	0.057077
631.1507	0.055979
631.3801	0.053764
631.6094	0.053300
631.8388	0.051696
632.0682	0.053257
632.2976	0.054059
632.5271	0.050662
632.7565	0.050620
632.9859	0.046252
633.2154	0.043614
633.4448	0.044311
633.6743	0.044226
633.9038	0.045387
634.1333	0.045408
634.3628	0.044142
634.5923	0.043087
634.8218	0.041800
635.0514	0.040301
635.2809	0.040934
635.5105	0.042369
635.7400	0.041947
635.9696	0.040913
636.1992	0.042264
636.4288	0.045366
636.6584	0.045999
636.8880	0.045956
637.1177	0.043530
637.3473	0.042791
637.5770	0.043087
637.8066	0.041504
638.0363	0.039225
638.2660	0.041736
638.4957	0.042095
638.7254	0.041272
638.9551	0.041905
639.1848	0.041631
639.4145	0.040133
639.6443	0.039546
639.8740	0.039657
640.1038	0.036715
640.3336	0.037602
640.5633	0.038434
640.7931	0.036075
641.0229	0.035000
641.2528	0.036413
641.4826	0.034792
641.7124	0.032261
641.9423	0.034989
642.1721	0.030484
642.4020	0.029088
642.6319	0.029231
642.8617	0.030625
643.0916	0.028744
643.3216	0.031208
643.5515	0.031610
643.7814	0.030020
644.0113	0.030312
644.2413	0.027567
644.4712	0.028292
644.7012	0.027731
644.9312	0.026704
645.1612	0.029033
645.3912	0.029885
645.6212	0.028644
645.8512	0.028817
646.0812	0.028381
646.3113	0.026536
646.5413	0.024446
646.7714	0.026166
647.0015	0.026225
647.2316	0.023701
647.4616	0.025623
647.6918	0.023916
647.9219	0.025764
648.1520	0.025504
648.3821	0.028898
648.6123	0.031771
648.8424	0.032829
649.0726	0.031473
649.3028	0.034168
649.5329	0.032686
649.7631	0.032229
649.9933	0.034850
650.2236	0.033652
650.4538	0.031122
650.6840	0.030011
650.9143	0.029585
651.1445	0.027760
651.3748	0.028033
651.6051	0.026403
651.8354	0.030737
652.0657	0.031169
652.2960	0.029963
652.5263	0.033118
652.7566	0.033348
652.9870	0.031142
653.2173	0.031934
653.4477	0.031265
653.6780	0.031120
653.9084	0.031320
654.1388	0.031551
654.3692	0.032641
654.5996	0.034279
654.8300	0.035099
655.0605	0.039044
655.2909	0.060249
655.5213	0.177892
655.7518	0.513993
655.9823	0.963749
656.2128	1.000000
656.4433	1.000000
656.6738	1.000000
656.9043	1.000000
657.1348	1.000000
657.3653	0.847788
657.5959	0.684010
657.8264	0.583509
658.0570	0.512891
658.2875	0.471988
658.5181	0.431815
658.7487	0.395752
658.9793	0.361805
659.2099	0.352159
659.4406	0.307030
659.6712	0.226857
659.9018	0.136934
660.1325	0.082578
660.3632	0.052318
660.5938	0.036373
660.8245	0.031261
661.0552	0.025821
661.2859	0.026432
661.5166	0.022903
661.7474	0.023792
661.9781	0.022029
662.2088	0.023649
662.4396	0.022088
662.6704	0.022156
662.9011	0.020569
663.1319	0.024492
663.3627	0.022325
663.5935	0.021888
663.8243	0.019941
664.0552	0.021165
664.2860	0.021580
664.5168	0.021716
664.7477	0.022430
664.9786	0.021371
665.2094	0.021966
665.4403	0.024576
665.6712	0.025272
665.9021	0.023573
666.1330	0.024222
666.3640	0.023037
666.5949	0.020717
666.8259	0.019551
667.0568	0.022723
667.2878	0.021393
667.5188	0.019435
667.7497	0.020740
667.9807	0.021232
668.2117	0.020385
668.4428	0.020783
668.6738	0.021015
668.9048	0.021289
669.1359	0.021458
669.3669	0.020255
669.5980	0.019031
669.8291	0.021268
670.0602	0.020846
670.2913	0.020276
670.5224	0.023104
670.7535	0.022091
670.9846	0.021353
671.2157	0.021268
671.4469	0.024264
671.6781	0.025531
671.9092	0.030806
672.1404	0.029498
672.3716	0.030426
672.6028	0.034414
672.8340	0.034921
673.0652	0.032093
673.2964	0.033549
673.5277	0.031629
673.7589	0.029054
673.9902	0.029941
674.2214	0.030785
674.4527	0.029413
674.6840	0.028822
674.9153	0.025214
675.1466	0.023547
675.3779	0.027134
675.6093	0.027366
675.8406	0.024433
676.0719	0.027852
676.3033	0.024771
676.5347	0.025699
676.7661	0.024919
676.9974	0.024138
677.2288	0.022513
677.4602	0.021943
677.6917	0.024750
677.9231	0.027198
678.1545	0.027155
678.3860	0.029076
678.6174	0.027620
678.8489	0.028105
679.0804	0.031945
679.3119	0.031376
679.5434	0.030679
679.7749	0.033359
680.0064	0.036250
680.2379	0.037347
680.4694	0.035849
680.7010	0.036588
680.9325	0.033844
681.1641	0.034604
681.3957	0.032557
681.6273	0.034161
681.8589	0.034899
682.0905	0.033781
682.3221	0.033085
682.5537	0.030173
682.7854	0.032747
683.0170	0.029413
683.2487	0.029582
683.4803	0.031291
683.7120	0.033232
683.9437	0.030890
684.1754	0.032515
684.4071	0.031460
684.6388	0.036229
684.8705	0.036883
685.1023	0.037516
685.3340	0.038128
685.5658	0.041842
685.7975	0.046653
686.0293	0.044711
686.2611	0.047159
686.4929	0.042749
686.7247	0.041399
686.9565	0.043319
687.1883	0.043298
687.4202	0.043150
687.6520	0.042686
687.8838	0.043340
688.1157	0.040449
688.3476	0.040892
688.5795	0.039394
688.8114	0.038086
689.0433	0.036060
689.2752	0.036988
689.5071	0.035511
689.7390	0.034731
689.9710	0.034815
690.2029	0.036440
690.4349	0.033781
690.6669	0.035258
690.8988	0.034456
691.1308	0.036503
691.3628	0.038634
691.5948	0.037347
691.8269	0.038444
692.0589	0.037347
692.2909	0.040344
692.5230	0.036524
692.7550	0.038360
692.9871	0.036419
693.2192	0.036060
693.4513	0.039964
693.6834	0.039436
693.9155	0.037326
694.1476	0.036166
694.3797	0.035870
694.6119	0.033676
694.8440	0.033823
695.0762	0.033971
695.3083	0.034224
695.5405	0.035132
695.7727	0.031207
696.0049	0.030764
696.2371	0.029751
696.4693	0.029033
696.7016	0.031376
696.9338	0.036166
697.1660	0.038698
697.3983	0.038951
697.6306	0.039922
697.8628	0.038782
698.0951	0.037917
698.3274	0.036144
698.5597	0.037389
698.7920	0.037347
699.0243	0.037600
699.2567	0.036651
699.4890	0.035575
699.7214	0.034667
699.9537	0.033401
700.1861	0.033676
700.4185	0.031966
700.6509	0.030764
700.8833	0.030721
701.1157	0.029519
701.3481	0.030257
701.5806	0.028400
701.8130	0.027556
702.0454	0.028527
702.2779	0.027113
702.5104	0.030996
702.7429	0.030595
702.9753	0.029730
703.2078	0.029877
703.4403	0.028843
703.6729	0.029835
703.9054	0.028991
704.1379	0.026185
704.3705	0.027071
704.6030	0.028464
704.8356	0.026691
705.0682	0.024159
705.3008	0.023821
705.5334	0.025298
705.7660	0.023779
705.9986	0.024222
706.2312	0.024687
706.4638	0.025531
706.6965	0.031017
706.9291	0.034182
707.1618	0.034752
707.3945	0.035490
707.6272	0.039352
707.8599	0.037706
708.0926	0.036566
708.3253	0.040069
708.5580	0.036144
708.7907	0.037410
709.0235	0.035490
709.2562	0.034140
709.4890	0.033275
709.7217	0.033169
709.9545	0.033570
710.1873	0.032747
710.4201	0.035427
710.6529	0.034140
710.8857	0.032156
711.1186	0.034393
711.3514	0.033211
711.5842	0.032388
711.8171	0.032853
712.0500	0.029265
712.2828	0.028548
712.5157	0.029076
712.7486	0.029877
712.9815	0.028421
713.2144	0.027831
713.4474	0.030869
713.6803	0.034309
713.9132	0.031481
714.1462	0.033633
714.3791	0.035174
714.6121	0.034541
714.8451	0.034667
715.0781	0.035174
715.3111	0.035321
715.5441	0.035026
715.7771	0.033739
716.0102	0.031924
716.2432	0.031819
716.4762	0.030426
716.7093	0.029265
716.9424	0.028168
717.1754	0.030299
717.4085	0.029265
717.6416	0.027430
717.8747	0.028232
718.1078	0.029181
718.3410	0.029033
718.5741	0.029033
718.8072	0.028865
719.0404	0.028443
719.2736	0.027261
719.5067	0.028527
719.7399	0.030510
719.9731	0.027282
720.2063	0.027113
720.4395	0.027978
720.6727	0.027282
720.9060	0.028063
721.1392	0.029772
721.3725	0.028506
721.6057	0.029687
721.8390	0.028274
722.0723	0.029709
722.3055	0.030278
722.5388	0.028717
722.7721	0.029540
723.0055	0.024370
723.2388	0.024307
723.4721	0.028379
723.7055	0.025615
723.9388	0.029076
724.1722	0.029371
724.4056	0.028632
724.6389	0.026923
724.8723	0.027303
725.1057	0.027134
725.3391	0.029666
725.5726	0.030890
725.8060	0.033422
726.0394	0.033591
726.2729	0.034119
726.5063	0.032621
726.7398	0.032768
726.9733	0.032156
727.2068	0.033000
727.4403	0.031565
727.6738	0.031291
727.9073	0.030721
728.1408	0.036081
728.3743	0.031629
728.6079	0.034731
728.8414	0.034414
729.0750	0.034140
729.3086	0.034330
729.5421	0.035680
729.7757	0.034541
730.0093	0.035912
730.2429	0.036377
730.4766	0.037052
730.7102	0.037495
730.9438	0.040154
731.1775	0.043551
731.4111	0.041145
731.6448	0.041145
731.8785	0.042095
732.1122	0.042601
732.3458	0.042348
732.5795	0.038761
732.8133	0.039077
733.0470	0.042855
733.2807	0.042791
733.5145	0.041019
733.7482	0.041462
733.9820	0.044796
734.2157	0.047391
734.4495	0.049417
734.6833	0.050599
734.9171	0.053025
735.1509	0.047982
735.3847	0.048552
735.6185	0.046800
735.8524	0.046716
736.0862	0.048067
736.3201	0.046336
736.5539	0.047750
736.7878	0.046568
737.0217	0.046083
737.2556	0.049607
737.4895	0.047687
737.7234	0.046189
737.9573	0.044311
738.1912	0.044543
738.4252	0.038381
738.6591	0.039310
738.8931	0.038888
739.1271	0.040723
739.3610	0.045344
739.5950	0.048594
739.8290	0.046547
740.0630	0.044817
740.2970	0.041483
740.5310	0.042074
740.7651	0.039563
740.9991	0.038508
741.2332	0.037073
741.4672	0.035300
741.7013	0.032768
741.9354	0.035743
742.1695	0.034688
742.4036	0.033802
742.6377	0.034836
742.8718	0.035406
743.1059	0.035532
743.3400	0.032135
743.5742	0.031270
743.8083	0.030869
744.0425	0.030595
744.2767	0.028696
744.5108	0.029350
744.7450	0.029265
744.9792	0.028843
745.2134	0.028949
745.4477	0.027409
745.6819	0.027662
745.9161	0.026839
746.1504	0.028527
746.3846	0.029793
746.6189	0.028780
746.8532	0.027598
747.0874	0.028400
747.3217	0.029118
747.5560	0.030658
747.7903	0.031671
748.0247	0.030869
748.2590	0.030257
748.4933	0.025974
748.7277	0.027345
748.9620	0.028210
749.1964	0.026818
749.4308	0.030004
749.6652	0.031249
749.8995	0.033507
750.1339	0.035321
750.3684	0.036630
750.6028	0.038740
750.8372	0.039436
751.0717	0.037537
751.3061	0.036355
751.5406	0.037938
751.7750	0.039816
752.0095	0.039225
752.2440	0.038571
752.4785	0.039014
752.7130	0.036904
752.9475	0.036820
753.1820	0.035933
753.4166	0.038001
753.6511	0.037453
753.8856	0.039077
754.1202	0.040850
754.3548	0.042475
754.5894	0.041230
754.8239	0.040301
755.0585	0.040766
755.2931	0.037685
755.5278	0.041947
755.7624	0.042095
755.9970	0.042538
756.2317	0.042243
756.4663	0.046421
756.7010	0.044965
756.9356	0.047370
757.1703	0.048911
757.4050	0.052223
757.6397	0.054080
757.8744	0.060411
758.1091	0.059398
758.3438	0.057098
758.5786	0.056718
758.8133	0.055283
759.0481	0.052772
759.2828	0.052899
759.5176	0.054713
759.7524	0.057731
759.9872	0.059377
760.2220	0.059208
760.4568	0.061930
760.6916	0.060896
760.9264	0.063702
761.1613	0.060495
761.3961	0.061761
761.6310	0.058195
761.8658	0.054713
762.1007	0.049164
762.3356	0.050219
762.5705	0.048678
762.8054	0.046589
763.0403	0.048003
763.2752	0.048721
763.5101	0.050219
763.7450	0.048932
763.9800	0.051991
764.2149	0.047666
764.4499	0.052561
764.6849	0.054819
764.9198	0.056845
765.1548	0.060221
765.3898	0.055663
765.6248	0.054988
765.8599	0.053490
766.0949	0.050367
766.3299	0.049100
766.5650	0.045577
766.8000	0.044437
767.0351	0.042137
767.2701	0.037516
767.5052	0.037685
767.7403	0.038529
767.9754	0.039204
768.2105	0.042728
768.4456	0.043192
768.6808	0.043277
768.9159	0.045176
769.1510	0.048151
769.3862	0.046210
769.6214	0.045155
769.8565	0.047011
770.0917	0.045534
770.3269	0.043066
770.5621	0.043382
770.7973	0.045007
771.0325	0.045218
771.2677	0.047349
771.5030	0.050324
771.7382	0.046547
771.9735	0.044944
772.2087	0.041399
772.4440	0.040660
772.6793	0.041462
772.9146	0.040280
773.1499	0.039689
773.3852	0.037600
773.6205	0.038318
773.8558	0.038845
774.0911	0.036988
774.3265	0.034477
774.5618	0.035638
774.7972	0.034182
775.0326	0.030510
775.2679	0.028886
775.5033	0.028928
775.7387	0.029076
775.9741	0.028548
776.2095	0.026354
776.4450	0.027008
776.6804	0.023378
776.9158	0.025298
777.1513	0.024982
777.3868	0.025256
777.6222	0.024792
777.8577	0.024433
778.0932	0.024412
778.3287	0.025868
778.5642	0.024454
778.7997	0.025826
779.0352	0.027999
779.2707	0.030109
779.5063	0.029687
779.7418	0.031650
779.9774	0.031713
780.2130	0.028485
780.4485	0.028400
780.6841	0.028464
780.9197	0.028696
781.1553	0.031734
781.3909	0.031629
781.6265	0.035089
781.8622	0.036461
782.0978	0.036144
782.3335	0.031966
782.5691	0.034098
782.8048	0.034098
783.0405	0.034899
783.2761	0.032916
783.5118	0.032431
783.7475	0.033338
783.9832	0.033760
784.2190	0.032410
784.4547	0.031798
784.6904	0.029709
784.9262	0.031291
785.1619	0.028485
785.3977	0.028907
785.6335	0.028527
785.8692	0.027999
786.1050	0.028232
786.3408	0.028063
786.5766	0.028780
786.8124	0.026733
787.0483	0.026565
787.2841	0.027008
787.5199	0.028928
787.7558	0.029856
787.9917	0.030743
788.2275	0.029223
788.4634	0.030785
788.6993	0.031987
788.9352	0.028464
789.1711	0.030721
789.4070	0.031608
789.6429	0.028210
789.8789	0.027409
790.1148	0.026100
790.3507	0.026944
790.5867	0.024433
790.8227	0.026248
791.0586	0.024412
791.2946	0.023041
791.5306	0.022766
791.7666	0.024159
792.0026	0.023695
792.2387	0.021964
792.4747	0.022197
792.7107	0.023631
792.9468	0.021226
793.1828	0.021078
793.4189	0.020255
793.6550	0.020171
793.8910	0.023294
794.1271	0.026860
794.3632	0.030236
794.5993	0.031819
794.8355	0.031186
795.0716	0.029287
795.3077	0.030447
795.5439	0.032789
795.7800	0.031840
796.0162	0.029012
796.2523	0.027577
796.4885	0.022935
796.7247	0.023716
796.9609	0.021437
797.1971	0.021331
797.4333	0.020108
797.6695	0.021901
797.9058	0.022197
798.1420	0.024412
798.3783	0.024011
798.6145	0.021732
798.8508	0.023209
799.0871	0.022365
799.3233	0.023779
799.5596	0.022323
799.7959	0.021753
800.0322	0.021015
800.2686	0.020276
800.5049	0.020340
800.7412	0.018103
800.9776	0.019432
801.2139	0.020382
801.4503	0.020973
801.6867	0.018546
801.9230	0.018567
802.1594	0.016795
802.3958	0.017660
802.6322	0.016499
802.8686	0.017301
803.1051	0.016710
803.3415	0.018293
803.5779	0.018272
803.8144	0.017259
804.0508	0.018504
804.2873	0.016668
804.5238	0.017765
804.7603	0.017322
804.9968	0.016415
805.2333	0.016879
805.4698	0.017280
805.7063	0.017744
805.9428	0.018652
806.1794	0.018419
806.4159	0.020952
806.6525	0.024011
806.8890	0.024454
807.1256	0.023695
807.3622	0.023969
807.5988	0.023104
807.8354	0.023146
808.0720	0.022218
808.3086	0.023357
808.5452	0.022302
808.7818	0.021226
809.0185	0.023041
809.2551	0.022619
809.4918	0.021964
809.7284	0.020973
809.9651	0.019854
810.2018	0.020509
810.4385	0.020994
810.6752	0.019791
810.9119	0.019179
811.1486	0.018757
811.3853	0.018314
811.6221	0.016668
811.8588	0.017554
812.0956	0.016141
812.3323	0.016352
812.5691	0.016668
812.8059	0.015550
813.0427	0.014009
813.2795	0.015465
813.5163	0.014136
813.7531	0.014853
813.9899	0.017871
814.2267	0.019833
814.4636	0.018166
814.7004	0.018145
814.9373	0.017470
815.1742	0.016499
815.4110	0.016520
815.6479	0.014410
815.8848	0.015571
816.1217	0.013566
816.3586	0.012110
816.5955	0.013419
816.8324	0.013693
817.0694	0.015740
817.3063	0.015676
817.5433	0.014558
817.7802	0.016816
818.0172	0.016900
818.2542	0.014136
818.4912	0.013102
818.7282	0.014896
818.9652	0.013208
819.2022	0.013482
819.4392	0.012764
819.6762	0.012406
819.9133	0.011287
820.1503	0.013756
820.3874	0.012026
820.6244	0.013883
820.8615	0.013060
821.0986	0.015930
821.3357	0.015592
821.5727	0.015908
821.8099	0.014663
822.0470	0.014326
822.2841	0.013756
822.5212	0.012005
822.7584	0.013123
822.9955	0.011372
823.2327	0.012975
823.4698	0.012216
823.7070	0.010929
823.9442	0.011372
824.1814	0.011541
824.4186	0.012300
824.6558	0.010908
824.8930	0.011688
825.1302	0.011372
825.3675	0.011245
825.6047	0.011287
825.8419	0.015191
826.0792	0.014410
826.3165	0.012342
826.5537	0.012237
826.7910	0.011836
827.0283	0.012448
827.2656	0.013039
827.5029	0.011646
827.7402	0.012659
827.9776	0.012954
828.2149	0.009937
828.4522	0.011541
828.6896	0.011435
828.9270	0.012680
829.1643	0.013018
829.4017	0.012975
829.6391	0.013376
829.8765	0.011330
830.1139	0.012427
830.3513	0.011667
830.5887	0.011076
830.8261	0.010633
831.0636	0.010654
831.3010	0.009641
831.5385	0.008713
831.7759	0.008418
832.0134	0.007974
832.2509	0.007637
832.4884	0.008396
832.7259	0.007130
832.9634	0.010528
833.2009	0.008818
833.4384	0.009916
833.6759	0.011224
833.9135	0.011667
834.1510	0.009072
834.3886	0.009177
834.6261	0.010591
834.8637	0.011308
835.1013	0.010422
835.3389	0.012216
835.5765	0.010274
835.8141	0.010739
836.0517	0.011941
836.2893	0.009367
836.5269	0.008861
836.7646	0.009346
837.0022	0.008671
837.2399	0.008586
837.4775	0.007531
837.7152	0.007996
837.9529	0.005949
838.1906	0.007447
838.4283	0.007616
838.6660	0.007721
838.9037	0.007742
839.1414	0.007341
839.3791	0.007299
839.6169	0.007278
839.8546	0.007447
840.0924	0.007658
840.3302	0.006793
840.5679	0.008396
840.8057	0.007742
841.0435	0.008586
841.2813	0.006476
841.5191	0.006118
841.7569	0.006054
841.9947	0.006708
842.2326	0.006054
842.4704	0.008312
842.7082	0.005400
842.9461	0.004915
843.1840	0.005822
843.4218	0.005759
843.6597	0.004619
843.8976	0.004978
844.1355	0.005358
844.3734	0.005759
844.6113	0.004957
844.8492	0.005759
845.0872	0.004999
845.3251	0.005674
845.5631	0.004851
845.8010	0.006371
846.0390	0.005885
846.2770	0.005949
846.5149	0.005843
846.7529	0.005569
846.9909	0.004535
847.2289	0.004683
847.4669	0.004851
847.7050	0.005717
847.9430	0.004535
848.1810	0.005653
848.4191	0.005358
848.6571	0.006497
848.8952	0.003965
849.1333	0.004746
849.3713	0.005717
849.6094	0.003691
849.8475	0.005759
850.0856	0.005421
850.3237	0.005105
850.5619	0.005252
850.8000	0.005084
851.0381	0.004767
851.2763	0.005274
851.5144	0.005274
851.7526	0.004007
851.9908	0.006202
852.2289	0.004472
852.4671	0.006096
852.7053	0.006392
852.9435	0.009536
853.1817	0.010633
853.4200	0.012406
853.6582	0.014917
853.8964	0.012174
854.1347	0.012448
854.3729	0.014685
854.6112	0.012574
854.8495	0.014326
855.0877	0.011857
855.3260	0.013524
855.5643	0.013545
855.8026	0.012342
856.0409	0.010507
856.2792	0.012701
856.5176	0.013904
856.7559	0.012617
856.9942	0.011393
857.2326	0.010570
857.4710	0.011266
857.7093	0.010296
857.9477	0.009177
858.1861	0.010190
858.4245	0.009979
858.6629	0.010338
858.9013	0.010317
859.1397	0.010169
859.3781	0.008650
859.6166	0.010169
859.8550	0.008671
860.0935	0.009620
860.3319	0.006835
860.5704	0.005400
860.8089	0.008207
861.0473	0.007890
861.2858	0.005337
861.5243	0.004577
861.7628	0.005295
862.0013	0.006476
862.2399	0.005485
862.4784	0.005949
862.7169	0.006096
862.9555	0.006371
863.1940	0.005295
863.4326	0.005379
863.6712	0.007004
863.9098	0.006793
864.1483	0.007320
864.3869	0.005442
864.6255	0.005485
864.8642	0.004936
865.1028	0.005717
865.3414	0.005822
865.5800	0.005843
865.8187	0.004936
866.0573	0.005485
866.2960	0.006202
866.5347	0.006033
866.7733	0.003332
867.0120	0.005105
867.2507	0.006223
867.4894	0.004366
867.7281	0.006096
867.9669	0.006033
868.2056	0.005126
868.4443	0.004366
868.6831	0.006561
868.9218	0.006329
869.1606	0.005189
869.3993	0.004978
869.6381	0.004472
869.8769	0.004809
870.1157	0.004535
870.3545	0.004197
870.5933	0.004640
870.8321	0.004408
871.0709	0.005653
871.3097	0.005907
871.5486	0.006371
871.7874	0.005674
872.0263	0.006286
872.2651	0.005590
872.5040	0.003965
872.7429	0.004577
872.9818	0.005041
873.2207	0.005548
873.4596	0.004704
873.6985	0.006012
873.9374	0.005463
874.1763	0.006054
874.4153	0.004640
874.6542	0.005696
874.8932	0.005611
875.1321	0.005421
875.3711	0.006307
875.6101	0.006350
875.8491	0.006075
876.0880	0.006033
876.3270	0.005780
876.5661	0.005949
876.8051	0.004577
877.0441	0.005252
877.2831	0.006582
877.5222	0.004598
877.7612	0.005379
878.0003	0.005041
878.2393	0.007215
878.4784	0.006413
878.7175	0.005653
878.9566	0.007574
879.1957	0.006518
879.4348	0.006603
879.6739	0.006476
879.9130	0.009388
880.1521	0.007574
880.3913	0.008481
880.6304	0.008945
880.8696	0.008228
881.1087	0.008396
881.3479	0.007911
881.5871	0.007257
881.8262	0.007299
882.0654	0.005801
882.3046	0.006645
882.5438	0.006603
882.7831	0.007384
883.0223	0.006751
883.2615	0.006497
883.5007	0.006877
883.7400	0.005590
883.9792	0.007173
884.2185	0.007025
884.4578	0.007088
884.6971	0.006223
884.9363	0.005084
885.1756	0.006371
885.4149	0.005611
885.6542	0.007278
885.8936	0.006772
886.1329	0.006012
886.3722	0.006772
886.6116	0.006603
886.8509	0.004683
887.0903	0.006329
887.3296	0.006139
887.5690	0.005928
887.8084	0.004936
888.0478	0.007152
888.2872	0.006392
888.5266	0.005907
888.7660	0.004662
889.0054	0.006898
889.2448	0.003438
889.4843	0.004387
889.7237	0.006413
889.9632	0.005358
890.2026	0.005147
890.4421	0.003923
890.6816	0.005020
890.9211	0.004493
891.1606	0.004071
891.4001	0.004577
891.6396	0.004577
891.8791	0.004788
892.1186	0.004662
892.3581	0.005780
892.5977	0.004788
892.8372	0.005210
893.0768	0.004113
893.3163	0.005063
893.5559	0.004704
893.7955	0.004345
894.0351	0.002910
894.2747	0.003607
894.5143	0.004915
894.7539	0.004303
894.9935	0.004007
895.2331	0.006096
895.4727	0.004134
895.7124	0.004134
895.9520	0.004261
896.1917	0.004535
896.4314	0.004830
896.6710	0.004640
896.9107	0.005907
897.1504	0.004619
897.3901	0.005316
897.6298	0.005864
897.8695	0.004894
898.1092	0.004873
898.3489	0.005126
898.5887	0.003670
898.8284	0.004915
899.0682	0.004134
899.3079	0.004915
899.5477	0.003543
899.7875	0.004345
900.0272	0.003459
900.2670	0.004514
900.5068	0.004514
900.7466	0.004662
900.9864	0.004029
901.2263	0.004535
901.4661	0.003691
901.7059	0.003986
901.9458	0.004725
902.1856	0.004451
902.4255	0.003839
902.6654	0.004092
902.9052	0.004809
903.1451	0.003881
903.3850	0.003607
903.6249	0.004029
903.8648	0.004134
904.1047	0.003944
904.3446	0.005295
904.5846	0.004240
904.8245	0.005337
905.0644	0.004029
905.3044	0.006181
905.5444	0.005358
905.7843	0.004387
906.0243	0.005696
906.2643	0.006561
906.5043	0.004957
906.7443	0.004957
906.9843	0.004788
907.2243	0.004007
907.4643	0.003332
907.7043	0.003754
907.9444	0.003353
908.1844	0.002678
908.4245	0.006181
908.6645	0.005084
908.9046	0.002973
909.1447	0.004429
909.3847	0.003733
909.6248	0.003206
909.8649	0.003480
910.1050	0.004050
910.3452	0.003374
910.5853	0.003775
910.8254	0.004345
911.0655	0.004978
911.3057	0.004366
911.5458	0.004809
911.7860	0.004472
912.0262	0.004303
912.2663	0.004978
912.5065	0.002446
912.7467	0.003396
912.9869	0.004071
913.2271	0.002404
913.4673	0.002741
913.7075	0.004704
913.9478	0.002741
914.1880	0.003860
914.4283	0.004134
914.6685	0.002530
914.9088	0.003079
915.1490	0.002826
915.3893	0.003733
915.6296	0.003100
915.8699	0.003712
916.1102	0.002952
916.3505	0.003501
916.5908	0.002995
916.8311	0.003923
917.0714	0.004366
917.3118	0.004050
917.5521	0.003796
917.7925	0.005442
918.0328	0.004007
918.2732	0.004451
918.5136	0.003796
918.7539	0.005231
918.9943	0.002193
919.2347	0.004472
919.4751	0.002024
919.7155	0.004176
919.9560	0.004092
920.1964	0.005463
920.4368	0.003522
920.6773	0.005020
920.9177	0.003501
921.1582	0.003185
921.3986	0.003374
921.6391	0.004303
921.8796	0.002805
922.1201	0.002551
922.3606	0.003860
922.6011	0.002551
922.8416	0.003944
923.0821	0.002952
923.3226	0.003480
923.5631	0.004303
923.8037	0.002362
924.0442	0.003775
924.2848	0.001454
924.5254	0.004345
924.7659	0.002657
925.0065	0.003628
925.2471	0.002995
925.4877	0.002319
925.7283	0.002741
925.9689	0.002256
926.2095	0.001855
926.4501	0.002551
926.6908	0.001496
926.9314	0.002256
927.1720	0.000969
927.4127	0.002530
927.6533	0.002425
927.8940	0.003311
928.1347	0.003206
928.3754	0.003016
928.6161	0.002214
928.8568	0.002551
929.0975	0.001560
929.3382	0.001644
929.5789	0.003016
929.8196	0.003417
930.0604	0.002889
930.3011	0.002741
930.5419	0.002404
930.7826	0.002973
931.0234	0.002826
931.2642	0.002425
931.5049	0.001876
931.7457	0.002488
931.9865	0.003206
932.2273	0.002741
932.4681	0.002636
932.7089	0.002952
932.9498	0.001243
933.1906	0.002214
933.4314	0.001412
933.6723	0.002657
933.9131	0.001053
934.1540	0.004176
934.3949	0.002952
934.6358	0.003818
934.8766	0.001834
935.1175	0.002762
935.3584	0.002172
935.5993	0.002615
935.8403	0.001201
936.0812	0.002973
936.3221	0.001623
936.5630	0.002129
936.8040	0.001243
937.0449	0.002720
937.2859	0.000695
937.5269	0.002235
937.7678	0.001138
938.0088	0.000863
938.2498	0.002931
938.4908	0.001475
938.7318	0.001897
938.9728	0.002678
939.2138	0.003311
939.4549	0.002573
939.6959	0.001602
939.9369	0.002551
940.1780	0.001876
940.4190	0.000399
940.6601	0.000547
940.9012	0.002383
941.1422	0.000716
941.3833	0.001623
941.6244	0.000315
941.8655	0.001032
942.1066	0.001834
942.3477	0.001391
942.5889	0.000652
942.8300	0.001707
943.0711	0.002319
943.3123	0.000673
943.5534	0.002404
943.7946	0.001475
944.0357	0.001961
944.2769	0.000505
944.5181	0.000821
944.7593	0.001032
945.0005	0.002551
945.2417	0.000420
945.4829	0.002151
945.7241	0.000568
945.9653	0.000863
946.2066	0.001264
946.4478	0.001792
946.6891	0.000716
946.9303	0.003754
947.1716	0.001813
947.4128	0.000547
947.6541	0.000547
947.8954	0.000863
948.1367	0.001961
948.3780	0.001138
948.6193	0.000758
948.8606	0.000315
949.1019	0.000652
949.3433	0.001307
949.5846	0.000842
949.8259	0.001095
950.0673	0.001053
950.3086	0.002446
950.5500	0.001644
950.7914	0.001370
951.0327	0.000863
951.2741	0.001792
951.5155	0.001053
951.7569	0.001264
951.9983	0.001201
952.2398	0.001623
952.4812	0.002362
952.7226	0.001074
952.9640	0.001412
953.2055	0.001011
953.4469	0.002045
953.6884	0.001243
953.9299	0.003628
954.1713	0.001518
954.4128	0.000906
954.6543	0.001918
954.8958	0.000484
955.1373	0.002066
955.3788	0.002678
955.6203	0.000842
955.8618	-0.000213
956.1034	0.000547
956.3449	0.000336
956.5865	0.000884
956.8280	0.000526
957.0696	0.001433
957.3111	0.002024
957.5527	0.001328
957.7943	0.000821
958.0359	0.000821
958.2775	0.001011
958.5191	0.002383
958.7607	0.001433
959.0023	0.000484
959.2439	0.001264
959.4856	0.001412
959.7272	0.000948
959.9688	0.001897
960.2105	0.000673
960.4522	0.000315
960.6938	0.002129
960.9355	0.000652
961.1772	0.000188
961.4189	0.001982
961.6606	0.000737
961.9023	0.001095
962.1440	-0.000128
962.3857	-0.000044
962.6274	0.001560
962.8692	0.000821
963.1109	0.000568
963.3527	0.001876
963.5944	0.000019
963.8362	0.003121
964.0779	0.001264
964.3197	0.001349
964.5615	-0.000023
964.8033	0.000230
965.0451	0.001011
965.2869	0.001750
965.5287	-0.000171
965.7705	0.001707
966.0123	-0.000171
966.2542	0.001180
966.4960	0.001074
966.7379	0.001750
966.9797	0.001454
967.2216	0.002362
967.4634	-0.000424
967.7053	0.000652
967.9472	0.001307
968.1891	0.000758
968.4310	0.001349
968.6729	0.000040
968.9148	0.000610
969.1567	0.000863
969.3987	0.001433
969.6406	0.000927
969.8825	0.000673
970.1245	0.001433
970.3664	0.000315
970.6084	0.000547
970.8504	0.000716
971.0923	0.000716
971.3343	0.001750
971.5763	0.000990
971.8183	0.001518
972.0603	0.000779
972.3023	-0.000192
972.5443	0.000589
972.7864	0.000568
973.0284	0.001750
973.2704	0.000251
973.5125	-0.000297
973.7545	0.000695
973.9966	0.000273
974.2387	0.000821
974.4807	0.001750
974.7228	0.000821
974.9649	0.001074
975.2070	0.000526
975.4491	0.000969
975.6912	0.000990
975.9333	0.000125
976.1755	0.000927
976.4176	0.001518
976.6597	0.000589
976.9019	0.001391
977.1440	0.000758
977.3862	0.000758
977.6283	0.000716
977.8705	0.000631
978.1127	0.000462
978.3549	0.001243
978.5971	0.002003
978.8393	0.000779
979.0815	0.000167
979.3237	0.001518
979.5659	0.000462
979.8082	-0.000382
980.0504	-0.000002
980.2926	0.001243
980.5349	0.000019
980.7771	0.000821
981.0194	0.001370
981.2617	0.000484
981.5040	0.000315
981.7462	0.000737
981.9885	0.000526
982.2308	0.000568
982.4731	0.000652
982.7155	0.001243
982.9578	-0.000044
983.2001	0.000420
983.4424	0.000251
983.6848	0.001307
983.9271	0.000209
984.1695	0.000863
984.4118	0.000716
984.6542	0.001095
984.8966	-0.000382
985.1390	0.001222
985.3814	-0.000023
985.6238	0.001138
985.8662	0.000927
986.1086	0.001665
986.3510	0.000230
986.5934	-0.000002
986.8358	0.000969
987.0783	0.000251
987.3207	0.001349
987.5632	0.000631
987.8056	0.000378
988.0481	0.000969
988.2906	0.000568
988.5331	0.000484
988.7756	-0.000466
989.0180	0.000526
989.2605	-0.000445
989.5031	0.000167
989.7456	0.000927
989.9881	0.002720
990.2306	0.000167
990.4732	0.000969
990.7157	0.000969
990.9582	0.001328
991.2008	-0.000002
991.4434	0.002615
991.6859	-0.000360
991.9285	0.000547
992.1711	-0.000424
992.4137	0.000948
992.6563	-0.000107
992.8989	0.001454
993.1415	-0.000614
993.3841	-0.000149
993.6267	0.000273
993.8694	0.000441
994.1120	0.000378
994.3547	0.001138
994.5973	0.002066
994.8400	0.000441
995.0826	-0.001711
995.3253	-0.000213
995.5680	-0.000466
995.8107	-0.000403
996.0534	0.002530
996.2961	0.001095
996.5388	0.000336
996.7815	0.001750
997.0242	-0.000614
997.2670	-0.000466
997.5097	0.001243
997.7524	0.001412
997.9952	-0.000550
998.2379	-0.000909
998.4807	0.000568
998.7235	0.001686
998.9662	0.000399
999.2090	0.000758
999.4518	0.000737
999.6946	0.000927
999.9374	0.001665
1000.1802	-0.000508
1000.4230	-0.000782
1000.6659	-0.000107
1000.9087	-0.000424
1001.1515	0.000673
1001.3944	-0.000909
1001.6372	0.000273
1001.8801	0.001117
1002.1230	0.000083
1002.3658	0.001454
1002.6087	0.000758
1002.8516	-0.000593
1003.0945	0.001581
1003.3374	0.001518
1003.5803	0.001391
1003.8232	0.000146
1004.0661	0.000040
1004.3091	0.000927
1004.5520	-0.001036
1004.7949	0.000737
1005.0379	-0.000171
1005.2808	0.001243
1005.5238	-0.001078
1005.7667	0.000652
1006.0097	0.000441
1006.2527	0.001623
1006.4957	-0.001036
1006.7387	0.000800
1006.9817	0.000547
1007.2247	-0.000023
1007.4677	-0.000677
1007.7107	0.001264
1007.9538	0.000927
1008.1968	0.000040
1008.4398	0.000315
1008.6829	0.001264
1008.9259	0.000399
1009.1690	-0.000107
1009.4121	-0.001205
1009.6551	0.001285
1009.8982	-0.001226
1010.1413	0.000420
1010.3844	0.000631
1010.6275	0.000652
1010.8706	0.000019
1011.1137	0.001032
1011.3568	0.000969
1011.6000	0.000336
1011.8431	0.000863
1012.0863	0.000146
1012.3294	-0.000086
1012.5726	0.000399
1012.8157	0.000927
1013.0589	0.001623
1013.3021	-0.000213
1013.5452	0.001792
1013.7884	0.001138
1014.0316	0.001813
1014.2748	-0.000719
1014.5180	0.000420
1014.7613	-0.000023
1015.0045	0.001011
1015.2477	-0.000002
1015.4909	0.000167
1015.7342	-0.000614
1015.9774	0.001918
1016.2207	-0.000128
1016.4640	0.001792
1016.7072	0.000146
1016.9505	0.000568
1017.1938	-0.000529
1017.4371	0.001011
1017.6804	0.001623
1017.9237	0.001074
1018.1670	-0.000044
1018.4103	-0.000044
1018.6536	0.001412
1018.8969	0.000420
1019.1403	0.000378
1019.3836	0.001159
1019.6270	0.000906
1019.8703	0.002129
1020.1137	0.000399
1020.3571	0.000062
1020.6004	0.000779
1020.8438	0.000547
1021.0872	-0.000888
1021.3306	0.001665
1021.5740	0.001264
1021.8174	-0.000044
1022.0608	0.002193
1022.3042	0.001138
1022.5477	-0.000782
1022.7911	-0.000044
1023.0345	-0.000382
