# Wavelength (nm)	Intensity (a.u.)
197.7802	0.000847
197.9842	0.000552
198.1882	0.000847
198.3922	0.000974
198.5963	0.000151
198.8003	-0.000482
199.0044	0.001501
199.2085	0.001142
199.4126	0.000742
199.6168	0.001501
199.8209	0.000468
200.0251	0.001585
200.2292	0.001269
200.4334	0.000446
200.6376	0.000278
200.8418	0.001606
201.0461	0.001332
201.2503	0.001628
201.4546	0.001353
201.6589	0.001311
201.8631	0.001733
202.0674	0.001121
202.2718	0.001206
202.4761	0.001058
202.6805	0.000193
202.8848	0.001459
203.0892	0.001185
203.2936	0.000953
203.4980	0.000130
203.7024	0.001522
203.9069	0.000278
204.1113	-0.000967
204.3158	0.000531
204.5203	0.001733
204.7248	0.001332
204.9293	-0.000524
205.1338	0.001227
205.3384	0.000214
205.5430	0.002070
205.7475	0.000974
205.9521	0.001311
206.1567	0.001733
206.3614	0.000425
206.5660	0.000130
206.7706	0.002661
206.9753	0.000130
207.1800	0.000172
207.3847	-0.000207
207.5894	0.000257
207.7941	0.001016
207.9989	0.000046
208.2036	0.001501
208.4084	0.001311
208.6132	0.000510
208.8180	0.000889
209.0228	0.001923
209.2276	0.001206
209.4325	0.001543
209.6373	0.000573
209.8422	0.000320
210.0471	0.000889
210.2520	0.000763
210.4569	0.001817
210.6618	0.000953
210.8668	0.001016
211.0718	0.001796
211.2767	0.000468
211.4817	0.000847
211.6867	0.000742
211.8918	0.000151
212.0968	0.002787
212.3018	0.000573
212.5069	0.001522
212.7120	0.001248
212.9171	0.002239
213.1222	0.000109
213.3273	0.001564
213.5325	-0.000123
213.7376	0.000257
213.9428	0.000805
214.1480	0.001290
214.3532	0.000151
214.5584	0.001332
214.7636	0.001585
214.9689	0.000805
215.1741	0.001817
215.3794	-0.000840
215.5847	0.000214
215.7900	0.001543
215.9953	0.000489
216.2007	0.000932
216.4060	0.002218
216.6114	0.000847
216.8168	0.001396
217.0222	0.000721
217.2276	0.000805
217.4330	0.000784
217.6384	0.000446
217.8439	0.001290
218.0494	0.000004
218.2548	0.001796
218.4603	0.000594
218.6659	0.001881
218.8714	0.000784
219.0769	0.000383
219.2825	-0.000018
219.4881	0.001585
219.6936	0.000889
219.8992	0.002471
220.1049	0.000700
220.3105	0.000657
220.5161	0.000151
220.7218	0.001037
220.9275	0.001121
221.1332	0.000468
221.3389	0.000974
221.5446	0.001058
221.7503	0.000636
221.9561	0.001121
222.1618	-0.000123
222.3676	0.001332
222.5734	0.000425
222.7792	0.000425
222.9850	-0.000123
223.1909	0.001164
223.3967	0.000657
223.6026	0.000552
223.8085	0.001290
224.0144	0.000046
224.2203	0.002134
224.4262	0.000995
224.6322	0.001332
224.8381	0.001227
225.0441	0.001206
225.2501	0.000151
225.4561	0.001079
225.6621	0.000615
225.8681	0.000320
226.0742	0.000489
226.2802	-0.000018
226.4863	0.001058
226.6924	0.000362
226.8985	0.001459
227.1046	0.000742
227.3107	0.000847
227.5169	0.001058
227.7230	0.000468
227.9292	0.002513
228.1354	0.000953
228.3416	-0.000271
228.5478	0.001944
228.7541	0.001121
228.9603	0.000552
229.1666	0.000299
229.3729	0.001649
229.5791	0.001332
229.7855	0.001649
229.9918	-0.000271
230.1981	0.000446
230.4045	0.000763
230.6108	0.000278
230.8172	0.000700
231.0236	0.000531
231.2300	0.000404
231.4364	0.002429
231.6429	0.000910
231.8493	0.001396
232.0558	0.000362
232.2623	0.002450
232.4688	0.001079
232.6753	0.000404
232.8818	0.000151
233.0884	0.000236
233.2949	0.000889
233.5015	0.002091
233.7081	0.000320
233.9147	0.001206
234.1213	-0.000271
234.3279	0.000510
234.5346	0.001691
234.7413	0.002113
234.9479	0.000657
235.1546	0.003483
235.3613	0.000932
235.5680	0.001860
235.7748	0.001501
235.9815	0.000552
236.1883	0.000151
236.3951	0.001628
236.6018	-0.000207
236.8087	0.001142
237.0155	0.000742
237.2223	0.001564
237.4292	0.001585
237.6360	0.001628
237.8429	0.001185
238.0498	0.000889
238.2567	0.001396
238.4636	0.001016
238.6706	0.001353
238.8775	0.001670
239.0845	-0.000355
239.2915	0.002260
239.4985	0.000468
239.7055	0.000151
239.9125	0.000425
240.1195	0.000151
240.3266	0.001206
240.5337	-0.001388
240.7407	0.000678
240.9478	0.000721
241.1549	0.001628
241.3621	0.001923
241.5692	0.000552
241.7764	0.001058
241.9835	0.000678
242.1907	0.002851
242.3979	0.000109
242.6051	-0.000271
242.8124	0.001185
243.0196	0.001754
243.2269	0.000278
243.4341	0.000826
243.6414	0.000847
243.8487	0.000552
244.0560	-0.000671
244.2634	0.000531
244.4707	0.000805
244.6781	0.001585
244.8854	0.002028
245.0928	0.001585
245.3002	0.000531
245.5076	0.002492
245.7151	0.001164
245.9225	0.001902
246.1300	0.000868
246.3375	0.001860
246.5449	-0.000334
246.7524	0.003209
246.9600	0.001227
247.1675	0.002619
247.3750	-0.000798
247.5826	0.001353
247.7902	-0.000186
247.9978	0.001796
248.2054	0.001311
248.4130	0.001396
248.6206	0.001796
248.8283	0.003019
249.0359	0.000974
249.2436	0.001796
249.4513	0.001079
249.6590	0.001564
249.8667	0.001649
250.0745	0.001965
250.2822	0.002007
250.4900	0.001691
250.6978	0.001417
250.9056	0.001670
251.1134	0.000742
251.3212	0.000700
251.5290	-0.000692
251.7369	0.001628
251.9447	0.001543
252.1526	0.002471
252.3605	0.000847
252.5684	-0.000355
252.7763	0.000046
252.9843	-0.000081
253.1922	0.001628
253.4002	0.002028
253.6082	-0.000418
253.8162	0.002070
254.0242	0.000995
254.2322	0.000214
254.4402	-0.000692
254.6483	-0.000397
254.8564	0.000067
255.0644	0.001459
255.2725	0.002281
255.4806	0.001311
255.6888	-0.000165
255.8969	0.001838
256.1051	0.001944
256.3132	0.001543
256.5214	0.000953
256.7296	0.001290
256.9378	0.001248
257.1460	0.001606
257.3543	0.000425
257.5625	0.001775
257.7708	0.000889
257.9791	0.001986
258.1874	0.000932
258.3957	0.001332
258.6040	0.001860
258.8124	0.000510
259.0207	0.001227
259.2291	0.001564
259.4375	0.001649
259.6459	0.000742
259.8543	0.001164
260.0627	0.002091
260.2711	0.000953
260.4796	0.001754
260.6881	0.000214
260.8965	0.001417
261.1050	-0.000608
261.3135	0.000615
261.5221	0.001016
261.7306	0.001649
261.9392	0.001396
262.1477	0.002028
262.3563	0.000953
262.5649	0.000172
262.7735	0.001206
262.9822	0.002577
263.1908	-0.000271
263.3995	0.001838
263.6081	0.001311
263.8168	0.000172
264.0255	0.000763
264.2342	0.000193
264.4429	-0.001072
264.6517	0.001480
264.8604	0.000425
265.0692	0.001628
265.2780	0.000953
265.4868	0.001543
265.6956	0.000257
265.9044	0.001564
266.1133	0.000932
266.3221	0.001860
266.5310	0.000489
266.7399	0.000299
266.9488	0.001881
267.1577	0.000636
267.3666	0.002049
267.5755	0.000974
267.7845	0.000826
267.9935	0.000130
268.2024	0.000236
268.4114	0.001058
268.6205	0.000700
268.8295	0.000784
269.0385	0.000278
269.2476	0.000889
269.4566	0.000109
269.6657	0.001438
269.8748	0.000636
270.0839	0.002239
270.2931	-0.000460
270.5022	0.000721
270.7114	-0.000207
270.9205	0.001374
271.1297	0.001438
271.3389	0.002134
271.5481	0.000721
271.7573	0.001290
271.9666	0.001817
272.1758	0.002914
272.3851	0.002366
272.5944	0.001142
272.8037	0.000151
273.0130	0.000805
273.2223	0.001733
273.4316	0.001712
273.6410	0.001290
273.8504	0.000446
274.0597	0.000383
274.2691	0.001564
274.4785	0.000847
274.6880	0.001923
274.8974	0.001227
275.1069	-0.000671
275.3163	0.001438
275.5258	0.000636
275.7353	-0.000460
275.9448	0.001353
276.1543	0.000615
276.3639	0.001037
276.5734	0.001206
276.7830	0.000446
276.9926	0.000784
277.2022	0.001923
277.4118	0.000425
277.6214	0.002155
277.8310	0.002070
278.0407	0.001459
278.2503	0.001100
278.4600	0.001206
278.6697	0.000889
278.8794	0.000299
279.0891	0.000805
279.2989	0.000910
279.5086	0.000868
279.7184	0.001754
279.9281	0.000446
280.1379	0.001121
280.3477	0.000995
280.5576	0.001986
280.7674	0.000932
280.9772	0.001248
281.1871	-0.000313
281.3970	0.000446
281.6069	0.000594
281.8168	0.000784
282.0267	0.001311
282.2366	0.001374
282.4466	0.000953
282.6565	-0.000060
282.8665	0.001438
283.0765	0.000552
283.2865	0.002197
283.4965	0.000826
283.7065	0.001290
283.9166	0.000953
284.1266	-0.000418
284.3367	0.000953
284.5468	0.000847
284.7569	0.002176
284.9670	0.001396
285.1771	0.000847
285.3873	-0.000524
285.5974	0.000383
285.8076	0.000468
286.0178	0.001438
286.2280	-0.000250
286.4382	0.000700
286.6484	0.000404
286.8587	0.001923
287.0689	0.000193
287.2792	-0.000250
287.4895	-0.000503
287.6998	0.001480
287.9101	0.000383
288.1204	0.000742
288.3308	0.000510
288.5411	0.001649
288.7515	-0.000207
288.9619	0.000953
289.1723	-0.000271
289.3827	0.002260
289.5931	0.000636
289.8035	-0.000671
290.0140	0.001142
290.2245	0.001712
290.4349	-0.001072
290.6454	0.001332
290.8559	0.000742
291.0665	0.000974
291.2770	0.001121
291.4875	0.000995
291.6981	0.001353
291.9087	0.000067
292.1193	0.001501
292.3299	0.001817
292.5405	0.000953
292.7511	0.001164
292.9618	-0.000903
293.1724	0.001290
293.3831	-0.000545
293.5938	0.001079
293.8045	0.000678
294.0152	0.000721
294.2260	-0.000608
294.4367	0.001185
294.6475	0.001185
294.8582	0.002323
295.0690	0.002049
295.2798	0.000510
295.4906	-0.000018
295.7015	0.002091
295.9123	0.001712
296.1232	0.001817
296.3340	-0.000228
296.5449	0.001775
296.7558	0.001860
296.9667	0.001100
297.1777	0.001100
297.3886	0.001480
297.5995	0.000425
297.8105	0.001649
298.0215	0.000868
298.2325	0.001248
298.4435	0.000531
298.6545	0.001649
298.8656	0.001585
299.0766	0.001227
299.2877	-0.000545
299.4988	0.001332
299.7099	0.001543
299.9210	0.002851
300.1321	0.002049
300.3432	0.001543
300.5544	0.000953
300.7655	0.000404
300.9767	-0.000650
301.1879	0.001142
301.3991	0.001248
301.6103	0.001860
301.8215	0.003019
302.0328	0.001754
302.2441	0.000552
302.4553	0.000742
302.6666	0.001670
302.8779	0.001374
303.0892	0.001100
303.3006	0.001733
303.5119	0.001733
303.7233	0.001438
303.9346	0.001628
304.1460	0.000468
304.3574	-0.000018
304.5688	0.001670
304.7803	0.001248
304.9917	0.000573
305.2031	-0.000861
305.4146	0.002091
305.6261	0.000657
305.8376	0.001480
306.0491	0.000784
306.2606	0.001585
306.4722	0.000678
306.6837	0.001438
306.8953	0.001606
307.1069	0.001670
307.3184	0.001712
307.5301	0.001206
307.7417	0.000404
307.9533	0.002366
308.1650	0.000552
308.3766	0.001775
308.5883	0.002134
308.8000	0.002323
309.0117	0.002070
309.2234	0.001817
309.4351	0.000552
309.6469	0.000573
309.8586	0.002091
310.0704	0.002745
310.2822	-0.000102
310.4940	0.002809
310.7058	0.001944
310.9176	0.001564
311.1295	0.000678
311.3413	0.001438
311.5532	0.002239
311.7651	0.001670
311.9770	0.001248
312.1889	0.001670
312.4008	0.000742
312.6127	0.001079
312.8247	0.002408
313.0366	0.001628
313.2486	0.002091
313.4606	0.001311
313.6726	0.002281
313.8846	0.002007
314.0967	-0.000271
314.3087	0.002935
314.5208	0.000615
314.7328	0.002809
314.9449	0.001881
315.1570	0.002555
315.3692	0.001438
315.5813	0.001332
315.7934	-0.000123
316.0056	0.001079
316.2177	0.001353
316.4299	0.003863
316.6421	0.001227
316.8543	0.000784
317.0666	0.003842
317.2788	0.001860
317.4911	0.001754
317.7033	0.002555
317.9156	0.002387
318.1279	0.002070
318.3402	0.002281
318.5525	0.002513
318.7649	0.001374
318.9772	0.001374
319.1896	0.000425
319.4019	0.002387
319.6143	0.001796
319.8267	0.001838
320.0392	0.002471
320.2516	0.003062
320.4640	0.003209
320.6765	0.002471
320.8890	-0.000376
321.1014	0.002049
321.3139	0.001881
321.5265	0.004158
321.7390	0.002914
321.9515	0.003863
322.1641	0.001733
322.3766	0.003294
322.5892	0.002218
322.8018	0.003315
323.0144	0.001881
323.2270	0.002091
323.4397	0.003462
323.6523	0.003167
323.8650	0.001754
324.0777	0.003273
324.2904	0.001628
324.5031	0.002851
324.7158	0.002998
324.9285	0.002429
325.1412	0.003146
325.3540	0.004939
325.5668	0.002302
325.7796	0.003589
325.9924	0.002661
326.2052	0.004939
326.4180	0.003125
326.6308	0.004580
326.8437	0.004833
327.0566	0.003420
327.2694	0.003104
327.4823	0.002851
327.6952	0.003209
327.9082	0.004643
328.1211	0.002724
328.3340	0.003230
328.5470	0.004032
328.7600	0.003062
328.9730	0.002724
329.1860	0.004665
329.3990	0.002661
329.6120	0.005930
329.8251	0.002408
330.0381	0.004179
330.2512	0.004179
330.4643	0.003800
330.6774	0.005487
330.8905	0.005065
331.1036	0.002682
331.3167	0.004897
331.5299	0.004538
331.7431	0.003526
331.9562	0.005487
332.1694	0.004812
332.3826	0.004116
332.5959	0.006078
332.8091	0.004032
333.0223	0.004454
333.2356	0.004264
333.4489	0.004643
333.6622	0.004011
333.8755	0.004791
334.0888	0.003715
334.3021	0.006753
334.5154	0.004580
334.7288	0.004601
334.9422	0.004686
335.1555	0.004517
335.3689	0.006289
335.5823	0.004179
335.7958	0.005529
336.0092	0.005782
336.2227	0.004875
336.4361	0.005740
336.6496	0.006331
336.8631	0.005044
337.0766	0.006963
337.2901	0.005930
337.5036	0.005171
337.7172	0.005023
337.9307	0.006183
338.1443	0.006563
338.3579	0.004538
338.5715	0.006141
338.7851	0.006078
338.9987	0.004559
339.2124	0.006837
339.4260	0.004643
339.6397	0.005023
339.8533	0.006310
340.0670	0.004791
340.2807	0.006710
340.4945	0.006795
340.7082	0.006436
340.9219	0.006373
341.1357	0.005466
341.3495	0.004854
341.5633	0.004875
341.7771	0.006373
341.9909	0.006289
342.2047	0.007027
342.4185	0.007870
342.6324	0.006942
342.8463	0.007195
343.0601	0.005656
343.2740	0.006795
343.4879	0.007997
343.7019	0.006436
343.9158	0.006415
344.1297	0.007786
344.3437	0.007069
344.5577	0.008313
344.7717	0.006563
344.9857	0.007533
345.1997	0.006942
345.4137	0.007723
345.6277	0.006605
345.8418	0.006900
346.0559	0.007723
346.2699	0.007090
346.4840	0.009136
346.6981	0.005297
346.9123	0.006183
347.1264	0.008060
347.3406	0.008461
347.5547	0.007090
347.7689	0.007723
347.9831	0.009389
348.1973	0.008587
348.4115	0.008461
348.6257	0.008334
348.8400	0.007807
349.0542	0.008524
349.2685	0.008988
349.4828	0.008862
349.6971	0.009051
349.9114	0.008145
350.1257	0.007828
350.3400	0.010085
350.5544	0.008693
350.7687	0.008672
350.9831	0.007702
351.1975	0.007449
351.4119	0.008841
351.6263	0.009515
351.8407	0.009199
352.0552	0.008819
352.2696	0.010507
352.4841	0.009241
352.6986	0.009262
352.9131	0.008292
353.1276	0.009431
353.3421	0.009094
353.5566	0.008946
353.7712	0.010022
353.9858	0.008862
354.2003	0.009073
354.4149	0.009874
354.6295	0.008946
354.8441	0.010781
355.0588	0.010127
355.2734	0.009600
355.4881	0.009241
355.7027	0.010570
355.9174	0.008735
356.1321	0.010865
356.3468	0.009979
356.5615	0.010528
356.7763	0.009241
356.9910	0.009642
357.2058	0.010823
357.4206	0.009979
357.6353	0.009452
357.8501	0.010886
358.0650	0.010380
358.2798	0.010633
358.4946	0.009305
358.7095	0.011076
358.9243	0.008630
359.1392	0.010950
359.3541	0.009305
359.5690	0.009262
359.7839	0.010106
359.9989	0.010254
360.2138	0.010528
360.4288	0.011308
360.6438	0.010443
360.8587	0.010443
361.0737	0.010760
361.2888	0.012131
361.5038	0.011308
361.7188	0.009937
361.9339	0.010633
362.1489	0.011730
362.3640	0.011055
362.5791	0.010317
362.7942	0.011561
363.0093	0.011814
363.2245	0.010570
363.4396	0.010718
363.6548	0.010211
363.8699	0.010401
364.0851	0.010211
364.3003	0.010823
364.5155	0.012173
364.7308	0.012089
364.9460	0.010823
365.1612	0.010781
365.3765	0.012658
365.5918	0.011646
365.8071	0.010823
366.0224	0.012426
366.2377	0.013059
366.4530	0.014240
366.6684	0.012194
366.8837	0.010380
367.0991	0.012553
367.3145	0.012721
367.5299	0.012321
367.7453	0.012742
367.9607	0.012152
368.1761	0.013291
368.3916	0.012700
368.6070	0.014493
368.8225	0.013291
369.0380	0.013270
369.2535	0.012932
369.4690	0.013712
369.6845	0.013649
369.9001	0.014282
370.1156	0.012173
370.3312	0.013080
370.5468	0.012806
370.7624	0.013987
370.9780	0.013017
371.1936	0.012700
371.4092	0.013270
371.6249	0.013712
371.8405	0.014746
372.0562	0.014008
372.2719	0.013038
372.4876	0.015547
372.7033	0.013249
372.9190	0.014493
373.1348	0.013544
373.3505	0.014788
373.5663	0.016032
373.7820	0.014408
373.9978	0.014472
374.2136	0.015695
374.4294	0.014725
374.6453	0.016665
374.8611	0.015421
375.0770	0.015547
375.2928	0.014683
375.5087	0.016855
375.7246	0.016475
375.9405	0.016834
376.1564	0.017720
376.3724	0.018120
376.5883	0.016982
376.8043	0.017614
377.0203	0.017340
377.2362	0.019639
377.4522	0.019681
377.6682	0.017614
377.8843	0.018606
378.1003	0.017509
378.3164	0.019470
378.5324	0.019681
378.7485	0.021136
378.9646	0.020230
379.1807	0.021390
379.3968	0.020609
379.6129	0.019386
379.8291	0.020546
380.0452	0.020272
380.2614	0.020799
380.4776	0.020546
380.6938	0.018479
380.9100	0.021769
381.1262	0.019808
381.3424	0.021622
381.5587	0.019998
381.7749	0.019449
381.9912	0.022043
382.2075	0.020968
382.4238	0.021537
382.6401	0.023372
382.8564	0.024363
383.0728	0.022254
383.2891	0.023351
383.5055	0.023604
383.7219	0.021769
383.9382	0.022887
384.1546	0.023098
384.3711	0.022486
384.5875	0.022550
384.8039	0.024954
385.0204	0.023056
385.2368	0.023267
385.4533	0.023224
385.6698	0.022528
385.8863	0.024954
386.1028	0.024110
386.3194	0.022486
386.5359	0.023478
386.7525	0.023604
386.9690	0.023646
387.1856	0.024152
387.4022	0.024806
387.6188	0.025038
387.8355	0.025333
388.0521	0.026177
388.2687	0.026093
388.4854	0.024996
388.7021	0.026346
388.9188	0.027337
389.1355	0.026283
389.3522	0.026008
389.5689	0.024743
389.7856	0.026557
390.0024	0.024427
390.2192	0.025882
390.4359	0.025376
390.6527	0.025797
390.8695	0.026725
391.0863	0.028286
391.3032	0.027464
391.5200	0.026641
391.7369	0.026599
391.9537	0.027189
392.1706	0.027379
392.3875	0.029573
392.6044	0.031914
392.8213	0.028940
393.0383	0.031450
393.2552	0.031703
393.4722	0.028792
393.6891	0.029847
393.9061	0.028792
394.1231	0.028982
394.3401	0.029741
394.5572	0.029910
394.7742	0.028560
394.9912	0.030965
395.2083	0.029299
395.4254	0.029256
395.6425	0.030121
395.8596	0.031239
396.0767	0.029404
396.2938	0.030290
396.5109	0.031766
396.7281	0.031576
396.9453	0.032715
397.1624	0.032926
397.3796	0.033854
397.5968	0.034234
397.8140	0.033179
398.0313	0.036722
398.2485	0.035077
398.4658	0.036870
398.6830	0.036976
398.9003	0.036638
399.1176	0.034550
399.3349	0.036997
399.5522	0.035647
399.7696	0.034234
399.9869	0.034360
400.2043	0.033285
400.4216	0.034171
400.6390	0.034845
400.8564	0.033580
401.0738	0.032863
401.2912	0.034909
401.5087	0.034149
401.7261	0.033348
401.9436	0.032715
402.1610	0.032399
402.3785	0.032989
402.5960	0.033939
402.8135	0.032441
403.0310	0.035225
403.2486	0.034381
403.4661	0.034023
403.6837	0.035077
403.9013	0.034571
404.1189	0.034571
404.3365	0.034803
404.5541	0.035162
404.7717	0.036111
404.9893	0.035563
405.2070	0.035141
405.4246	0.036448
405.6423	0.038536
405.8600	0.038051
406.0777	0.036807
406.2954	0.036132
406.5131	0.035204
406.7309	0.033285
406.9486	0.034613
407.1664	0.035394
407.3842	0.034044
407.6020	0.032504
407.8198	0.032884
408.0376	0.034107
408.2554	0.035077
408.4733	0.034698
408.6911	0.037819
408.9090	0.034867
409.1269	0.034635
409.3448	0.035752
409.5627	0.035668
409.7806	0.037714
409.9985	0.036301
410.2165	0.033854
410.4344	0.035331
410.6524	0.033622
410.8704	0.035373
411.0884	0.034487
411.3064	0.035162
411.5244	0.036048
411.7424	0.034909
411.9605	0.035162
412.1785	0.035246
412.3966	0.034951
412.6147	0.035731
412.8328	0.036111
413.0509	0.038389
413.2690	0.035816
413.4871	0.037714
413.7053	0.037313
413.9234	0.036849
414.1416	0.035837
414.3598	0.035520
414.5780	0.034339
414.7962	0.035415
415.0144	0.038199
415.2326	0.035056
415.4509	0.037946
415.6692	0.032989
415.8874	0.036132
416.1057	0.038136
416.3240	0.038157
416.5423	0.036954
416.7606	0.036638
416.9790	0.036259
417.1973	0.036111
417.4157	0.035204
417.6341	0.036153
417.8524	0.036069
418.0708	0.033939
418.2893	0.035394
418.5077	0.036322
418.7261	0.037123
418.9446	0.036680
419.1630	0.037186
419.3815	0.035731
419.6000	0.037587
419.8185	0.038241
420.0370	0.038473
420.2555	0.039633
420.4741	0.041700
420.6926	0.040603
420.9112	0.039928
421.1298	0.042122
421.3483	0.043914
421.5669	0.045159
421.7856	0.046551
422.0042	0.044737
422.2228	0.043366
422.4415	0.044758
422.6601	0.042839
422.8788	0.044547
423.0975	0.044231
423.3162	0.043387
423.5349	0.042712
423.7536	0.042607
423.9724	0.041805
424.1911	0.041848
424.4099	0.041805
424.6287	0.039106
424.8475	0.042670
425.0663	0.042058
425.2851	0.041869
425.5039	0.041025
425.7228	0.040139
425.9416	0.039296
426.1605	0.037650
426.3793	0.037946
426.5982	0.037967
426.8171	0.036617
427.0361	0.038874
427.2550	0.040603
427.4739	0.042037
427.6929	0.042269
427.9118	0.043261
428.1308	0.038958
428.3498	0.040224
428.5688	0.040709
428.7878	0.039506
429.0068	0.041594
429.2259	0.041447
429.4449	0.043830
429.6640	0.044336
429.8831	0.049714
430.1022	0.049525
430.3213	0.048407
430.5404	0.048491
430.7595	0.047162
430.9787	0.046298
431.1978	0.047078
431.4170	0.043682
431.6362	0.041004
431.8553	0.040456
432.0745	0.039696
432.2938	0.039359
432.5130	0.041489
432.7322	0.040287
432.9515	0.039823
433.1707	0.040055
433.3900	0.038958
433.6093	0.046677
433.8286	0.047226
434.0479	0.051254
434.2673	0.046846
434.4866	0.043514
434.7059	0.043936
434.9253	0.043809
435.1447	0.042016
435.3641	0.043197
435.5835	0.043113
435.8029	0.040477
436.0223	0.042333
436.2418	0.042354
436.4612	0.045813
436.6807	0.046002
436.9001	0.045981
437.1196	0.044526
437.3391	0.043830
437.5586	0.043999
437.7782	0.043788
437.9977	0.043387
438.2173	0.044842
438.4368	0.044442
438.6564	0.046171
438.8760	0.045117
439.0956	0.044864
439.3152	0.045391
439.5348	0.044442
439.7545	0.045180
439.9741	0.045686
440.1938	0.046213
440.4135	0.045328
440.6331	0.043978
440.8528	0.046551
441.0725	0.051929
441.2923	0.053722
441.5120	0.055114
441.7318	0.055662
441.9515	0.055050
442.1713	0.055219
442.3911	0.052393
442.6109	0.053173
442.8307	0.050706
443.0505	0.051781
443.2703	0.052330
443.4902	0.051296
443.7101	0.055683
443.9299	0.055050
444.1498	0.057202
444.3697	0.053933
444.5896	0.053300
444.8095	0.054481
445.0295	0.055325
445.2494	0.053574
445.4694	0.055767
445.6894	0.051022
445.9093	0.052140
446.1293	0.054165
446.3493	0.053089
446.5694	0.053595
446.7894	0.053954
447.0094	0.055767
447.2295	0.053089
447.4496	0.053722
447.6696	0.053237
447.8897	0.051402
448.1098	0.050453
448.3300	0.049609
448.5501	0.052667
448.7702	0.050094
448.9904	0.051528
449.2106	0.052857
449.4307	0.053405
449.6509	0.050811
449.8711	0.050685
450.0914	0.051655
450.3116	0.052667
450.5318	0.049377
450.7521	0.050685
450.9724	0.048702
451.1926	0.050284
451.4129	0.050495
451.6332	0.049145
451.8535	0.049398
452.0739	0.048829
452.2942	0.050474
452.5146	0.049208
452.7349	0.048027
452.9553	0.047479
453.1757	0.047774
453.3961	0.047837
453.6165	0.046213
453.8369	0.048069
454.0574	0.045834
454.2778	0.047542
454.4983	0.045117
454.7188	0.044653
454.9393	0.047352
455.1597	0.047226
455.3803	0.047310
455.6008	0.049482
455.8213	0.046720
456.0419	0.048449
456.2624	0.045686
456.4830	0.048196
456.7036	0.045665
456.9242	0.047078
457.1448	0.046488
457.3654	0.048280
457.5860	0.050221
457.8067	0.051760
458.0274	0.052077
458.2480	0.053194
458.4687	0.053005
458.6894	0.050389
458.9101	0.052730
459.1308	0.053658
459.3516	0.050326
459.5723	0.051191
459.7931	0.051149
460.0138	0.053933
460.2346	0.054059
460.4554	0.051127
460.6762	0.049925
460.8970	0.050790
461.1178	0.051381
461.3387	0.052119
461.5595	0.051106
461.7804	0.047711
462.0013	0.048196
462.2222	0.043957
462.4431	0.045201
462.6640	0.045939
462.8849	0.044990
463.1059	0.045370
463.3268	0.048365
463.5478	0.050959
463.7687	0.049356
463.9897	0.052309
464.2107	0.052245
464.4317	0.052688
464.6528	0.055662
464.8738	0.056695
465.0948	0.057834
465.3159	0.056843
465.5370	0.057434
465.7581	0.064183
465.9792	0.059606
466.2003	0.056653
466.4214	0.053764
466.6425	0.052709
466.8637	0.050832
467.0848	0.049693
467.3060	0.049693
467.5272	0.049946
467.7484	0.048681
467.9696	0.049398
468.1908	0.048660
468.4120	0.049335
468.6333	0.048217
468.8545	0.046340
469.0758	0.046277
469.2970	0.043155
469.5183	0.044146
469.7396	0.042691
469.9610	0.039401
470.1823	0.039907
470.4036	0.041848
470.6250	0.040561
470.8463	0.043050
471.0677	0.041616
471.2891	0.041236
471.5105	0.040266
471.7319	0.039949
471.9533	0.041004
472.1748	0.043261
472.3962	0.042290
472.6177	0.044653
472.8391	0.042733
473.0606	0.047226
473.2821	0.047837
473.5036	0.047437
473.7251	0.046867
473.9467	0.048217
474.1682	0.047247
474.3898	0.045053
474.6113	0.047120
474.8329	0.046256
475.0545	0.048090
475.2761	0.049651
475.4977	0.048723
475.7193	0.048196
475.9410	0.048006
476.1626	0.048597
476.3843	0.047858
476.6060	0.047458
476.8277	0.049124
477.0494	0.047289
477.2711	0.047289
477.4928	0.045180
477.7145	0.045328
477.9363	0.050094
478.1580	0.048892
478.3798	0.051127
478.6016	0.049377
478.8234	0.047964
479.0452	0.049967
479.2670	0.047690
479.4888	0.049166
479.7107	0.051317
479.9325	0.051064
480.1544	0.053342
480.3763	0.052625
480.5982	0.054312
480.8201	0.051149
481.0420	0.050305
481.2639	0.052773
481.4859	0.052351
481.7078	0.054207
481.9298	0.053469
482.1517	0.053405
482.3737	0.053258
482.5957	0.048744
482.8177	0.050895
483.0398	0.050537
483.2618	0.052330
483.4838	0.053237
483.7059	0.050853
483.9280	0.051739
484.1501	0.055050
484.3721	0.056042
484.5943	0.056949
484.8164	0.058573
485.0385	0.061462
485.2606	0.060534
485.4828	0.085084
485.7050	0.133634
485.9271	0.186256
486.1493	0.198446
486.3715	0.164722
486.5937	0.133677
486.8160	0.113999
487.0382	0.105921
487.2605	0.100712
487.4827	0.084493
487.7050	0.069751
487.9273	0.060787
488.1496	0.058109
488.3719	0.056084
488.5942	0.054797
488.8165	0.051233
489.0389	0.054249
489.2612	0.055261
489.4836	0.050326
489.7060	0.053701
489.9284	0.051908
490.1508	0.054291
490.3732	0.050938
490.5956	0.051591
490.8180	0.053890
491.0405	0.052203
491.2630	0.050558
491.4854	0.053511
491.7079	0.052372
491.9304	0.052435
492.1529	0.049630
492.3755	0.052857
492.5980	0.051296
492.8205	0.053089
493.0431	0.052098
493.2657	0.052034
493.4882	0.053384
493.7108	0.052245
493.9334	0.052456
494.1561	0.052351
494.3787	0.052899
494.6013	0.053595
494.8240	0.053679
495.0466	0.051739
495.2693	0.049482
495.4920	0.047690
495.7147	0.048597
495.9374	0.049440
496.1601	0.055704
496.3829	0.058446
496.6056	0.057940
496.8284	0.059015
497.0511	0.054143
497.2739	0.054924
497.4967	0.052899
497.7195	0.049588
497.9423	0.048786
498.1652	0.048997
498.3880	0.052773
498.6109	0.050748
498.8337	0.053384
499.0566	0.053658
499.2795	0.054038
499.5024	0.053595
499.7253	0.057539
499.9482	0.054629
500.1712	0.054397
500.3941	0.053405
500.6171	0.051106
500.8400	0.051950
501.0630	0.053426
501.2860	0.054228
501.5090	0.054607
501.7320	0.056527
501.9551	0.054312
502.1781	0.054186
502.4012	0.054861
502.6242	0.055240
502.8473	0.055282
503.0704	0.054207
503.2935	0.055451
503.5166	0.055578
503.7397	0.056717
503.9628	0.054080
504.1860	0.051971
504.4092	0.052330
504.6323	0.051718
504.8555	0.051170
505.0787	0.050706
505.3019	0.052182
505.5251	0.053764
505.7483	0.051676
505.9716	0.048850
506.1948	0.049398
506.4181	0.054523
506.6414	0.054418
506.8647	0.053722
507.0880	0.049630
507.3113	0.047795
507.5346	0.048575
507.7579	0.049672
507.9813	0.049967
508.2046	0.050853
508.4280	0.050790
508.6514	0.050073
508.8748	0.049377
509.0982	0.049187
509.3216	0.047036
509.5450	0.048997
509.7685	0.048027
509.9919	0.049482
510.2154	0.049588
510.4388	0.045454
510.6623	0.049208
510.8858	0.047247
511.1093	0.050621
511.3329	0.051781
511.5564	0.047901
511.7799	0.050178
512.0035	0.048597
512.2270	0.049187
512.4506	0.043345
512.6742	0.046783
512.8978	0.045728
513.1214	0.048111
513.3451	0.044674
513.5687	0.044484
513.7923	0.044294
514.0160	0.044632
514.2397	0.044315
514.4634	0.045243
514.6871	0.044252
514.9108	0.044125
515.1345	0.044357
515.3582	0.042206
515.5819	0.041594
515.8057	0.041953
516.0295	0.043113
516.2532	0.043218
516.4770	0.043176
516.7008	0.044505
516.9246	0.042143
517.1485	0.043218
517.3723	0.044948
517.5961	0.041405
517.8200	0.043788
518.0439	0.043472
518.2677	0.041869
518.4916	0.040181
518.7155	0.040920
518.9395	0.041594
519.1634	0.040730
519.3873	0.043893
519.6113	0.044168
519.8352	0.042080
520.0592	0.041573
520.2832	0.038410
520.5072	0.039485
520.7312	0.038220
520.9552	0.041341
521.1792	0.037271
521.4033	0.037650
521.6273	0.035626
521.8514	0.035773
522.0755	0.034761
522.2996	0.037967
522.5237	0.036512
522.7478	0.036680
522.9719	0.039928
523.1960	0.037376
523.4202	0.037735
523.6443	0.035816
523.8685	0.038747
524.0927	0.038262
524.3169	0.039464
524.5411	0.038979
524.7653	0.039106
524.9895	0.039127
525.2138	0.038072
525.4380	0.037545
525.6623	0.040603
525.8865	0.037039
526.1108	0.037418
526.3351	0.036891
526.5594	0.036174
526.7837	0.037482
527.0081	0.037672
527.2324	0.037566
527.4568	0.039000
527.6811	0.037165
527.9055	0.037608
528.1299	0.037440
528.3543	0.037208
528.5787	0.041911
528.8031	0.040076
529.0276	0.040477
529.2520	0.042143
529.4765	0.041320
529.7009	0.040519
529.9254	0.041152
530.1499	0.038136
530.3744	0.040266
530.5989	0.038642
530.8234	0.041489
531.0480	0.037798
531.2725	0.038389
531.4971	0.036765
531.7217	0.038832
531.9462	0.038262
532.1708	0.038368
532.3954	0.035942
532.6200	0.038747
532.8447	0.038979
533.0693	0.042522
533.2940	0.043809
533.5186	0.044842
533.7433	0.043788
533.9680	0.047120
534.1927	0.043514
534.4174	0.045707
534.6421	0.047057
534.8668	0.046340
535.0916	0.048069
535.3163	0.044632
535.5411	0.046108
535.7659	0.045349
535.9907	0.044484
536.2155	0.043514
536.4403	0.040013
536.6651	0.039000
536.8899	0.039380
537.1148	0.038810
537.3396	0.039549
537.5645	0.043535
537.7894	0.042312
538.0143	0.043134
538.2392	0.044969
538.4641	0.043851
538.6890	0.042628
538.9139	0.045201
539.1389	0.046572
539.3638	0.046614
539.5888	0.047394
539.8138	0.048765
540.0388	0.046150
540.2638	0.045475
540.4888	0.043176
540.7138	0.045117
540.9389	0.045412
541.1639	0.047352
541.3890	0.045770
541.6140	0.046804
541.8391	0.045096
542.0642	0.046994
542.2893	0.050136
542.5144	0.049398
542.7396	0.049651
542.9647	0.048322
543.1899	0.049293
543.4150	0.048259
543.6402	0.048343
543.8654	0.050558
544.0906	0.049377
544.3158	0.051845
544.5410	0.053194
544.7662	0.051760
544.9915	0.052309
545.2167	0.051106
545.4420	0.052857
545.6673	0.052878
545.8926	0.048090
546.1179	0.046192
546.3432	0.048871
546.5685	0.045939
546.7938	0.046488
547.0192	0.046804
547.2445	0.049061
547.4699	0.050706
547.6953	0.053089
547.9206	0.055514
548.1460	0.054439
548.3715	0.057012
548.5969	0.055409
548.8223	0.056210
549.0478	0.052709
549.2732	0.050727
549.4987	0.047479
549.7242	0.049672
549.9496	0.049883
550.1751	0.048470
550.4007	0.047226
550.6262	0.050136
550.8517	0.050242
551.0773	0.045602
551.3028	0.045496
551.5284	0.044864
551.7540	0.046635
551.9796	0.051528
552.2052	0.053384
552.4308	0.055683
552.6564	0.054270
552.8820	0.053089
553.1077	0.052709
553.3333	0.051528
553.5590	0.052836
553.7847	0.052751
554.0104	0.054797
554.2361	0.052730
554.4618	0.049672
554.6875	0.048111
554.9132	0.049503
555.1390	0.048533
555.3648	0.051697
555.5905	0.052815
555.8163	0.052920
556.0421	0.055746
556.2679	0.057961
556.4937	0.054207
556.7195	0.050853
556.9454	0.051634
557.1712	0.051149
557.3971	0.050010
557.6230	0.050895
557.8488	0.051570
558.0747	0.052414
558.3006	0.050558
558.5266	0.048006
558.7525	0.047479
558.9784	0.045074
559.2044	0.045770
559.4303	0.045876
559.6563	0.046973
559.8823	0.046382
560.1083	0.051465
560.3343	0.052435
560.5603	0.057286
560.7863	0.055978
561.0124	0.059163
561.2384	0.059880
561.4645	0.060450
561.6905	0.059290
561.9166	0.057413
562.1427	0.058783
562.3688	0.057877
562.5949	0.057581
562.8211	0.057117
563.0472	0.056611
563.2733	0.057708
563.4995	0.055472
563.7257	0.059501
563.9519	0.056780
564.1781	0.059458
564.4043	0.062980
564.6305	0.061483
564.8567	0.060977
565.0829	0.061399
565.3092	0.062980
565.5355	0.063908
565.7617	0.058994
565.9880	0.060998
566.2143	0.062116
566.4406	0.061799
566.6669	0.064436
566.8932	0.066165
567.1196	0.069624
567.3459	0.076394
567.5723	0.080655
567.7987	0.080823
568.0250	0.081224
568.2514	0.085653
568.4778	0.086750
568.7043	0.091706
568.9307	0.097865
569.1571	0.103327
569.3836	0.108347
569.6100	0.116888
569.8365	0.133529
570.0630	0.139983
570.2895	0.147681
570.5160	0.146247
570.7425	0.146584
570.9690	0.154556
571.1956	0.165503
571.4221	0.170016
571.6487	0.175394
571.8752	0.181679
572.1018	0.185876
572.3284	0.187479
572.5550	0.174888
572.7816	0.161917
573.0082	0.156729
573.2349	0.172568
573.4615	0.182797
573.6882	0.197940
573.9149	0.206060
574.1415	0.209730
574.3682	0.214876
574.5949	0.220887
574.8216	0.219643
575.0484	0.226370
575.2751	0.226771
575.5018	0.227952
575.7286	0.211122
575.9554	0.202960
576.1821	0.202939
576.4089	0.205132
576.6357	0.217555
576.8626	0.230019
577.0894	0.228690
577.3162	0.234469
577.5431	0.245879
577.7699	0.266464
577.9968	0.309320
578.2237	0.301875
578.4505	0.280785
578.6774	0.261508
578.9044	0.243770
579.1313	0.230926
579.3582	0.233879
579.5851	0.244023
579.8121	0.248600
580.0391	0.250836
580.2660	0.247546
580.4930	0.246196
580.7200	0.240501
580.9470	0.243074
581.1741	0.284750
581.4011	0.341842
581.6281	0.375187
581.8552	0.372571
582.0822	0.372107
582.3093	0.356669
582.5364	0.328850
582.7635	0.298395
582.9906	0.277389
583.2177	0.256530
583.4449	0.242104
583.6720	0.226645
583.8991	0.223249
584.1263	0.219516
584.3535	0.226244
584.5807	0.227467
584.8079	0.241261
585.0351	0.257374
585.2623	0.270640
585.4895	0.272053
585.7167	0.267455
585.9440	0.261993
586.1713	0.247609
586.3985	0.228585
586.6258	0.222511
586.8531	0.229260
587.0804	0.239362
587.3077	0.250562
587.5350	0.259483
587.7624	0.251236
587.9897	0.240923
588.2171	0.234343
588.4445	0.225337
588.6718	0.220950
588.8992	0.208886
589.1266	0.195831
589.3540	0.191107
589.5815	0.179444
589.8089	0.180941
590.0363	0.180055
590.2638	0.172357
590.4913	0.164174
590.7187	0.158585
590.9462	0.151962
591.1737	0.146226
591.4012	0.145298
591.6288	0.145930
591.8563	0.145593
592.0838	0.140173
592.3114	0.145087
592.5389	0.167527
592.7665	0.200998
592.9941	0.219073
593.2217	0.222954
593.4493	0.219664
593.6769	0.216753
593.9046	0.213041
594.1322	0.198678
594.3598	0.186678
594.5875	0.185328
594.8152	0.195177
595.0429	0.212008
595.2705	0.213547
595.4983	0.209097
595.7260	0.202517
595.9537	0.189567
596.1814	0.177081
596.4092	0.164343
596.6369	0.159007
596.8647	0.157003
597.0925	0.162255
597.3203	0.164174
597.5481	0.167612
597.7759	0.164321
598.0037	0.155590
598.2315	0.154514
598.4594	0.152321
598.6872	0.169278
598.9151	0.192457
599.1430	0.203719
599.3709	0.200155
599.5988	0.193490
599.8267	0.191718
600.0546	0.198003
600.2825	0.197793
600.5105	0.194777
600.7384	0.190811
600.9664	0.193870
601.1944	0.199543
601.4223	0.195177
601.6503	0.185834
601.8783	0.178389
602.1064	0.178537
602.3344	0.176301
602.5624	0.178790
602.7905	0.183324
603.0185	0.185412
603.2466	0.192035
603.4747	0.199564
603.7028	0.200091
603.9309	0.198299
604.1590	0.186678
604.3871	0.179844
604.6152	0.170185
604.8434	0.168181
605.0715	0.162930
605.2997	0.165481
605.5279	0.169636
605.7561	0.180350
605.9843	0.180245
606.2125	0.177060
606.4407	0.168350
606.6689	0.161664
606.8972	0.160146
607.1254	0.163014
607.3537	0.164807
607.5819	0.167169
607.8102	0.162149
608.0385	0.159555
608.2668	0.155569
608.4951	0.149073
608.7235	0.145888
608.9518	0.146626
609.1801	0.142282
609.4085	0.138802
609.6369	0.136355
609.8653	0.145361
610.0936	0.154240
610.3220	0.158058
610.5505	0.152089
610.7789	0.146036
611.0073	0.143104
611.2357	0.144475
611.4642	0.148082
611.6927	0.146015
611.9211	0.143210
612.1496	0.140510
612.3781	0.134837
612.6066	0.136777
612.8351	0.135448
613.0637	0.134183
613.2922	0.132749
613.5208	0.131293
613.7493	0.132622
613.9779	0.132538
614.2065	0.132264
614.4351	0.131462
614.6637	0.131104
614.8923	0.129332
615.1209	0.129944
615.3495	0.134879
615.5782	0.135490
615.8068	0.135828
616.0355	0.129395
616.2642	0.121760
616.4929	0.119757
616.7216	0.116340
616.9503	0.112038
617.1790	0.111447
617.4077	0.112776
617.6365	0.110603
617.8652	0.111974
618.0940	0.114041
618.3227	0.111890
618.5515	0.102357
618.7803	0.095523
619.0091	0.095903
619.2379	0.094279
619.4667	0.093161
619.6956	0.091727
619.9244	0.096979
620.1533	0.098329
620.3821	0.100290
620.6110	0.096262
620.8399	0.088036
621.0688	0.080127
621.2977	0.075445
621.5266	0.074454
621.7556	0.078313
621.9845	0.084535
622.2135	0.082953
622.4424	0.084071
622.6714	0.087193
622.9004	0.088205
623.1294	0.091875
623.3584	0.092318
623.5874	0.091284
623.8164	0.089091
624.0454	0.089787
624.2745	0.090188
624.5035	0.090715
624.7326	0.092655
624.9617	0.095692
625.1908	0.086644
625.4199	0.084620
625.6490	0.083122
625.8781	0.080802
626.1072	0.077554
626.3364	0.076521
626.5655	0.075656
626.7947	0.071839
627.0238	0.069392
627.2530	0.071881
627.4822	0.074559
627.7114	0.072049
627.9406	0.070636
628.1698	0.063466
628.3991	0.062284
628.6283	0.059353
628.8576	0.059247
629.0868	0.060703
629.3161	0.062959
629.5454	0.063234
629.7747	0.065743
630.0040	0.065764
630.2333	0.062306
630.4626	0.059395
630.6920	0.058362
630.9213	0.057602
631.1507	0.055430
631.3801	0.053300
631.6094	0.054776
631.8388	0.055873
632.0682	0.053047
632.2976	0.052688
632.5271	0.049567
632.7565	0.047500
632.9859	0.046066
633.2154	0.046593
633.4448	0.045285
633.6743	0.045412
633.9038	0.045433
634.1333	0.044674
634.3628	0.044505
634.5923	0.043008
634.8218	0.042480
635.0514	0.044231
635.2809	0.041236
635.5105	0.039338
635.7400	0.042333
635.9696	0.044716
636.1992	0.045011
636.4288	0.046698
636.6584	0.046952
636.8880	0.044484
637.1177	0.044484
637.3473	0.042923
637.5770	0.042649
637.8066	0.043071
638.0363	0.043851
638.2660	0.041405
638.4957	0.043282
638.7254	0.044442
638.9551	0.043366
639.1848	0.040477
639.4145	0.041742
639.6443	0.039321
639.8740	0.038070
640.1038	0.039069
640.3336	0.037439
640.5633	0.036465
640.7931	0.038915
641.0229	0.036519
641.2528	0.035788
641.4826	0.034907
641.7124	0.034352
641.9423	0.031501
642.1721	0.032984
642.4020	0.030671
642.6319	0.029517
642.8617	0.029941
643.0916	0.029367
643.3216	0.030465
643.5515	0.028003
643.7814	0.030056
644.0113	0.029954
644.2413	0.028264
644.4712	0.027705
644.7012	0.025470
644.9312	0.028411
645.1612	0.028689
645.3912	0.028914
645.6212	0.028636
645.8512	0.027955
646.0812	0.025077
646.3113	0.027531
646.5413	0.027693
646.7714	0.025426
647.0015	0.026418
647.2316	0.024535
647.4616	0.027923
647.6918	0.026242
647.9219	0.027590
648.1520	0.029358
648.3821	0.031581
648.6123	0.034374
648.8424	0.034234
649.0726	0.036358
649.3028	0.033140
649.5329	0.035006
649.7631	0.034200
649.9933	0.032036
650.2236	0.032631
650.4538	0.029956
650.6840	0.028944
650.9143	0.030022
651.1445	0.030242
651.3748	0.029686
651.6051	0.029760
651.8354	0.030155
652.0657	0.030480
652.2960	0.032171
652.5263	0.030501
652.7566	0.030820
652.9870	0.031835
653.2173	0.032240
653.4477	0.034442
653.6780	0.033681
653.9084	0.031861
654.1388	0.034269
654.3692	0.037560
654.5996	0.037788
654.8300	0.043495
655.0605	0.066164
655.2909	0.188434
655.5213	0.546830
655.7518	1.015322
655.9823	1.000000
656.2128	1.000000
656.4433	1.000000
656.6738	1.000000
656.9043	1.000000
657.1348	0.903030
657.3653	0.736950
657.5959	0.629781
657.8264	0.548355
658.0570	0.503474
658.2875	0.465571
658.5181	0.412174
658.7487	0.391969
658.9793	0.377339
659.2099	0.324819
659.4406	0.239749
659.6712	0.151718
659.9018	0.087614
660.1325	0.054627
660.3632	0.038421
660.5938	0.032021
660.8245	0.026043
661.0552	0.025602
661.2859	0.025621
661.5166	0.022813
661.7474	0.024039
661.9781	0.022849
662.2088	0.023728
662.4396	0.023105
662.6704	0.023360
662.9011	0.024523
663.1319	0.023055
663.3627	0.021476
663.5935	0.022050
663.8243	0.023140
664.0552	0.022872
664.2860	0.022942
664.5168	0.023502
664.7477	0.024039
664.9786	0.021724
665.2094	0.024647
665.4403	0.025465
665.6712	0.025893
665.9021	0.027834
666.1330	0.024236
666.3640	0.023893
666.5949	0.022462
666.8259	0.020430
667.0568	0.022145
667.2878	0.021849
667.5188	0.023160
667.7497	0.020735
667.9807	0.023790
668.2117	0.022033
668.4428	0.021221
668.6738	0.023351
668.9048	0.023014
669.1359	0.022676
669.3669	0.024321
669.5980	0.021263
669.8291	0.022064
670.0602	0.021263
670.2913	0.023203
670.5224	0.022212
670.7535	0.022613
670.9846	0.023562
671.2157	0.024743
671.4469	0.028666
671.6781	0.031260
671.9092	0.031766
672.1404	0.032420
672.3716	0.032863
672.6028	0.035331
672.8340	0.034086
673.0652	0.033032
673.2964	0.031724
673.5277	0.031239
673.7589	0.029826
673.9902	0.031745
674.2214	0.031007
674.4527	0.028476
674.6840	0.027295
674.9153	0.028265
675.1466	0.028054
675.3779	0.026557
675.6093	0.028075
675.8406	0.027675
676.0719	0.025565
676.3033	0.025418
676.5347	0.024342
676.7661	0.024363
676.9974	0.024701
677.2288	0.023014
677.4602	0.026599
677.6917	0.029425
677.9231	0.028919
678.1545	0.028139
678.3860	0.029193
678.6174	0.031155
678.8489	0.031049
679.0804	0.031408
679.3119	0.032947
679.5434	0.033791
679.7749	0.036048
680.0064	0.037735
680.2379	0.035478
680.4694	0.035563
680.7010	0.036048
680.9325	0.034487
681.1641	0.034171
681.3957	0.035373
681.6273	0.037355
681.8589	0.034550
682.0905	0.034972
682.3221	0.033981
682.5537	0.031977
682.7854	0.031323
683.0170	0.030817
683.2487	0.032610
683.4803	0.031323
683.7120	0.031745
683.9437	0.032336
684.1754	0.035225
684.4071	0.036575
684.6388	0.037440
684.8705	0.041130
685.1023	0.042818
685.3340	0.043429
685.5658	0.046614
685.7975	0.047184
686.0293	0.044653
686.2611	0.046256
686.4929	0.045117
686.7247	0.042776
686.9565	0.043303
687.1883	0.044821
687.4202	0.045623
687.6520	0.045918
687.8838	0.041130
688.1157	0.040688
688.3476	0.041025
688.5795	0.039296
688.8114	0.037397
689.0433	0.037925
689.2752	0.036976
689.5071	0.038600
689.7390	0.036027
689.9710	0.035563
690.2029	0.034086
690.4349	0.032251
690.6669	0.036090
690.8988	0.036448
691.1308	0.040224
691.3628	0.038916
691.5948	0.039549
691.8269	0.037925
692.0589	0.037482
692.2909	0.039106
692.5230	0.039085
692.7550	0.039738
692.9871	0.037440
693.2192	0.038515
693.4513	0.041405
693.6834	0.039717
693.9155	0.038958
694.1476	0.036027
694.3797	0.034381
694.6119	0.033538
694.8440	0.035816
695.0762	0.034613
695.3083	0.037186
695.5405	0.033749
695.7727	0.029657
696.0049	0.031028
696.2371	0.030480
696.4693	0.031429
696.7016	0.036512
696.9338	0.039654
697.1660	0.040013
697.3983	0.041805
697.6306	0.039317
697.8628	0.041489
698.0951	0.042354
698.3274	0.039865
698.5597	0.038747
698.7920	0.037144
699.0243	0.038093
699.2567	0.036765
699.4890	0.037039
699.7214	0.035035
699.9537	0.032715
700.1861	0.032483
700.4185	0.031534
700.6509	0.032736
700.8833	0.032673
701.1157	0.030965
701.3481	0.028581
701.5806	0.031534
701.8130	0.029256
702.0454	0.029699
702.2779	0.029341
702.5104	0.032230
702.7429	0.031007
702.9753	0.030859
703.2078	0.030269
703.4403	0.030691
703.6729	0.032104
703.9054	0.028708
704.1379	0.030121
704.3705	0.028982
704.6030	0.028645
704.8356	0.027864
705.0682	0.023710
705.3008	0.025228
705.5334	0.025038
705.7660	0.023899
705.9986	0.026957
706.2312	0.027801
706.4638	0.032083
706.6965	0.034613
706.9291	0.035035
707.1618	0.035204
707.3945	0.038768
707.6272	0.038853
707.8599	0.040561
708.0926	0.042396
708.3253	0.038663
708.5580	0.036069
708.7907	0.037250
709.0235	0.037798
709.2562	0.034529
709.4890	0.033179
709.7217	0.034339
709.9545	0.034740
710.1873	0.032673
710.4201	0.035267
710.6529	0.032736
710.8857	0.033453
711.1186	0.033475
711.3514	0.029889
711.5842	0.034360
711.8171	0.031513
712.0500	0.030248
712.2828	0.027126
712.5157	0.029467
712.7486	0.029657
712.9815	0.030205
713.2144	0.031302
713.4474	0.030205
713.6803	0.032736
713.9132	0.031977
714.1462	0.034550
714.3791	0.034803
714.6121	0.035309
714.8451	0.034677
715.0781	0.038705
715.3111	0.033348
715.5441	0.036280
715.7771	0.032146
716.0102	0.030606
716.2432	0.029699
716.4762	0.031176
716.7093	0.029847
716.9424	0.029320
717.1754	0.028624
717.4085	0.028750
717.6416	0.027443
717.8747	0.027506
718.1078	0.028581
718.3410	0.030522
718.5741	0.028307
718.8072	0.029973
719.0404	0.030669
719.2736	0.030311
719.5067	0.032272
719.7399	0.030986
719.9731	0.028096
720.2063	0.028349
720.4395	0.028645
720.6727	0.029826
720.9060	0.030227
721.1392	0.030058
721.3725	0.031914
721.6057	0.030353
721.8390	0.032547
722.0723	0.030416
722.3055	0.030184
722.5388	0.030079
722.7721	0.027759
723.0055	0.027590
723.2388	0.028012
723.4721	0.029805
723.7055	0.029299
723.9388	0.028792
724.1722	0.028371
724.4056	0.026662
724.6389	0.030480
724.8723	0.028392
725.1057	0.030901
725.3391	0.032167
725.5726	0.032884
725.8060	0.032293
726.0394	0.033453
726.2729	0.035225
726.5063	0.034276
726.7398	0.034529
726.9733	0.032757
727.2068	0.032863
727.4403	0.033643
727.6738	0.033960
727.9073	0.034065
728.1408	0.033854
728.3743	0.033264
728.6079	0.034297
728.8414	0.034234
729.0750	0.033643
729.3086	0.035373
729.5421	0.036912
729.7757	0.038072
730.0093	0.035921
730.2429	0.036469
730.4766	0.038557
730.7102	0.041362
730.9438	0.044020
731.1775	0.044062
731.4111	0.043176
731.6448	0.045707
731.8785	0.044758
732.1122	0.043682
732.3458	0.042670
732.5795	0.043767
732.8133	0.045180
733.0470	0.044505
733.2807	0.046551
733.5145	0.044463
733.7482	0.046424
733.9820	0.048597
734.2157	0.049841
734.4495	0.054650
734.6833	0.052625
734.9171	0.050326
735.1509	0.048765
735.3847	0.048913
735.6185	0.048913
735.8524	0.049714
736.0862	0.049904
736.3201	0.047373
736.5539	0.050453
736.7878	0.048154
737.0217	0.048154
737.2556	0.051191
737.4895	0.046973
737.7234	0.044927
737.9573	0.041384
738.1912	0.042965
738.4252	0.040392
738.6591	0.040941
738.8931	0.042016
739.1271	0.045475
739.3610	0.048365
739.5950	0.048765
739.8290	0.045707
740.0630	0.044104
740.2970	0.043577
740.5310	0.039085
740.7651	0.039865
740.9991	0.039253
741.2332	0.039021
741.4672	0.037313
741.7013	0.034318
741.9354	0.033475
742.1695	0.033896
742.4036	0.034192
742.6377	0.034635
742.8718	0.035162
743.1059	0.034381
743.3400	0.031112
743.5742	0.030332
743.8083	0.030501
744.0425	0.029720
744.2767	0.029277
744.5108	0.029573
744.7450	0.029910
744.9792	0.030480
745.2134	0.029594
745.4477	0.030691
745.6819	0.027358
745.9161	0.028982
746.1504	0.029404
746.3846	0.030374
746.6189	0.027000
746.8532	0.029868
747.0874	0.030733
747.3217	0.031829
747.5560	0.032146
747.7903	0.032357
748.0247	0.029235
748.2590	0.028708
748.4933	0.028919
748.7277	0.027717
748.9620	0.030501
749.1964	0.031576
749.4308	0.034529
749.6652	0.033348
749.8995	0.036638
750.1339	0.038072
750.3684	0.041742
750.6028	0.041848
750.8372	0.040350
751.0717	0.039443
751.3061	0.040519
751.5406	0.040434
751.7750	0.041848
752.0095	0.040983
752.2440	0.039675
752.4785	0.038874
752.7130	0.039085
752.9475	0.036870
753.1820	0.038958
753.4166	0.038283
753.6511	0.040603
753.8856	0.045011
754.1202	0.043282
754.3548	0.040329
754.5894	0.040434
754.8239	0.040519
755.0585	0.041953
755.2931	0.041447
755.5278	0.042143
755.7624	0.044568
755.9970	0.045644
756.2317	0.047099
756.4663	0.048765
756.7010	0.049250
756.9356	0.051697
757.1703	0.054397
757.4050	0.060935
757.6397	0.062580
757.8744	0.062748
758.1091	0.061778
758.3438	0.058551
758.5786	0.055346
758.8133	0.054861
759.0481	0.053848
759.2828	0.058889
759.5176	0.060555
759.7524	0.061462
759.9872	0.060323
760.2220	0.062748
760.4568	0.063508
760.6916	0.066503
760.9264	0.063487
761.1613	0.063824
761.3961	0.058889
761.6310	0.058066
761.8658	0.058783
762.1007	0.050706
762.3356	0.051887
762.5705	0.049082
762.8054	0.048154
763.0403	0.050178
763.2752	0.052034
763.5101	0.052709
763.7450	0.051697
763.9800	0.052393
764.2149	0.050642
764.4499	0.056400
764.6849	0.059437
764.9198	0.060492
765.1548	0.059184
765.3898	0.058404
765.6248	0.058235
765.8599	0.052098
766.0949	0.050495
766.3299	0.048301
766.5650	0.045285
766.8000	0.040413
767.0351	0.040645
767.2701	0.039085
767.5052	0.039317
767.7403	0.039696
767.9754	0.041046
768.2105	0.042965
768.4456	0.046087
768.6808	0.049377
768.9159	0.050959
769.1510	0.050495
769.3862	0.047120
769.6214	0.047816
769.8565	0.046424
770.0917	0.047099
770.3269	0.044146
770.5621	0.046867
770.7973	0.047605
771.0325	0.047711
771.2677	0.049883
771.5030	0.048618
771.7382	0.048702
771.9735	0.042712
772.2087	0.042459
772.4440	0.042269
772.6793	0.040898
772.9146	0.041067
773.1499	0.038747
773.3852	0.039781
773.6205	0.038473
773.8558	0.038958
774.0911	0.037123
774.3265	0.036132
774.5618	0.033390
774.7972	0.034803
775.0326	0.035478
775.2679	0.029552
775.5033	0.030712
775.7387	0.030227
775.9741	0.028898
776.2095	0.026915
776.4450	0.026029
776.6804	0.028539
776.9158	0.025608
777.1513	0.025418
777.3868	0.024490
777.6222	0.024933
777.8577	0.024553
778.0932	0.026093
778.3287	0.025249
778.5642	0.027738
778.7997	0.028645
779.0352	0.030121
779.2707	0.031007
779.5063	0.033095
779.7418	0.031070
779.9774	0.030248
780.2130	0.030880
780.4485	0.030416
780.6841	0.029341
780.9197	0.032947
781.1553	0.034318
781.3909	0.037714
781.6265	0.036680
781.8622	0.037524
782.0978	0.037081
782.3335	0.033854
782.5691	0.037440
782.8048	0.034466
783.0405	0.034613
783.2761	0.032652
783.5118	0.035563
783.7475	0.036195
783.9832	0.034002
784.2190	0.033643
784.4547	0.030986
784.6904	0.030691
784.9262	0.030817
785.1619	0.029024
785.3977	0.029446
785.6335	0.028813
785.8692	0.029277
786.1050	0.031471
786.3408	0.031450
786.5766	0.028961
786.8124	0.028392
787.0483	0.028349
787.2841	0.029151
787.5199	0.028835
787.7558	0.029995
787.9917	0.030416
788.2275	0.028856
788.4634	0.031155
788.6993	0.030037
788.9352	0.032399
789.1711	0.032863
789.4070	0.029952
789.6429	0.030733
789.8789	0.029657
790.1148	0.027000
790.3507	0.026051
790.5867	0.027485
790.8227	0.026493
791.0586	0.023984
791.2946	0.025207
791.5306	0.024764
791.7666	0.024870
792.0026	0.023646
792.2387	0.023267
792.4747	0.024300
792.7107	0.022296
792.9468	0.021158
793.1828	0.022465
793.4189	0.022381
793.6550	0.023688
793.8910	0.028096
794.1271	0.030775
794.3632	0.033812
794.5993	0.032441
794.8355	0.031155
795.0716	0.035921
795.3077	0.035225
795.5439	0.032272
795.7800	0.031218
796.0162	0.028244
796.2523	0.026219
796.4885	0.025608
796.7247	0.023014
796.9609	0.022613
797.1971	0.023857
797.4333	0.023224
797.6695	0.023288
797.9058	0.023836
798.1420	0.024469
798.3783	0.024806
798.6145	0.023351
798.8508	0.023667
799.0871	0.023731
799.3233	0.021980
799.5596	0.021811
799.7959	0.021537
800.0322	0.022381
800.2686	0.019639
800.5049	0.020483
800.7412	0.019154
800.9776	0.019048
801.2139	0.020419
801.4503	0.022275
801.6867	0.019702
801.9230	0.018521
802.1594	0.018627
802.3958	0.016159
802.6322	0.017910
802.8686	0.016370
803.1051	0.018331
803.3415	0.018880
803.5779	0.019829
803.8144	0.018015
804.0508	0.017446
804.2873	0.017361
804.5238	0.018015
804.7603	0.018521
804.9968	0.016454
805.2333	0.017593
805.4698	0.018331
805.7063	0.017509
805.9428	0.019597
806.1794	0.021284
806.4159	0.023604
806.6525	0.024933
806.8890	0.026325
807.1256	0.024384
807.3622	0.024342
807.5988	0.023731
807.8354	0.022170
808.0720	0.023688
808.3086	0.023920
808.5452	0.024448
808.7818	0.022043
809.0185	0.024300
809.2551	0.022718
809.4918	0.020187
809.7284	0.020103
809.9651	0.021959
810.2018	0.021558
810.4385	0.018374
810.6752	0.017361
810.9119	0.019091
811.1486	0.020904
811.3853	0.017762
811.6221	0.019449
811.8588	0.017066
812.0956	0.015822
812.3323	0.014746
812.5691	0.014830
812.8059	0.014767
813.0427	0.013902
813.2795	0.014725
813.5163	0.016623
813.7531	0.018120
813.9899	0.020757
814.2267	0.021031
814.4636	0.019892
814.7004	0.019154
814.9373	0.017931
815.1742	0.017256
815.4110	0.015189
815.6479	0.012763
815.8848	0.014134
816.1217	0.015294
816.3586	0.014092
816.5955	0.016496
816.8324	0.014978
817.0694	0.016159
817.3063	0.014176
817.5433	0.015674
817.7802	0.012911
818.0172	0.016939
818.2542	0.014915
818.4912	0.013734
818.7282	0.014809
818.9652	0.014071
819.2022	0.013544
819.4392	0.012658
819.6762	0.010844
819.9133	0.012679
820.1503	0.013586
820.3874	0.016011
820.6244	0.016138
820.8615	0.016686
821.0986	0.016328
821.3357	0.016855
821.5727	0.015885
821.8099	0.014113
822.0470	0.015463
822.2841	0.013122
822.5212	0.013670
822.7584	0.013164
822.9955	0.013607
823.2327	0.013565
823.4698	0.013502
823.7070	0.011983
823.9442	0.011540
824.1814	0.012679
824.4186	0.010865
824.6558	0.010233
824.8930	0.012025
825.1302	0.012721
825.3675	0.013354
825.6047	0.013249
825.8419	0.012110
826.0792	0.014472
826.3165	0.012890
826.5537	0.013628
826.7910	0.015104
827.0283	0.015969
827.2656	0.013966
827.5029	0.014894
827.7402	0.012911
827.9776	0.012995
828.2149	0.012553
828.4522	0.013438
828.6896	0.012089
828.9270	0.012321
829.1643	0.011814
829.4017	0.012215
829.6391	0.012574
829.8765	0.011456
830.1139	0.012806
830.3513	0.011308
830.5887	0.011118
830.8261	0.010359
831.0636	0.009769
831.3010	0.010190
831.5385	0.008081
831.7759	0.008735
832.0134	0.007913
832.2509	0.008145
832.4884	0.009368
832.7259	0.009642
832.9634	0.009368
833.2009	0.010507
833.4384	0.010169
833.6759	0.011857
833.9135	0.010675
834.1510	0.011287
834.3886	0.011161
834.6261	0.011203
834.8637	0.012468
835.1013	0.009853
835.3389	0.011435
835.5765	0.011308
835.8141	0.009621
836.0517	0.009262
836.2893	0.011793
836.5269	0.009262
836.7646	0.009199
837.0022	0.008123
837.2399	0.009389
837.4775	0.007470
837.7152	0.007238
837.9529	0.007786
838.1906	0.008229
838.4283	0.006710
838.6660	0.006542
838.9037	0.006963
839.1414	0.008123
839.3791	0.007111
839.6169	0.006267
839.8546	0.008819
840.0924	0.007491
840.3302	0.007491
840.5679	0.008440
840.8057	0.008714
841.0435	0.009347
841.2813	0.007765
841.5191	0.007090
841.7569	0.007027
841.9947	0.005487
842.2326	0.007997
842.4704	0.007828
842.7082	0.005044
842.9461	0.005825
843.1840	0.005508
843.4218	0.004981
843.6597	0.006394
843.8976	0.005466
844.1355	0.007934
844.3734	0.006521
844.6113	0.007195
844.8492	0.005867
845.0872	0.006373
845.3251	0.006985
845.5631	0.006605
845.8010	0.006963
846.0390	0.006900
846.2770	0.005508
846.5149	0.005086
846.7529	0.004686
846.9909	0.005445
847.2289	0.003336
847.4669	0.006900
847.7050	0.006120
847.9430	0.005297
848.1810	0.005803
848.4191	0.005635
848.6571	0.004348
848.8952	0.005065
849.1333	0.006963
849.3713	0.005656
849.6094	0.004559
849.8475	0.005698
850.0856	0.004327
850.3237	0.006689
850.5619	0.005276
850.8000	0.006183
851.0381	0.005403
851.2763	0.004158
851.5144	0.003673
851.7526	0.006035
851.9908	0.005361
852.2289	0.006605
852.4671	0.006478
852.7053	0.007617
852.9435	0.010275
853.1817	0.013312
853.4200	0.012995
853.6582	0.015104
853.8964	0.015695
854.1347	0.012869
854.3729	0.014050
854.6112	0.015822
854.8495	0.016075
855.0877	0.014514
855.3260	0.014345
855.5643	0.013818
855.8026	0.014219
856.0409	0.014535
856.2792	0.014219
856.5176	0.013565
856.7559	0.011498
856.9942	0.011751
857.2326	0.011667
857.4710	0.010486
857.7093	0.010654
857.9477	0.010929
858.1861	0.011329
858.4245	0.010528
858.6629	0.010422
858.9013	0.010992
859.1397	0.010254
859.3781	0.008756
859.6166	0.010190
859.8550	0.008841
860.0935	0.008166
860.3319	0.008777
860.5704	0.007891
860.8089	0.008145
861.0473	0.007280
861.2858	0.007702
861.5243	0.008292
861.7628	0.007322
862.0013	0.007617
862.2399	0.007090
862.4784	0.005698
862.7169	0.006753
862.9555	0.006689
863.1940	0.005318
863.4326	0.008039
863.6712	0.008503
863.9098	0.007280
864.1483	0.006668
864.3869	0.006521
864.6255	0.007385
864.8642	0.006731
865.1028	0.005234
865.3414	0.006689
865.5800	0.005192
865.8187	0.006057
866.0573	0.005129
866.2960	0.005297
866.5347	0.005888
866.7733	0.006963
867.0120	0.006078
867.2507	0.005761
867.4894	0.004918
867.7281	0.005023
867.9669	0.007786
868.2056	0.006457
868.4443	0.006204
868.6831	0.005234
868.9218	0.004875
869.1606	0.003230
869.3993	0.005466
869.6381	0.005023
869.8769	0.005065
870.1157	0.005065
870.3545	0.005276
870.5933	0.005129
870.8321	0.007111
871.0709	0.005213
871.3097	0.005677
871.5486	0.006204
871.7874	0.005002
872.0263	0.004390
872.2651	0.005782
872.5040	0.005213
872.7429	0.005361
872.9818	0.004918
873.2207	0.006584
873.4596	0.006858
873.6985	0.006331
873.9374	0.006183
874.1763	0.005614
874.4153	0.005234
874.6542	0.006099
874.8932	0.005529
875.1321	0.005951
875.3711	0.006394
875.6101	0.007280
875.8491	0.007828
876.0880	0.006141
876.3270	0.006731
876.5661	0.005867
876.8051	0.006099
877.0441	0.005234
877.2831	0.005867
877.5222	0.003779
877.7612	0.006499
878.0003	0.007301
878.2393	0.007533
878.4784	0.007132
878.7175	0.008334
878.9566	0.006605
879.1957	0.010043
879.4348	0.006774
879.6739	0.008313
879.9130	0.008018
880.1521	0.008651
880.3913	0.009579
880.6304	0.010022
880.8696	0.009051
881.1087	0.007174
881.3479	0.007913
881.5871	0.008672
881.8262	0.006499
882.0654	0.007533
882.3046	0.005972
882.5438	0.006352
882.7831	0.007659
883.0223	0.006436
883.2615	0.006415
883.5007	0.006710
883.7400	0.005993
883.9792	0.007828
884.2185	0.005529
884.4578	0.006542
884.6971	0.005719
884.9363	0.006626
885.1756	0.007385
885.4149	0.007786
885.6542	0.007217
885.8936	0.006858
886.1329	0.007048
886.3722	0.006985
886.6116	0.004222
886.8509	0.007280
887.0903	0.007997
887.3296	0.006563
887.5690	0.005466
887.8084	0.007090
888.0478	0.004011
888.2872	0.006879
888.5266	0.004939
888.7660	0.005023
889.0054	0.005023
889.2448	0.004897
889.4843	0.005466
889.7237	0.006078
889.9632	0.004369
890.2026	0.004665
890.4421	0.003378
890.6816	0.005487
890.9211	0.005888
891.1606	0.005930
891.4001	0.004622
891.6396	0.005972
891.8791	0.004875
892.1186	0.007807
892.3581	0.004749
892.5977	0.006521
892.8372	0.004707
893.0768	0.004327
893.3163	0.005846
893.5559	0.005867
893.7955	0.006099
894.0351	0.005023
894.2747	0.004433
894.5143	0.005213
894.7539	0.004538
894.9935	0.005508
895.2331	0.003441
895.4727	0.004791
895.7124	0.006985
895.9520	0.005213
896.1917	0.004411
896.4314	0.005951
896.6710	0.004707
896.9107	0.006035
897.1504	0.005403
897.3901	0.005297
897.6298	0.005846
897.8695	0.004348
898.1092	0.004348
898.3489	0.006499
898.5887	0.004686
898.8284	0.006879
899.0682	0.005255
899.3079	0.005318
899.5477	0.005382
899.7875	0.005803
900.0272	0.003230
900.2670	0.004918
900.5068	0.005318
900.7466	0.005466
900.9864	0.004074
901.2263	0.006373
901.4661	0.004411
901.7059	0.007090
901.9458	0.005719
902.1856	0.004559
902.4255	0.004454
902.6654	0.003947
902.9052	0.003505
903.1451	0.004306
903.3850	0.003926
903.6249	0.006078
903.8648	0.004749
904.1047	0.005403
904.3446	0.005129
904.5846	0.004686
904.8245	0.004580
905.0644	0.005466
905.3044	0.005550
905.5444	0.006099
905.7843	0.007533
906.0243	0.005867
906.2643	0.004011
906.5043	0.005529
906.7443	0.005635
906.9843	0.004707
907.2243	0.005234
907.4643	0.006014
907.7043	0.004454
907.9444	0.004475
908.1844	0.004538
908.4245	0.004939
908.6645	0.003230
908.9046	0.003104
909.1447	0.004032
909.3847	0.004411
909.6248	0.003209
909.8649	0.003926
910.1050	0.002577
910.3452	0.002724
910.5853	0.003905
910.8254	0.003947
911.0655	0.004770
911.3057	0.005424
911.5458	0.003462
911.7860	0.004053
912.0262	0.004032
912.2663	0.005445
912.5065	0.005297
912.7467	0.005529
912.9869	0.004158
913.2271	0.003568
913.4673	0.003926
913.7075	0.002935
913.9478	0.004158
914.1880	0.005065
914.4283	0.002830
914.6685	0.004686
914.9088	0.002577
915.1490	0.004053
915.3893	0.003483
915.6296	0.004665
915.8699	0.004222
916.1102	0.003863
916.3505	0.004538
916.5908	0.004243
916.8311	0.005086
917.0714	0.004327
917.3118	0.004454
917.5521	0.004222
917.7925	0.003842
918.0328	0.005023
918.2732	0.005424
918.5136	0.004496
918.7539	0.004390
918.9943	0.006078
919.2347	0.005129
919.4751	0.004411
919.7155	0.003884
919.9560	0.005255
920.1964	0.004580
920.4368	0.003441
920.6773	0.003863
920.9177	0.004812
921.1582	0.002745
921.3986	0.003863
921.6391	0.004116
921.8796	0.002345
922.1201	0.003779
922.3606	0.004707
922.6011	0.002113
922.8416	0.003842
923.0821	0.004179
923.3226	0.003336
923.5631	0.003336
923.8037	0.004622
924.0442	0.003019
924.2848	0.004580
924.5254	0.002619
924.7659	0.004665
925.0065	0.003019
925.2471	0.003315
925.4877	0.004264
925.7283	0.004032
925.9689	0.002745
926.2095	0.003420
926.4501	0.002513
926.6908	0.005086
926.9314	0.002239
927.1720	0.003315
927.4127	0.002598
927.6533	0.004201
927.8940	0.003652
928.1347	0.003631
928.3754	0.002598
928.6161	0.003947
928.8568	0.002998
929.0975	0.001754
929.3382	0.001691
929.5789	0.002661
929.8196	0.002809
930.0604	0.001712
930.3011	0.002851
930.5419	0.002851
930.7826	0.002914
931.0234	0.002239
931.2642	0.003230
931.5049	0.003441
931.7457	0.002977
931.9865	0.002851
932.2273	0.003125
932.4681	0.002893
932.7089	0.003441
932.9498	0.003800
933.1906	0.002134
933.4314	0.002049
933.6723	0.002302
933.9131	0.003019
934.1540	0.003441
934.3949	0.002387
934.6358	0.002640
934.8766	0.002914
935.1175	0.002366
935.3584	0.003589
935.5993	0.002661
935.8403	0.003251
936.0812	0.002830
936.3221	0.000594
936.5630	0.003842
936.8040	0.004137
937.0449	0.001248
937.2859	0.001606
937.5269	0.002513
937.7678	0.004285
938.0088	0.002914
938.2498	0.001860
938.4908	0.002724
938.7318	0.002134
938.9728	0.003526
939.2138	0.002598
939.4549	0.002872
939.6959	0.001923
939.9369	0.002387
940.1780	0.001860
940.4190	0.001628
940.6601	0.003905
940.9012	0.003019
941.1422	0.001417
941.3833	0.002787
941.6244	0.001227
941.8655	0.003209
942.1066	0.001501
942.3477	0.000552
942.5889	0.001775
942.8300	0.001712
943.0711	0.001037
943.3123	0.002787
943.5534	0.002366
943.7946	0.002661
944.0357	0.003062
944.2769	0.002155
944.5181	0.001269
944.7593	0.004454
945.0005	0.000257
945.2417	0.002787
945.4829	0.001712
945.7241	0.003019
945.9653	0.000193
946.2066	0.002176
946.4478	0.001396
946.6891	0.002028
946.9303	0.000025
947.1716	0.001037
947.4128	0.001227
947.6541	0.001164
947.8954	0.002302
948.1367	0.001986
948.3780	0.000257
948.6193	0.001860
948.8606	0.003273
949.1019	0.002408
949.3433	0.001121
949.5846	0.002176
949.8259	0.001670
950.0673	0.002534
950.3086	0.001585
950.5500	0.001796
950.7914	0.000932
951.0327	0.000468
951.2741	0.001185
951.5155	0.002640
951.7569	0.001079
951.9983	0.001733
952.2398	0.001817
952.4812	0.001965
952.7226	0.000151
952.9640	0.003104
953.2055	0.002176
953.4469	0.001164
953.6884	0.001374
953.9299	0.003631
954.1713	0.000425
954.4128	0.002598
954.6543	0.002598
954.8958	0.001944
955.1373	0.000615
955.3788	0.000953
955.6203	0.000362
955.8618	0.003462
956.1034	0.001142
956.3449	0.001691
956.5865	0.001417
956.8280	0.002492
957.0696	0.001037
957.3111	0.000868
957.5527	0.002070
957.7943	0.000657
958.0359	-0.000039
958.2775	0.001564
958.5191	0.001606
958.7607	0.001522
959.0023	0.001100
959.2439	0.002450
959.4856	0.000868
959.7272	0.000974
959.9688	0.002028
960.2105	0.000910
960.4522	0.000721
960.6938	0.001417
960.9355	-0.000186
961.1772	0.001543
961.4189	0.000763
961.6606	0.002218
961.9023	0.001649
962.1440	0.001100
962.3857	0.000889
962.6274	0.001585
962.8692	0.000974
963.1109	0.001037
963.3527	0.000446
963.5944	0.001902
963.8362	0.000974
964.0779	0.001522
964.3197	0.001585
964.5615	0.002513
964.8033	0.001185
965.0451	0.000552
965.2869	-0.000018
965.5287	0.001121
965.7705	0.001079
966.0123	-0.000250
966.2542	0.000910
966.4960	0.000362
966.7379	0.001290
966.9797	0.001860
967.2216	0.001733
967.4634	0.002450
967.7053	0.002302
967.9472	0.001817
968.1891	0.001396
968.4310	0.002176
968.6729	0.001016
968.9148	0.001353
969.1567	0.000257
969.3987	0.001459
969.6406	-0.000165
969.8825	0.002471
970.1245	0.000130
970.3664	0.002302
970.6084	0.001396
970.8504	0.000278
971.0923	0.000320
971.3343	0.000700
971.5763	0.000826
971.8183	0.002345
972.0603	0.002302
972.3023	0.001902
972.5443	0.001037
972.7864	0.002492
973.0284	0.001290
973.2704	0.001480
973.5125	0.002070
973.7545	0.002323
973.9966	0.001838
974.2387	0.000636
974.4807	0.001079
974.7228	0.002155
974.9649	0.000615
975.2070	0.002134
975.4491	0.000320
975.6912	0.002914
975.9333	0.000531
976.1755	0.000193
976.4176	0.001417
976.6597	0.001100
976.9019	0.000700
977.1440	0.001628
977.3862	0.001058
977.6283	0.001564
977.8705	0.002028
978.1127	0.000805
978.3549	0.001290
978.5971	0.000700
978.8393	0.002640
979.0815	0.002408
979.3237	-0.000102
979.5659	0.001543
979.8082	0.001417
980.0504	0.002197
980.2926	0.001543
980.5349	0.002345
980.7771	0.001227
981.0194	0.001269
981.2617	0.001649
981.5040	0.002302
981.7462	0.000489
981.9885	0.000742
982.2308	0.001374
982.4731	0.000974
982.7155	0.001564
982.9578	0.000974
983.2001	0.000657
983.4424	0.000932
983.6848	-0.000587
983.9271	0.000320
984.1695	0.000953
984.4118	0.001164
984.6542	-0.000039
984.8966	0.000995
985.1390	0.001058
985.3814	0.002239
985.6238	0.001606
985.8662	0.001606
986.1086	-0.000081
986.3510	0.003547
986.5934	0.001396
986.8358	0.001670
987.0783	0.000130
987.3207	0.001775
987.5632	0.001290
987.8056	0.000953
988.0481	0.002492
988.2906	0.000320
988.5331	0.000299
988.7756	0.001269
989.0180	0.001775
989.2605	0.001543
989.5031	0.000489
989.7456	0.000531
989.9881	0.000130
990.2306	0.000932
990.4732	0.000721
990.7157	0.002766
990.9582	0.001206
991.2008	0.001311
991.4434	0.000025
991.6859	0.000214
991.9285	0.000552
992.1711	0.000805
992.4137	0.001185
992.6563	0.002766
992.8989	0.000341
993.1415	0.001585
993.3841	0.001480
993.6267	0.001796
993.8694	0.001142
994.1120	0.000700
994.3547	0.001543
994.5973	0.000953
994.8400	0.000257
995.0826	0.001227
995.3253	-0.000819
995.5680	0.001396
995.8107	-0.000903
996.0534	0.001121
996.2961	0.000953
996.5388	0.001670
996.7815	0.002998
997.0242	0.000109
997.2670	0.000299
997.5097	0.001902
997.7524	0.000805
997.9952	0.000109
998.2379	0.001206
998.4807	0.001543
998.7235	0.000130
998.9662	0.000278
999.2090	0.000383
999.4518	0.001185
999.6946	0.001332
999.9374	0.000573
1000.1802	0.000868
1000.4230	0.000974
1000.6659	0.001311
1000.9087	-0.000039
1001.1515	0.001374
1001.3944	0.000341
1001.6372	0.001585
1001.8801	0.000910
1002.1230	0.000995
1002.3658	0.000932
1002.6087	0.000383
1002.8516	-0.000018
1003.0945	0.002197
1003.3374	0.000130
1003.5803	-0.000524
1003.8232	0.000278
1004.0661	0.001944
1004.3091	0.000489
1004.5520	0.000425
1004.7949	0.000932
1005.0379	0.002260
1005.2808	0.000130
1005.5238	0.001206
1005.7667	0.001121
1006.0097	0.001269
1006.2527	0.000805
1006.4957	0.002007
1006.7387	0.000320
1006.9817	0.001944
1007.2247	0.000594
1007.4677	-0.000503
1007.7107	0.000510
1007.9538	0.001691
1008.1968	0.000805
1008.4398	0.001965
1008.6829	0.000847
1008.9259	0.001353
1009.1690	0.001058
1009.4121	-0.000482
1009.6551	0.000130
1009.8982	0.001142
1010.1413	0.000257
1010.3844	0.001227
1010.6275	0.000489
1010.8706	0.001164
1011.1137	0.001796
1011.3568	0.000299
1011.6000	-0.000397
1011.8431	0.000721
1012.0863	0.000362
1012.3294	0.001142
1012.5726	0.000299
1012.8157	0.001185
1013.0589	-0.000376
1013.3021	0.001480
1013.5452	0.001227
1013.7884	0.001227
1014.0316	0.000088
1014.2748	0.001881
1014.5180	0.001290
1014.7613	0.001923
1015.0045	0.000130
1015.2477	0.000468
1015.4909	-0.000460
1015.7342	0.001543
1015.9774	0.001185
1016.2207	-0.000503
1016.4640	0.000889
1016.7072	0.000193
1016.9505	0.000932
1017.1938	0.001543
1017.4371	0.000995
1017.6804	0.000510
1017.9237	0.001164
1018.1670	0.001628
1018.4103	0.000067
1018.6536	0.000299
1018.8969	0.001606
1019.1403	0.000404
1019.3836	0.001037
1019.6270	0.001079
1019.8703	0.000995
1020.1137	0.001628
1020.3571	0.000172
1020.6004	0.000953
1020.8438	0.001459
1021.0872	0.002134
1021.3306	0.000362
1021.5740	0.002176
1021.8174	-0.000671
1022.0608	-0.000545
1022.3042	0.000889
1022.5477	0.000868
1022.7911	0.000657
1023.0345	0.001522
