# Wavelength (nm)	Intensity (a.u.)
197.7802	0.001771
197.9842	0.001138
198.1882	0.000484
198.3922	0.001053
198.5963	0.002003
198.8003	-0.000297
199.0044	-0.000023
199.2085	0.000336
199.4126	0.000737
199.6168	0.002193
199.8209	0.000378
200.0251	0.000800
200.2292	0.000885
200.4334	-0.000213
200.6376	0.001792
200.8418	-0.000677
201.0461	0.001581
201.2503	0.000420
201.4546	0.001011
201.6589	0.000167
201.8631	0.001792
202.0674	-0.001479
202.2718	0.001475
202.4761	0.001201
202.6805	0.000315
202.8848	0.000695
203.0892	0.000209
203.2936	-0.000002
203.4980	0.001433
203.7024	0.000188
203.9069	0.000484
204.1113	0.001686
204.3158	0.001602
204.5203	-0.000403
204.7248	0.001475
204.9293	0.001644
205.1338	0.000547
205.3384	0.000125
205.5430	0.000062
205.7475	-0.000508
205.9521	0.000315
206.1567	0.001560
206.3614	0.000779
206.5660	0.000695
206.7706	0.001053
206.9753	0.001264
207.1800	0.000441
207.3847	-0.000255
207.5894	-0.000276
207.7941	0.000441
207.9989	0.002552
208.2036	0.002594
208.4084	0.001285
208.6132	0.001243
208.8180	0.000146
209.0228	0.001433
209.2276	0.001708
209.4325	0.002045
209.6373	-0.000002
209.8422	0.000336
210.0471	-0.000171
210.2520	-0.000424
210.4569	0.002868
210.6618	0.000927
210.8668	0.001454
211.0718	0.000378
211.2767	0.001665
211.4817	0.000441
211.6867	0.000167
211.8918	0.000652
212.0968	0.000885
212.3018	0.000674
212.5069	0.001074
212.7120	0.000695
212.9171	0.000948
213.1222	-0.000086
213.3273	0.000610
213.5325	0.000188
213.7376	0.002277
213.9428	0.000167
214.1480	0.001053
214.3532	0.000927
214.5584	-0.000297
214.7636	0.001876
214.9689	0.002003
215.1741	0.000357
215.3794	0.000441
215.5847	0.002383
215.7900	0.000484
215.9953	0.000336
216.2007	0.001138
216.4060	0.001011
216.6114	0.002847
216.8168	-0.000508
217.0222	0.000378
217.2276	0.000948
217.4330	0.000167
217.6384	0.000378
217.8439	0.001307
218.0494	-0.000086
218.2548	0.001496
218.4603	0.001222
218.6659	0.000800
218.8714	-0.000044
219.0769	0.001243
219.2825	0.001602
219.4881	0.000842
219.6936	-0.000593
219.8992	0.001855
220.1049	0.000399
220.3105	0.001328
220.5161	-0.000698
220.7218	0.001496
220.9275	0.001138
221.1332	0.001750
221.3389	-0.000044
221.5446	0.001285
221.7503	0.001433
221.9561	0.001855
222.1618	0.000019
222.3676	0.000927
222.5734	0.002214
222.7792	0.000230
222.9850	0.000441
223.1909	0.000737
223.3967	-0.000635
223.6026	0.001138
223.8085	-0.000023
224.0144	0.001391
224.2203	-0.001099
224.4262	-0.000192
224.6322	0.000146
224.8381	0.000631
225.0441	0.000378
225.2501	0.001074
225.4561	0.001581
225.6621	0.000927
225.8681	0.001117
226.0742	0.001011
226.2802	-0.000719
226.4863	0.001391
226.6924	0.001307
226.8985	0.001053
227.1046	0.000652
227.3107	0.001370
227.5169	0.000821
227.7230	0.000906
227.9292	0.000294
228.1354	0.000631
228.3416	0.001475
228.5478	0.000885
228.7541	0.001771
228.9603	-0.000424
229.1666	0.000273
229.3729	0.000484
229.5791	0.000420
229.7855	0.003037
229.9918	0.001982
230.1981	0.001750
230.4045	0.000695
230.6108	0.001032
230.8172	0.000674
231.0236	0.000547
231.2300	-0.000213
231.4364	0.000420
231.6429	-0.000023
231.8493	0.001307
232.0558	0.001307
232.2623	0.001096
232.4688	0.001792
232.6753	0.000568
232.8818	0.000040
233.0884	0.000758
233.2949	0.001433
233.5015	0.003037
233.7081	-0.000487
233.9147	-0.000171
234.1213	-0.000951
234.3279	0.001961
234.5346	0.001919
234.7413	0.000294
234.9479	0.000758
235.1546	-0.000171
235.3613	0.001644
235.5680	0.001053
235.7748	0.001623
235.9815	0.000315
236.1883	-0.000065
236.3951	0.000083
236.6018	0.001307
236.8087	0.000399
237.0155	0.000251
237.2223	0.000462
237.4292	0.000378
237.6360	0.001032
237.8429	0.000927
238.0498	0.001855
238.2567	0.001243
238.4636	0.001074
238.6706	0.002319
238.8775	0.000758
239.0845	0.000484
239.2915	0.000948
239.4985	0.000547
239.7055	0.000547
239.9125	0.001391
240.1195	0.001074
240.3266	0.001475
240.5337	0.000842
240.7407	0.001159
240.9478	0.002066
241.1549	-0.000086
241.3621	0.001560
241.5692	0.000927
241.7764	0.001623
241.9835	0.001138
242.1907	0.001032
242.3979	0.001264
242.6051	0.002319
242.8124	-0.000213
243.0196	0.001328
243.2269	-0.000761
243.4341	0.001307
243.6414	0.000357
243.8487	0.000800
244.0560	0.000315
244.2634	0.001560
244.4707	0.000568
244.6781	0.001285
244.8854	0.001391
245.0928	0.000378
245.3002	0.000758
245.5076	0.000779
245.7151	0.000230
245.9225	0.000652
246.1300	0.001159
246.3375	0.001855
246.5449	-0.000002
246.7524	0.001117
246.9600	0.001180
247.1675	0.000315
247.3750	0.000251
247.5826	0.000927
247.7902	0.001011
247.9978	0.001096
248.2054	0.001011
248.4130	0.001496
248.6206	0.000040
248.8283	0.001518
249.0359	0.000610
249.2436	0.000631
249.4513	0.001876
249.6590	-0.000255
249.8667	0.001328
250.0745	0.001708
250.2822	0.002235
250.4900	0.001644
250.6978	0.001475
250.9056	0.000420
251.1134	-0.000234
251.3212	0.000695
251.5290	0.000821
251.7369	0.001560
251.9447	0.000357
252.1526	0.001665
252.3605	0.001834
252.5684	0.001032
252.7763	0.001032
252.9843	0.001581
253.1922	-0.000951
253.4002	0.000652
253.6082	0.002003
253.8162	0.001539
254.0242	0.000505
254.2322	0.000695
254.4402	0.001518
254.6483	0.000652
254.8564	0.001433
255.0644	0.001897
255.2725	-0.000593
255.4806	-0.000761
255.6888	-0.000149
255.8969	0.001243
256.1051	0.000800
256.3132	-0.000171
256.5214	0.001560
256.7296	0.000948
256.9378	0.001138
257.1460	0.001813
257.3543	0.000125
257.5625	0.000019
257.7708	0.001096
257.9791	0.002573
258.1874	0.001096
258.3957	0.001264
258.6040	0.000104
258.8124	0.001096
259.0207	0.002530
259.2291	0.000315
259.4375	0.000336
259.6459	0.000547
259.8543	-0.000276
260.0627	0.000758
260.2711	0.000420
260.4796	0.001117
260.6881	0.000927
260.8965	0.002108
261.1050	0.000462
261.3135	0.001433
261.5221	-0.000234
261.7306	0.000062
261.9392	0.000062
262.1477	-0.000529
262.3563	-0.000086
262.5649	0.000188
262.7735	0.001243
262.9822	0.000505
263.1908	-0.000804
263.3995	0.000800
263.6081	0.001032
263.8168	0.001496
264.0255	0.000336
264.2342	0.000885
264.4429	-0.000593
264.6517	0.000505
264.8604	0.002087
265.0692	0.002193
265.2780	-0.000234
265.4868	-0.000149
265.6956	-0.001036
265.9044	0.002151
266.1133	0.001053
266.3221	0.000631
266.5310	0.001307
266.7399	0.001539
266.9488	0.001285
267.1577	-0.000677
267.3666	0.000040
267.5755	0.001771
267.7845	0.001074
267.9935	0.000716
268.2024	0.001243
268.4114	0.001454
268.6205	0.000040
268.8295	0.001581
269.0385	0.000589
269.2476	0.001370
269.4566	0.000378
269.6657	0.000906
269.8748	0.000484
270.0839	0.001201
270.2931	0.000927
270.5022	0.001370
270.7114	0.000652
270.9205	0.001729
271.1297	-0.000128
271.3389	0.001096
271.5481	-0.000276
271.7573	-0.000107
271.9666	0.000842
272.1758	0.001897
272.3851	0.000547
272.5944	0.000230
272.8037	0.001370
273.0130	0.001539
273.2223	0.000948
273.4316	0.000378
273.6410	0.000885
273.8504	-0.000614
274.0597	0.001053
274.2691	0.000230
274.4785	0.000273
274.6880	0.000800
274.8974	-0.000065
275.1069	0.000842
275.3163	0.000610
275.5258	0.000083
275.7353	-0.000445
275.9448	0.000863
276.1543	0.000610
276.3639	0.000737
276.5734	-0.000382
276.7830	0.001159
276.9926	0.000631
277.2022	0.001307
277.4118	0.000800
277.6214	0.000906
277.8310	0.000209
278.0407	0.001328
278.2503	-0.000424
278.4600	0.000674
278.6697	0.001539
278.8794	0.000969
279.0891	-0.000065
279.2989	0.001750
279.5086	0.000125
279.7184	0.000251
279.9281	0.000209
280.1379	0.000737
280.3477	-0.000065
280.5576	0.000484
280.7674	0.001454
280.9772	0.001032
281.1871	-0.000593
281.3970	0.000378
281.6069	0.000652
281.8168	0.000462
282.0267	-0.000065
282.2366	0.001264
282.4466	0.000927
282.6565	0.002003
282.8665	0.001264
283.0765	0.002404
283.2865	0.000378
283.4965	0.000125
283.7065	0.000167
283.9166	0.000948
284.1266	0.001201
284.3367	-0.000403
284.5468	-0.000297
284.7569	0.002636
284.9670	0.000674
285.1771	0.000589
285.3873	0.000336
285.5974	0.001053
285.8076	0.001750
286.0178	0.001560
286.2280	0.001834
286.4382	-0.000593
286.6484	0.000568
286.8587	0.000842
287.0689	0.000083
287.2792	0.000336
287.4895	-0.000171
287.6998	0.002467
287.9101	0.001750
288.1204	0.000315
288.3308	0.001475
288.5411	0.000589
288.7515	0.001243
288.9619	0.000927
289.1723	0.000547
289.3827	0.000758
289.5931	0.000948
289.8035	0.001159
290.0140	-0.000339
290.2245	-0.000192
290.4349	-0.000930
290.6454	0.000399
290.8559	-0.000403
291.0665	0.001496
291.2770	0.000758
291.4875	0.000948
291.6981	0.000484
291.9087	0.000906
292.1193	0.000462
292.3299	-0.000677
292.5405	-0.000635
292.7511	0.001222
292.9618	-0.000044
293.1724	0.000547
293.3831	0.000209
293.5938	0.001855
293.8045	0.000336
294.0152	0.000758
294.2260	0.000251
294.4367	0.001032
294.6475	0.001518
294.8582	0.001201
295.0690	0.001897
295.2798	0.001855
295.4906	0.001897
295.7015	0.001518
295.9123	0.001264
296.1232	0.001053
296.3340	0.001159
296.5449	0.000948
296.7558	0.000589
296.9667	0.000737
297.1777	0.000589
297.3886	0.000505
297.5995	0.001581
297.8105	0.001518
298.0215	0.001096
298.2325	0.000062
298.4435	0.001370
298.6545	0.001243
298.8656	0.001623
299.0766	0.001138
299.2877	0.000885
299.4988	0.000125
299.7099	0.002425
299.9210	0.001074
300.1321	-0.000276
300.3432	0.000230
300.5544	0.000885
300.7655	0.000863
300.9767	-0.000086
301.1879	0.000167
301.3991	-0.000951
301.6103	-0.000804
301.8215	0.000040
302.0328	0.001771
302.2441	0.001897
302.4553	0.002045
302.6666	-0.000487
302.8779	0.001940
303.0892	0.000315
303.3006	0.001475
303.5119	-0.000318
303.7233	-0.000360
303.9346	0.001370
304.1460	0.000589
304.3574	-0.000635
304.5688	0.000885
304.7803	0.000885
304.9917	0.002087
305.2031	0.000927
305.4146	0.000674
305.6261	0.000125
305.8376	-0.000192
306.0491	0.000526
306.2606	0.000251
306.4722	0.000357
306.6837	0.001011
306.8953	0.001307
307.1069	0.001433
307.3184	0.001159
307.5301	0.000273
307.7417	0.000125
307.9533	0.000885
308.1650	0.000927
308.3766	0.000800
308.5883	0.001454
308.8000	-0.000107
309.0117	0.000758
309.2234	0.001919
309.4351	0.000821
309.6469	0.001644
309.8586	0.000378
310.0704	0.000336
310.2822	-0.000487
310.4940	-0.000044
310.7058	0.000969
310.9176	0.000273
311.1295	-0.000002
311.3413	0.001771
311.5532	-0.000213
311.7651	0.001581
311.9770	0.001264
312.1889	0.001138
312.4008	0.000230
312.6127	-0.000677
312.8247	0.000674
313.0366	0.000589
313.2486	0.001518
313.4606	0.001201
313.6726	0.000695
313.8846	0.000990
314.0967	-0.000149
314.3087	0.001117
314.5208	0.001328
314.7328	0.001560
314.9449	0.000758
315.1570	0.001222
315.3692	0.001876
315.5813	0.001264
315.7934	0.001433
316.0056	0.000104
316.2177	0.002024
316.4299	0.000230
316.6421	0.000399
316.8543	0.001623
317.0666	-0.000656
317.2788	0.000441
317.4911	0.001982
317.7033	0.000357
317.9156	-0.000065
318.1279	0.000062
318.3402	0.001201
318.5525	0.000800
318.7649	0.000758
318.9772	-0.000403
319.1896	0.000863
319.4019	0.000737
319.6143	0.001053
319.8267	0.000294
320.0392	0.000251
320.2516	-0.000656
320.4640	-0.000044
320.6765	0.001560
320.8890	0.001096
321.1014	0.000209
321.3139	-0.000339
321.5265	0.001961
321.7390	0.000906
321.9515	0.001117
322.1641	0.000462
322.3766	0.001074
322.5892	0.000209
322.8018	0.000294
323.0144	0.000863
323.2270	-0.000424
323.4397	0.000336
323.6523	0.000378
323.8650	0.001011
324.0777	0.001243
324.2904	0.000779
324.5031	0.001792
324.7158	0.000842
324.9285	0.001264
325.1412	0.000526
325.3540	0.001813
325.5668	0.000610
325.7796	0.000462
325.9924	0.000315
326.2052	0.001475
326.4180	-0.000318
326.6308	0.001053
326.8437	0.001475
327.0566	0.001919
327.2694	0.001433
327.4823	0.001433
327.6952	0.001897
327.9082	0.001138
328.1211	0.001961
328.3340	0.000547
328.5470	-0.000994
328.7600	0.001792
328.9730	-0.000382
329.1860	0.000695
329.3990	0.000842
329.6120	0.000800
329.8251	0.000927
330.0381	0.000737
330.2512	0.001159
330.4643	0.000146
330.6774	0.000188
330.8905	0.000779
331.1036	0.000737
331.3167	-0.000930
331.5299	0.001285
331.7431	0.000294
331.9562	0.000125
332.1694	0.002319
332.3826	0.000652
332.5959	0.001032
332.8091	0.000125
333.0223	0.001855
333.2356	0.000885
333.4489	-0.000424
333.6622	0.000631
333.8755	0.001412
334.0888	0.001243
334.3021	0.000315
334.5154	-0.000065
334.7288	0.001243
334.9422	0.000146
335.1555	0.001370
335.3689	0.000019
335.5823	0.001159
335.7958	0.000821
336.0092	0.001602
336.2227	0.001307
336.4361	0.001433
336.6496	0.000779
336.8631	0.001665
337.0766	0.002235
337.2901	0.000568
337.5036	0.000062
337.7172	-0.000128
337.9307	0.000462
338.1443	0.001729
338.3579	0.000209
338.5715	0.001328
338.7851	0.000484
338.9987	0.001602
339.2124	0.000695
339.4260	-0.000086
339.6397	0.001834
339.8533	0.001391
340.0670	0.001180
340.2807	0.000885
340.4945	0.000336
340.7082	0.000167
340.9219	-0.000065
341.1357	0.001032
341.3495	-0.000023
341.5633	0.000885
341.7771	0.000863
341.9909	0.001644
342.2047	0.000104
342.4185	0.000674
342.6324	0.000990
342.8463	0.000146
343.0601	0.000251
343.2740	0.001011
343.4879	-0.000149
343.7019	0.001623
343.9158	0.000863
344.1297	-0.000213
344.3437	-0.000783
344.5577	0.001096
344.7717	0.001032
344.9857	0.000040
345.1997	0.000230
345.4137	0.001096
345.6277	0.001180
345.8418	0.000062
346.0559	0.001391
346.2699	0.002151
346.4840	0.000674
346.6981	0.001264
346.9123	-0.000297
347.1264	0.000420
347.3406	-0.000487
347.5547	0.001391
347.7689	-0.000698
347.9831	0.002024
348.1973	0.001074
348.4115	0.001264
348.6257	0.001117
348.8400	0.001117
349.0542	-0.001183
349.2685	0.000948
349.4828	0.002362
349.6971	0.000526
349.9114	0.000378
350.1257	0.001539
350.3400	0.001096
350.5544	0.001096
350.7687	-0.000656
350.9831	0.000906
351.1975	0.001180
351.4119	0.001539
351.6263	0.000209
351.8407	0.000737
352.0552	-0.000192
352.2696	0.001222
352.4841	0.000188
352.6986	0.002256
352.9131	-0.000403
353.1276	0.000990
353.3421	0.001328
353.5566	0.002066
353.7712	0.000948
353.9858	0.002003
354.2003	0.001750
354.4149	-0.000023
354.6295	0.000652
354.8441	0.001433
355.0588	0.001897
355.2734	0.002193
355.4881	0.000484
355.7027	0.001940
355.9174	0.000336
356.1321	0.000821
356.3468	0.000758
356.5615	0.001940
356.7763	0.000420
356.9910	0.000273
357.2058	0.001328
357.4206	0.000821
357.6353	0.000927
357.8501	0.002024
358.0650	0.001412
358.2798	0.001053
358.4946	0.001729
358.7095	0.001454
358.9243	0.000294
359.1392	0.001855
359.3541	0.000695
359.5690	0.000948
359.7839	0.001518
359.9989	0.000273
360.2138	0.001623
360.4288	0.001285
360.6438	0.000589
360.8587	0.001539
361.0737	0.001074
361.2888	0.001349
361.5038	0.000779
361.7188	0.000610
361.9339	0.000885
362.1489	0.001222
362.3640	0.000948
362.5791	0.001982
362.7942	0.001876
363.0093	0.000737
363.2245	0.001919
363.4396	-0.000360
363.6548	-0.000466
363.8699	0.000948
364.0851	0.000378
364.3003	0.000104
364.5155	-0.000044
364.7308	0.001771
364.9460	0.000800
365.1612	0.001433
365.3765	-0.000403
365.5918	0.000800
365.8071	0.000990
366.0224	0.001138
366.2377	0.000674
366.4530	-0.000149
366.6684	0.000083
366.8837	0.000125
367.0991	0.000357
367.3145	0.002552
367.5299	0.000188
367.7453	0.001053
367.9607	0.000969
368.1761	0.001243
368.3916	0.000251
368.6070	0.000674
368.8225	-0.000297
369.0380	0.001138
369.2535	0.000526
369.4690	0.000315
369.6845	0.000526
369.9001	0.001602
370.1156	0.001159
370.3312	0.001602
370.5468	0.000294
370.7624	0.001096
370.9780	0.000462
371.1936	0.002172
371.4092	0.001855
371.6249	-0.000107
371.8405	0.000737
372.0562	0.000505
372.2719	-0.001226
372.4876	0.001813
372.7033	0.000589
372.9190	0.000737
373.1348	0.000146
373.3505	0.001475
373.5663	0.001961
373.7820	0.001581
373.9978	0.000716
374.2136	0.000674
374.4294	0.001053
374.6453	0.001096
374.8611	0.001897
375.0770	0.001349
375.2928	0.000842
375.5087	0.001117
375.7246	0.001412
375.9405	0.001117
376.1564	0.001180
376.3724	-0.000339
376.5883	0.001117
376.8043	0.000019
377.0203	0.000948
377.2362	0.000104
377.4522	-0.001057
377.6682	0.000885
377.8843	0.001159
378.1003	0.001264
378.3164	0.000674
378.5324	0.001855
378.7485	0.000737
378.9646	0.000800
379.1807	-0.000360
379.3968	0.002425
379.6129	0.000484
379.8291	0.001159
380.0452	0.000842
380.2614	0.000399
380.4776	0.002425
380.6938	0.000378
380.9100	-0.000234
381.1262	0.000758
381.3424	0.000737
381.5587	0.002087
381.7749	0.001138
381.9912	0.001011
382.2075	0.000842
382.4238	0.000863
382.6401	0.000610
382.8564	0.000716
383.0728	0.002151
383.2891	0.001328
383.5055	0.001560
383.7219	0.000188
383.9382	-0.000149
384.1546	0.001771
384.3711	0.000589
384.5875	0.000441
384.8039	0.000779
385.0204	0.000568
385.2368	0.000758
385.4533	0.001159
385.6698	0.000505
385.8863	0.000716
386.1028	0.000652
386.3194	0.002024
386.5359	0.000209
386.7525	0.002130
386.9690	0.000885
387.1856	0.001391
387.4022	0.001581
387.6188	0.001581
387.8355	-0.000044
388.0521	0.001412
388.2687	0.002108
388.4854	0.001855
388.7021	0.001243
388.9188	0.001096
389.1355	0.001475
389.3522	0.002172
389.5689	0.000441
389.7856	0.002341
390.0024	-0.000044
390.2192	0.002298
390.4359	0.002256
390.6527	0.002383
390.8695	0.002530
391.0863	0.002678
391.3032	0.002087
391.5200	0.002931
391.7369	0.001834
391.9537	0.001370
392.1706	0.001708
392.3875	0.003311
392.6044	0.003881
392.8213	0.002953
393.0383	0.004240
393.2552	0.002910
393.4722	0.003332
393.6891	0.004324
393.9061	0.004746
394.1231	0.005632
394.3401	0.004324
394.5572	0.005316
394.7742	0.005822
394.9912	0.003818
395.2083	0.004852
395.4254	0.005105
395.6425	0.003754
395.8596	0.005928
396.0767	0.006434
396.2938	0.004261
396.5109	0.004387
396.7281	0.005822
396.9453	0.007004
397.1624	0.005295
397.3796	0.006455
397.5968	0.007785
397.8140	0.005949
398.0313	0.007004
398.2485	0.007785
398.4658	0.009199
398.6830	0.008355
398.9003	0.008017
399.1176	0.007553
399.3349	0.008650
399.5522	0.008798
399.7696	0.010212
399.9869	0.006962
400.2043	0.008882
400.4216	0.009114
400.6390	0.008460
400.8564	0.007743
401.0738	0.010001
401.2912	0.010085
401.5087	0.011224
401.7261	0.009958
401.9436	0.008734
402.1610	0.009642
402.3785	0.009600
402.5960	0.009072
402.8135	0.008692
403.0310	0.009979
403.2486	0.009705
403.4661	0.011604
403.6837	0.011583
403.9013	0.010676
404.1189	0.011710
404.3365	0.009705
404.5541	0.011161
404.7717	0.010802
404.9893	0.012976
405.2070	0.012216
405.4246	0.013440
405.6423	0.012596
405.8600	0.013335
406.0777	0.013926
406.2954	0.014221
406.5131	0.011900
406.7309	0.013250
406.9486	0.012026
407.1664	0.012216
407.3842	0.012681
407.6020	0.013989
407.8198	0.014516
408.0376	0.015424
408.2554	0.014917
408.4733	0.013229
408.6911	0.014284
408.9090	0.013546
409.1269	0.015002
409.3448	0.013103
409.5627	0.013292
409.7806	0.014917
409.9985	0.015593
410.2165	0.014326
410.4344	0.014263
410.6524	0.015466
410.8704	0.014727
411.0884	0.014791
411.3064	0.015593
411.5244	0.015107
411.7424	0.016036
411.9605	0.015698
412.1785	0.015086
412.3966	0.015445
412.6147	0.018146
412.8328	0.016331
413.0509	0.017175
413.2690	0.016985
413.4871	0.016859
413.7053	0.016985
413.9234	0.017302
414.1416	0.017597
414.3598	0.018040
414.5780	0.017998
414.7962	0.017407
415.0144	0.017070
415.2326	0.016690
415.4509	0.017281
415.6692	0.016985
415.8874	0.016479
416.1057	0.017323
416.3240	0.019518
416.5423	0.018062
416.7606	0.016922
416.9790	0.018420
417.1973	0.017386
417.4157	0.019328
417.6341	0.017893
417.8524	0.018357
418.0708	0.018969
418.2893	0.019961
418.5077	0.017893
418.7261	0.017829
418.9446	0.018251
419.1630	0.019961
419.3815	0.020172
419.6000	0.018610
419.8185	0.020362
420.0370	0.020256
420.2555	0.020805
420.4741	0.020362
420.6926	0.022683
420.9112	0.023675
421.1298	0.022957
421.3483	0.023105
421.5669	0.023611
421.7856	0.025890
422.0042	0.024835
422.2228	0.024540
422.4415	0.023822
422.6601	0.025236
422.8788	0.023168
423.0975	0.022936
423.3162	0.023675
423.5349	0.023991
423.7536	0.023084
423.9724	0.022936
424.1911	0.022577
424.4099	0.025722
424.6287	0.024054
424.8475	0.022324
425.0663	0.024329
425.2851	0.023126
425.5039	0.024835
425.7228	0.023063
425.9416	0.023379
426.1605	0.023569
426.3793	0.021607
426.5982	0.023232
426.8171	0.022535
427.0361	0.022176
427.2550	0.023126
427.4739	0.024962
427.6929	0.024076
427.9118	0.024033
428.1308	0.021712
428.3498	0.023274
428.5688	0.022873
428.7878	0.022324
429.0068	0.023042
429.2259	0.024118
429.4449	0.027832
429.6640	0.027768
429.8831	0.029077
430.1022	0.027051
430.3213	0.027220
430.5404	0.029013
430.7595	0.028233
430.9787	0.025553
431.1978	0.026756
431.4170	0.025785
431.6362	0.025236
431.8553	0.024498
432.0745	0.024371
432.2938	0.022725
432.5130	0.022303
432.7322	0.022535
432.9515	0.020615
433.1707	0.021522
433.3900	0.023654
433.6093	0.024899
433.8286	0.027494
434.0479	0.027557
434.2673	0.026355
434.4866	0.024223
434.7059	0.024371
434.9253	0.023632
435.1447	0.025489
435.3641	0.024266
435.5835	0.023907
435.8029	0.025658
436.0223	0.024287
436.2418	0.024814
436.4612	0.026397
436.6807	0.028465
436.9001	0.024793
437.1196	0.026334
437.3391	0.024920
437.5586	0.024814
437.7782	0.022409
437.9977	0.023506
438.2173	0.026207
438.4368	0.026038
438.6564	0.025764
438.8760	0.025954
439.0956	0.025658
439.3152	0.025405
439.5348	0.025173
439.7545	0.025489
439.9741	0.026502
440.1938	0.025553
440.4135	0.023126
440.6331	0.025342
440.8528	0.025300
441.0725	0.028317
441.2923	0.029140
441.5120	0.027515
441.7318	0.029414
441.9515	0.030765
442.1713	0.029668
442.3911	0.028486
442.6109	0.026080
442.8307	0.027621
443.0505	0.027642
443.2703	0.028085
443.4902	0.029246
443.7101	0.027895
443.9299	0.028697
444.1498	0.028528
444.3697	0.026418
444.5896	0.028866
444.8095	0.029288
445.0295	0.029309
445.2494	0.028971
445.4694	0.027030
445.6894	0.028169
445.9093	0.028781
446.1293	0.027072
446.3493	0.027705
446.5694	0.027431
446.7894	0.029562
447.0094	0.026186
447.2295	0.026967
447.4496	0.027515
447.6696	0.026439
447.8897	0.024835
448.1098	0.025827
448.3300	0.025447
448.5501	0.027431
448.7702	0.024793
448.9904	0.023696
449.2106	0.023421
449.4307	0.025637
449.6509	0.025088
449.8711	0.025194
450.0914	0.024814
450.3116	0.024814
450.5318	0.024350
450.7521	0.024877
450.9724	0.023210
451.1926	0.024329
451.4129	0.022387
451.6332	0.021775
451.8535	0.024772
452.0739	0.020552
452.2942	0.023168
452.5146	0.021248
452.7349	0.021248
452.9553	0.024519
453.1757	0.021332
453.3961	0.020910
453.6165	0.020678
453.8369	0.019581
454.0574	0.019855
454.2778	0.020277
454.4983	0.021206
454.7188	0.020362
454.9393	0.019496
455.1597	0.020552
455.3803	0.019707
455.6008	0.020193
455.8213	0.020277
456.0419	0.019201
456.2624	0.018062
456.4830	0.018842
456.7036	0.017977
456.9242	0.018906
457.1448	0.018610
457.3654	0.019961
457.5860	0.020108
457.8067	0.019581
458.0274	0.019159
458.2480	0.021142
458.4687	0.019539
458.6894	0.018589
458.9101	0.018294
459.1308	0.018631
459.3516	0.019222
459.5723	0.017787
459.7931	0.020741
460.0138	0.021607
460.2346	0.019180
460.4554	0.018357
460.6762	0.018526
460.8970	0.017661
461.1178	0.019813
461.3387	0.018251
461.5595	0.018230
461.7804	0.017597
462.0013	0.017028
462.2222	0.016458
462.4431	0.015297
462.6640	0.014664
462.8849	0.015403
463.1059	0.014727
463.3268	0.016247
463.5478	0.016205
463.7687	0.017112
463.9897	0.016901
464.2107	0.015846
464.4317	0.015445
464.6528	0.016711
464.8738	0.015867
465.0948	0.016943
465.3159	0.016563
465.5370	0.018062
465.7581	0.014812
465.9792	0.017787
466.2003	0.016901
466.4214	0.014875
466.6425	0.015171
466.8637	0.013651
467.0848	0.014010
467.3060	0.014263
467.5272	0.014094
467.7484	0.013208
467.9696	0.013715
468.1908	0.015192
468.4120	0.012216
468.6333	0.011963
468.8545	0.013039
469.0758	0.011414
469.2970	0.011351
469.5183	0.011288
469.7396	0.012216
469.9610	0.011499
470.1823	0.010655
470.4036	0.011499
470.6250	0.009536
470.8463	0.009874
471.0677	0.009473
471.2891	0.009600
471.5105	0.010001
471.7319	0.010148
471.9533	0.010929
472.1748	0.007806
472.3962	0.009452
472.6177	0.010064
472.8391	0.010043
473.0606	0.010212
473.2821	0.010486
473.5036	0.011436
473.7251	0.010845
473.9467	0.009452
474.1682	0.008650
474.3898	0.010845
474.6113	0.009768
474.8329	0.010338
475.0545	0.009916
475.2761	0.009135
475.4977	0.010317
475.7193	0.009874
475.9410	0.010486
476.1626	0.010064
476.3843	0.007300
476.6060	0.011056
476.8277	0.009304
477.0494	0.007067
477.2711	0.007447
477.4928	0.008249
477.7145	0.008692
477.9363	0.008312
478.1580	0.009536
478.3798	0.009536
478.6016	0.007700
478.8234	0.007489
479.0452	0.009557
479.2670	0.008629
479.4888	0.007616
479.7107	0.007046
479.9325	0.007110
480.1544	0.008312
480.3763	0.006835
480.5982	0.009663
480.8201	0.007806
481.0420	0.008397
481.2639	0.009072
481.4859	0.008650
481.7078	0.006920
481.9298	0.007089
482.1517	0.008397
482.3737	0.007869
482.5957	0.008545
482.8177	0.007616
483.0398	0.008903
483.2618	0.007468
483.4838	0.006941
483.7059	0.007215
483.9280	0.006413
484.1501	0.005421
484.3721	0.006582
484.5943	0.007827
484.8164	0.006118
485.0385	0.008819
485.2606	0.006329
485.4828	0.009431
485.7050	0.015297
485.9271	0.019855
486.1493	0.020657
486.3715	0.017154
486.5937	0.013314
486.8160	0.012258
487.0382	0.011457
487.2605	0.011984
487.4827	0.009114
487.7050	0.008692
487.9273	0.007046
488.1496	0.006941
488.3719	0.006413
488.5942	0.006012
488.8165	0.004620
489.0389	0.004303
489.2612	0.005907
489.4836	0.006413
489.7060	0.004303
489.9284	0.007025
490.1508	0.004978
490.3732	0.005443
490.5956	0.006012
490.8180	0.004577
491.0405	0.005232
491.2630	0.004134
491.4854	0.005949
491.7079	0.003775
491.9304	0.004978
492.1529	0.006076
492.3755	0.005696
492.5980	0.004071
492.8205	0.004809
493.0431	0.004999
493.2657	0.004746
493.4882	0.004957
493.7108	0.006118
493.9334	0.006371
494.1561	0.003965
494.3787	0.005253
494.6013	0.004071
494.8240	0.005337
495.0466	0.003311
495.2693	0.003902
495.4920	0.004852
495.7147	0.005443
495.9374	0.003375
496.1601	0.004493
496.3829	0.005611
496.6056	0.004240
496.8284	0.004493
497.0511	0.005907
497.2739	0.004324
497.4967	0.003987
497.7195	0.002298
497.9423	0.004155
498.1652	0.002847
498.3880	0.001855
498.6109	0.003417
498.8337	0.003797
499.0566	0.003332
499.2795	0.003797
499.5024	0.003881
499.7253	0.003881
499.9482	0.004303
500.1712	0.004831
500.3941	0.004788
500.6171	0.003902
500.8400	0.003375
501.0630	0.003100
501.2860	0.004071
501.5090	0.002699
501.7320	0.004387
501.9551	0.003987
502.1781	0.004261
502.4012	0.005780
502.6242	0.004915
502.8473	0.005527
503.0704	0.005210
503.2935	0.002910
503.5166	0.003965
503.7397	0.002341
503.9628	0.003459
504.1860	0.004240
504.4092	0.002108
504.6323	0.004472
504.8555	0.002889
505.0787	0.003881
505.3019	0.003733
505.5251	0.004999
505.7483	0.003459
505.9716	0.004071
506.1948	0.003944
506.4181	0.003459
506.6414	0.003375
506.8647	0.003860
507.0880	0.003881
507.3113	0.003712
507.5346	0.003185
507.7579	0.004915
507.9813	0.002636
508.2046	0.002720
508.4280	0.004936
508.6514	0.003100
508.8748	0.004472
509.0982	0.005801
509.3216	0.003100
509.5450	0.003923
509.7685	0.004324
509.9919	0.004134
510.2154	0.003987
510.4388	0.002995
510.6623	0.002868
510.8858	0.003797
511.1093	0.001961
511.3329	0.003396
511.5564	0.003923
511.7799	0.003628
512.0035	0.003269
512.2270	0.003459
512.4506	0.002847
512.6742	0.002826
512.8978	0.002657
513.1214	0.003248
513.3451	0.003079
513.5687	0.004620
513.7923	0.003797
514.0160	0.005084
514.2397	0.003797
514.4634	0.005527
514.6871	0.002931
514.9108	0.004852
515.1345	0.003586
515.3582	0.003269
515.5819	0.004831
515.8057	0.003607
516.0295	0.003733
516.2532	0.004767
516.4770	0.003797
516.7008	0.004282
516.9246	0.003016
517.1485	0.004155
517.3723	0.003290
517.5961	0.005274
517.8200	0.003269
518.0439	0.002826
518.2677	0.003185
518.4916	0.002699
518.7155	0.004472
518.9395	0.003586
519.1634	0.003733
519.3873	0.005611
519.6113	0.004029
519.8352	0.004198
520.0592	0.003290
520.2832	0.003902
520.5072	0.004662
520.7312	0.003818
520.9552	0.005316
521.1792	0.004831
521.4033	0.005527
521.6273	0.002974
521.8514	0.004683
522.0755	0.003543
522.2996	0.005654
522.5237	0.003649
522.7478	0.004809
522.9719	0.005084
523.1960	0.004261
523.4202	0.004240
523.6443	0.004387
523.8685	0.004620
524.0927	0.004029
524.3169	0.003037
524.5411	0.003396
524.7653	0.003965
524.9895	0.005590
525.2138	0.004008
525.4380	0.006751
525.6623	0.004240
525.8865	0.005421
526.1108	0.004176
526.3351	0.005548
526.5594	0.004409
526.7837	0.004894
527.0081	0.003649
527.2324	0.005801
527.4568	0.004556
527.6811	0.005632
527.9055	0.004683
528.1299	0.004029
528.3543	0.004050
528.5787	0.005147
528.8031	0.006645
529.0276	0.005675
529.2520	0.005738
529.4765	0.006097
529.7009	0.004831
529.9254	0.006244
530.1499	0.006519
530.3744	0.005527
530.5989	0.006835
530.8234	0.005316
531.0480	0.006308
531.2725	0.007700
531.4971	0.004683
531.7217	0.004345
531.9462	0.005147
532.1708	0.007806
532.3954	0.006160
532.6200	0.007426
532.8447	0.006645
533.0693	0.006835
533.2940	0.006983
533.5186	0.008249
533.7433	0.007722
533.9680	0.008291
534.1927	0.008249
534.4174	0.006519
534.6421	0.006941
534.8668	0.010064
535.0916	0.008650
535.3163	0.010296
535.5411	0.009304
535.7659	0.007110
535.9907	0.009072
536.2155	0.008502
536.4403	0.008101
536.6651	0.007658
536.8899	0.006624
537.1148	0.007869
537.3396	0.007215
537.5645	0.009009
537.7894	0.008207
538.0143	0.008481
538.2392	0.008924
538.4641	0.011414
538.6890	0.010254
538.9139	0.011436
539.1389	0.010402
539.3638	0.009325
539.5888	0.011984
539.8138	0.011436
540.0388	0.011182
540.2638	0.010233
540.4888	0.008587
540.7138	0.011710
540.9389	0.012322
541.1639	0.012047
541.3890	0.011984
541.6140	0.013672
541.8391	0.011836
542.0642	0.011604
542.2893	0.012069
542.5144	0.014115
542.7396	0.012934
542.9647	0.014432
543.1899	0.013926
543.4150	0.013841
543.6402	0.013081
543.8654	0.014538
544.0906	0.015213
544.3158	0.015360
544.5410	0.015424
544.7662	0.015614
544.9915	0.015888
545.2167	0.016753
545.4420	0.014326
545.6673	0.015508
545.8926	0.016036
546.1179	0.015192
546.3432	0.013609
546.5685	0.015213
546.7938	0.015888
547.0192	0.016753
547.2445	0.015065
547.4699	0.016247
547.6953	0.017576
547.9206	0.020108
548.1460	0.017492
548.3715	0.019285
548.5969	0.020446
548.8223	0.021016
549.0478	0.018863
549.2732	0.019391
549.4987	0.017724
549.7242	0.018378
549.9496	0.016901
550.1751	0.019560
550.4007	0.019222
550.6262	0.020383
550.8517	0.019602
551.0773	0.018104
551.3028	0.019053
551.5284	0.017766
551.7540	0.018357
551.9796	0.020615
552.2052	0.022134
552.4308	0.026249
552.6564	0.023696
552.8820	0.023717
553.1077	0.022387
553.3333	0.023084
553.5590	0.023316
553.7847	0.025511
554.0104	0.024561
554.2361	0.022852
554.4618	0.023506
554.6875	0.024076
554.9132	0.022176
555.1390	0.024012
555.3648	0.024730
555.5905	0.026186
555.8163	0.024223
556.0421	0.026692
556.2679	0.028802
556.4937	0.025468
556.7195	0.025553
556.9454	0.026650
557.1712	0.024920
557.3971	0.027135
557.6230	0.024941
557.8488	0.026798
558.0747	0.025700
558.3006	0.026756
558.5266	0.025637
558.7525	0.025236
558.9784	0.024054
559.2044	0.026080
559.4303	0.025321
559.6563	0.025848
559.8823	0.026460
560.1083	0.027916
560.3343	0.029604
560.5603	0.031503
560.7863	0.032664
561.0124	0.033740
561.2384	0.034964
561.4645	0.036125
561.6905	0.034373
561.9166	0.035196
562.1427	0.032981
562.3688	0.033783
562.5949	0.032221
562.8211	0.035302
563.0472	0.033656
563.2733	0.036568
563.4995	0.033698
563.7257	0.038615
563.9519	0.035703
564.1781	0.037539
564.4043	0.038341
564.6305	0.036969
564.8567	0.038805
565.0829	0.038488
565.3092	0.042730
565.5355	0.040662
565.7617	0.041611
565.9880	0.041126
566.2143	0.041485
566.4406	0.041654
566.6669	0.041274
566.8932	0.043848
567.1196	0.048596
567.3459	0.050094
567.5723	0.054589
567.7987	0.056277
568.0250	0.055307
568.2514	0.059569
568.4778	0.057797
568.7043	0.063030
568.9307	0.069445
569.1571	0.072294
569.3836	0.075923
569.6100	0.085166
569.8365	0.094873
570.0630	0.098798
570.2895	0.104073
570.5160	0.102385
570.7425	0.105149
570.9690	0.107787
571.1956	0.117283
571.4221	0.123909
571.6487	0.123930
571.8752	0.130767
572.1018	0.135156
572.3284	0.133532
572.5550	0.129227
572.7816	0.117325
573.0082	0.117832
573.2349	0.123297
573.4615	0.140453
573.6882	0.145391
573.9149	0.151236
574.1415	0.157166
574.3682	0.166704
574.5949	0.171325
574.8216	0.170312
575.0484	0.172739
575.2751	0.176706
575.5018	0.173372
575.7286	0.168434
575.9554	0.159318
576.1821	0.155541
576.4089	0.156891
576.6357	0.170755
576.8626	0.181180
577.0894	0.185400
577.3162	0.185569
577.5431	0.192195
577.7699	0.214690
577.9968	0.245161
578.2237	0.238894
578.4505	0.221527
578.6774	0.208823
578.9044	0.199117
579.1313	0.189135
579.3582	0.190802
579.5851	0.201227
579.8121	0.207346
580.0391	0.209815
580.2660	0.205088
580.4930	0.209119
580.7200	0.199707
580.9470	0.203063
581.1741	0.235961
581.4011	0.285571
581.6281	0.313405
581.8552	0.319018
582.0822	0.308172
582.3093	0.298380
582.5364	0.279621
582.7635	0.257675
582.9906	0.235855
583.2177	0.220809
583.4449	0.203991
583.6720	0.197745
583.8991	0.188355
584.1263	0.195993
584.3535	0.196458
584.5807	0.198842
584.8079	0.208971
585.0351	0.223194
585.2623	0.231656
585.4895	0.235328
585.7167	0.229757
585.9440	0.225093
586.1713	0.215323
586.3985	0.203506
586.6258	0.199771
586.8531	0.201585
587.0804	0.210533
587.3077	0.221907
587.5350	0.226444
587.7624	0.223616
587.9897	0.220071
588.2171	0.206966
588.4445	0.204265
588.6718	0.198315
588.8992	0.185105
589.1266	0.177381
589.3540	0.167063
589.5815	0.164129
589.8089	0.162948
590.0363	0.163750
590.2638	0.156934
590.4913	0.145834
590.7187	0.144083
590.9462	0.138870
591.1737	0.131928
591.4012	0.131210
591.6288	0.132645
591.8563	0.131675
592.0838	0.127264
592.3114	0.134692
592.5389	0.154655
592.7665	0.177614
592.9941	0.196964
593.2217	0.200214
593.4493	0.199117
593.6769	0.195424
593.9046	0.188840
594.1322	0.183775
594.3598	0.171389
594.5875	0.170249
594.8152	0.178204
595.0429	0.196415
595.2705	0.197787
595.4983	0.194854
595.7260	0.183839
595.9537	0.172528
596.1814	0.163897
596.4092	0.152291
596.6369	0.144336
596.8647	0.142753
597.0925	0.144884
597.3203	0.148008
597.5481	0.152629
597.7759	0.147353
598.0037	0.147712
598.2315	0.139060
598.4594	0.141719
598.6872	0.152734
598.9151	0.175588
599.1430	0.186498
599.3709	0.183248
599.5988	0.175525
599.8267	0.175356
600.0546	0.178880
600.2825	0.182741
600.5105	0.181138
600.7384	0.183290
600.9664	0.182087
601.1944	0.190570
601.4223	0.187088
601.6503	0.175398
601.8783	0.171410
602.1064	0.166619
602.3344	0.163011
602.5624	0.168751
602.7905	0.171768
603.0185	0.173161
603.2466	0.182404
603.4747	0.185864
603.7028	0.191794
603.9309	0.183374
604.1590	0.173541
604.3871	0.167949
604.6152	0.166831
604.8434	0.154465
605.0715	0.155836
605.2997	0.158854
605.5279	0.162230
605.7561	0.170861
605.9843	0.175989
606.2125	0.171853
606.4407	0.162061
606.6689	0.156195
606.8972	0.156364
607.1254	0.156765
607.3537	0.160162
607.5819	0.156301
607.8102	0.156807
608.0385	0.154275
608.2668	0.150687
608.4951	0.150561
608.7235	0.144230
608.9518	0.143555
609.1801	0.138237
609.4085	0.135262
609.6369	0.133869
609.8653	0.139630
610.0936	0.149759
610.3220	0.152840
610.5505	0.146277
610.7789	0.145644
611.0073	0.139461
611.2357	0.140052
611.4642	0.138491
611.6927	0.141635
611.9211	0.138132
612.1496	0.134566
612.3781	0.128636
612.6066	0.129100
612.8351	0.130809
613.0637	0.132582
613.2922	0.129269
613.5208	0.130345
613.7493	0.124795
613.9779	0.128277
614.2065	0.129860
614.4351	0.129206
614.6637	0.124838
614.8923	0.125703
615.1209	0.125407
615.3495	0.127982
615.5782	0.131780
615.8068	0.134144
616.0355	0.127159
616.2642	0.117072
616.4929	0.116017
616.7216	0.115257
616.9503	0.112008
617.1790	0.112957
617.4077	0.110847
617.6365	0.108969
617.8652	0.109095
618.0940	0.108779
618.3227	0.107956
618.5515	0.104115
618.7803	0.097574
619.0091	0.092995
619.2379	0.091707
619.4667	0.090568
619.6956	0.089112
619.9244	0.095358
620.1533	0.095379
620.3821	0.098144
620.6110	0.093459
620.8399	0.091707
621.0688	0.080861
621.2977	0.076999
621.5266	0.074636
621.7556	0.076556
621.9845	0.080017
622.2135	0.084617
622.4424	0.084385
622.6714	0.085799
622.9004	0.085039
623.1294	0.088584
623.3584	0.088669
623.5874	0.090230
623.8164	0.088985
624.0454	0.086622
624.2745	0.086158
624.5035	0.091433
624.7326	0.089196
624.9617	0.091095
625.1908	0.083520
625.4199	0.086453
625.6490	0.081199
625.8781	0.082001
626.1072	0.078941
626.3364	0.076641
626.5655	0.072948
626.7947	0.070141
627.0238	0.073707
627.2530	0.069571
627.4822	0.072083
627.7114	0.072547
627.9406	0.067546
628.1698	0.064507
628.3991	0.062355
628.6283	0.059337
628.8576	0.057290
629.0868	0.061700
629.3161	0.061447
629.5454	0.063874
629.7747	0.065372
630.0040	0.061405
630.2333	0.059147
630.4626	0.057290
630.6920	0.058345
630.9213	0.058155
631.1507	0.054631
631.3801	0.053049
631.6094	0.054927
631.8388	0.052584
632.0682	0.055138
632.2976	0.052247
632.5271	0.051867
632.7565	0.047056
632.9859	0.045621
633.2154	0.046634
633.4448	0.045199
633.6743	0.044439
633.9038	0.044355
634.1333	0.043363
634.3628	0.043764
634.5923	0.041654
634.8218	0.043722
635.0514	0.044249
635.2809	0.040704
635.5105	0.041443
635.7400	0.041295
635.9696	0.043553
636.1992	0.044903
636.4288	0.047457
636.6584	0.047710
636.8880	0.046359
637.1177	0.045431
637.3473	0.042498
637.5770	0.040915
637.8066	0.040430
638.0363	0.039986
638.2660	0.044840
638.4957	0.044903
638.7254	0.043278
638.9551	0.044312
639.1848	0.043257
639.4145	0.041126
639.6443	0.038578
639.8740	0.039680
640.1038	0.038175
640.3336	0.036896
640.5633	0.038542
640.7931	0.038505
641.0229	0.036848
641.2528	0.036626
641.4826	0.035154
641.7124	0.032687
641.9423	0.033039
642.1721	0.031379
642.4020	0.030851
642.6319	0.031191
642.8617	0.030690
643.0916	0.029314
643.3216	0.030821
643.5515	0.030212
643.7814	0.032626
644.0113	0.031151
644.2413	0.029435
644.4712	0.028338
644.7012	0.028557
644.9312	0.028510
645.1612	0.026120
645.3912	0.027692
645.6212	0.027222
645.8512	0.028212
646.0812	0.026600
646.3113	0.028053
646.5413	0.022542
646.7714	0.025568
647.0015	0.024782
647.2316	0.023060
647.4616	0.025691
647.6918	0.025984
647.9219	0.027532
648.1520	0.031300
648.3821	0.030651
648.6123	0.030915
648.8424	0.033898
649.0726	0.035099
649.3028	0.033650
649.5329	0.035276
649.7631	0.033978
649.9933	0.032919
650.2236	0.030372
650.4538	0.028559
650.6840	0.028446
650.9143	0.030394
651.1445	0.029380
651.3748	0.030506
651.6051	0.028077
651.8354	0.031290
652.0657	0.033315
652.2960	0.030958
652.5263	0.034593
652.7566	0.033328
652.9870	0.035404
653.2173	0.031093
653.4477	0.031564
653.6780	0.033029
653.9084	0.032700
654.1388	0.034708
654.3692	0.035712
654.5996	0.037013
654.8300	0.042488
655.0605	0.065576
655.2909	0.191698
655.5213	0.529552
655.7518	0.956971
655.9823	1.000000
656.2128	1.000000
656.4433	1.000000
656.6738	1.000000
656.9043	1.000000
657.1348	0.868035
657.3653	0.708393
657.5959	0.614182
657.8264	0.529868
658.0570	0.484144
658.2875	0.453107
658.5181	0.409463
658.7487	0.381382
658.9793	0.364503
659.2099	0.337136
659.4406	0.256350
659.6712	0.169121
659.9018	0.103492
660.1325	0.059426
660.3632	0.043113
660.5938	0.032033
660.8245	0.027174
661.0552	0.027320
661.2859	0.025228
661.5166	0.023515
661.7474	0.022820
661.9781	0.023660
662.2088	0.022529
662.4396	0.022194
662.6704	0.022497
662.9011	0.021777
663.1319	0.020621
663.3627	0.023886
663.5935	0.020424
663.8243	0.022120
664.0552	0.020912
664.2860	0.021187
664.5168	0.022708
664.7477	0.023669
664.9786	0.023186
665.2094	0.024907
665.4403	0.025703
665.6712	0.024352
665.9021	0.024740
666.1330	0.024433
666.3640	0.023165
666.5949	0.023207
666.8259	0.023908
667.0568	0.020923
667.2878	0.023156
667.5188	0.023441
667.7497	0.021690
667.9807	0.022195
668.2117	0.022333
668.4428	0.021987
668.6738	0.021987
668.9048	0.023548
669.1359	0.023780
669.3669	0.021311
669.5980	0.022999
669.8291	0.023021
670.0602	0.022219
670.2913	0.023780
670.5224	0.023042
670.7535	0.022008
670.9846	0.022894
671.2157	0.023379
671.4469	0.026481
671.6781	0.028423
671.9092	0.030659
672.1404	0.032854
672.3716	0.037285
672.6028	0.034162
672.8340	0.034521
673.0652	0.032559
673.2964	0.031693
673.5277	0.032411
673.7589	0.029098
673.9902	0.029921
674.2214	0.028634
674.4527	0.029478
674.6840	0.026819
674.9153	0.027262
675.1466	0.029794
675.3779	0.029372
675.6093	0.026059
675.8406	0.027325
676.0719	0.024645
676.3033	0.025890
676.5347	0.026418
676.7661	0.025489
676.9974	0.025363
677.2288	0.023147
677.4602	0.026122
677.6917	0.029604
677.9231	0.028296
678.1545	0.027452
678.3860	0.029963
678.6174	0.032200
678.8489	0.032559
679.0804	0.031314
679.3119	0.035450
679.5434	0.034690
679.7749	0.034817
680.0064	0.036125
680.2379	0.034985
680.4694	0.035386
680.7010	0.033677
680.9325	0.035450
681.1641	0.034205
681.3957	0.035049
681.6273	0.037433
681.8589	0.034458
682.0905	0.032727
682.3221	0.034563
682.5537	0.032326
682.7854	0.030955
683.0170	0.030659
683.2487	0.031525
683.4803	0.030955
683.7120	0.031103
683.9437	0.030638
684.1754	0.033930
684.4071	0.036062
684.6388	0.039037
684.8705	0.040409
685.1023	0.041232
685.3340	0.042899
685.5658	0.045811
685.7975	0.044502
686.0293	0.045958
686.2611	0.045051
686.4929	0.044882
686.7247	0.045178
686.9565	0.043088
687.1883	0.045220
687.4202	0.047752
687.6520	0.045093
687.8838	0.042434
688.1157	0.042202
688.3476	0.042624
688.5795	0.039754
688.8114	0.038214
689.0433	0.037897
689.2752	0.038362
689.5071	0.036104
689.7390	0.037876
689.9710	0.037264
690.2029	0.033508
690.4349	0.034964
690.6669	0.036062
690.8988	0.039902
691.1308	0.037897
691.3628	0.039902
691.5948	0.038256
691.8269	0.040387
692.0589	0.040788
692.2909	0.038594
692.5230	0.037834
692.7550	0.039965
692.9871	0.039121
693.2192	0.039797
693.4513	0.040261
693.6834	0.040345
693.9155	0.037729
694.1476	0.035893
694.3797	0.035302
694.6119	0.036948
694.8440	0.034964
695.0762	0.035302
695.3083	0.035808
695.5405	0.031693
695.7727	0.030427
696.0049	0.031672
696.2371	0.031292
696.4693	0.034078
696.7016	0.038277
696.9338	0.042223
697.1660	0.040704
697.3983	0.039100
697.6306	0.037180
697.8628	0.039860
698.0951	0.039839
698.3274	0.036885
698.5597	0.038552
698.7920	0.038530
699.0243	0.038024
699.2567	0.037581
699.4890	0.034859
699.7214	0.033571
699.9537	0.034500
700.1861	0.032559
700.4185	0.031187
700.6509	0.032791
700.8833	0.030195
701.1157	0.028528
701.3481	0.028064
701.5806	0.029013
701.8130	0.030976
702.0454	0.030702
702.2779	0.028739
702.5104	0.031904
702.7429	0.031335
702.9753	0.031947
703.2078	0.028866
703.4403	0.030448
703.6729	0.029900
703.9054	0.028887
704.1379	0.028781
704.3705	0.030448
704.6030	0.028064
704.8356	0.027114
705.0682	0.025152
705.3008	0.024181
705.5334	0.023189
705.7660	0.024054
705.9986	0.024899
706.2312	0.027452
706.4638	0.030659
706.6965	0.035745
706.9291	0.036378
707.1618	0.037159
707.3945	0.040409
707.6272	0.038910
707.8599	0.036716
708.0926	0.038087
708.3253	0.036526
708.5580	0.036505
708.7907	0.035787
709.0235	0.036631
709.2562	0.036062
709.4890	0.034183
709.7217	0.034521
709.9545	0.034690
710.1873	0.035576
710.4201	0.036948
710.6529	0.037349
710.8857	0.035977
711.1186	0.034753
711.3514	0.034162
711.5842	0.032749
711.8171	0.030638
712.0500	0.028359
712.2828	0.029372
712.5157	0.030638
712.7486	0.030322
712.9815	0.030005
713.2144	0.028148
713.4474	0.032685
713.6803	0.034437
713.9132	0.034542
714.1462	0.034964
714.3791	0.034352
714.6121	0.035555
714.8451	0.033930
715.0781	0.035703
715.3111	0.033635
715.5441	0.034310
715.7771	0.033783
716.0102	0.032854
716.2432	0.031103
716.4762	0.030659
716.7093	0.031609
716.9424	0.029794
717.1754	0.028402
717.4085	0.027853
717.6416	0.026713
717.8747	0.027621
718.1078	0.030870
718.3410	0.029647
718.5741	0.028908
718.8072	0.029098
719.0404	0.031166
719.2736	0.031693
719.5067	0.028380
719.7399	0.030491
719.9731	0.028866
720.2063	0.027958
720.4395	0.030301
720.6727	0.029372
720.9060	0.029794
721.1392	0.030997
721.3725	0.030828
721.6057	0.029710
721.8390	0.030301
722.0723	0.031609
722.3055	0.030470
722.5388	0.029288
722.7721	0.028781
723.0055	0.028697
723.2388	0.027156
723.4721	0.030301
723.7055	0.029689
723.9388	0.030090
724.1722	0.026840
724.4056	0.027979
724.6389	0.028148
724.8723	0.027790
725.1057	0.029562
725.3391	0.031377
725.5726	0.034479
725.8060	0.031820
726.0394	0.035513
726.2729	0.034437
726.5063	0.033360
726.7398	0.034205
726.9733	0.033382
727.2068	0.031693
727.4403	0.034394
727.6738	0.030491
727.9073	0.032453
728.1408	0.033508
728.3743	0.035787
728.6079	0.035555
728.8414	0.035302
729.0750	0.036547
729.3086	0.034479
729.5421	0.036547
729.7757	0.037159
730.0093	0.038636
730.2429	0.037307
730.4766	0.037180
730.7102	0.038488
730.9438	0.044671
731.1775	0.043468
731.4111	0.042202
731.6448	0.042519
731.8785	0.044587
732.1122	0.042962
732.3458	0.042244
732.5795	0.042308
732.8133	0.042139
733.0470	0.044502
733.2807	0.043110
733.5145	0.045220
733.7482	0.046190
733.9820	0.047731
734.2157	0.049799
734.4495	0.051930
734.6833	0.052036
734.9171	0.050749
735.1509	0.047604
735.3847	0.046190
735.6185	0.048364
735.8524	0.048216
736.0862	0.049799
736.3201	0.050727
736.5539	0.050432
736.7878	0.049377
737.0217	0.049292
737.2556	0.048681
737.4895	0.049060
737.7234	0.045937
737.9573	0.043975
738.1912	0.041253
738.4252	0.042498
738.6591	0.039754
738.8931	0.044038
739.1271	0.045579
739.3610	0.048047
739.5950	0.048216
739.8290	0.048069
740.0630	0.045199
740.2970	0.043637
740.5310	0.041717
740.7651	0.039248
740.9991	0.039628
741.2332	0.038741
741.4672	0.037644
741.7013	0.035428
741.9354	0.035534
742.1695	0.033002
742.4036	0.034183
742.6377	0.035576
742.8718	0.033951
743.1059	0.034521
743.3400	0.032326
743.5742	0.033867
743.8083	0.030258
744.0425	0.031630
744.2767	0.031145
744.5108	0.031461
744.7450	0.029921
744.9792	0.031187
745.2134	0.029984
745.4477	0.030174
745.6819	0.028486
745.9161	0.027937
746.1504	0.030427
746.3846	0.028148
746.6189	0.030090
746.8532	0.029056
747.0874	0.031335
747.3217	0.033318
747.5560	0.030786
747.7903	0.032812
748.0247	0.031187
748.2590	0.030723
748.4933	0.027705
748.7277	0.029625
748.9620	0.029098
749.1964	0.031081
749.4308	0.032770
749.6652	0.034795
749.8995	0.037454
750.1339	0.037919
750.3684	0.040556
750.6028	0.040936
750.8372	0.039944
751.0717	0.040387
751.3061	0.038003
751.5406	0.040957
751.7750	0.041611
752.0095	0.040050
752.2440	0.040514
752.4785	0.041316
752.7130	0.036251
752.9475	0.036948
753.1820	0.036927
753.4166	0.039058
753.6511	0.040620
753.8856	0.045051
754.1202	0.042477
754.3548	0.040662
754.5894	0.040113
754.8239	0.041295
755.0585	0.040535
755.2931	0.043384
755.5278	0.044566
755.7624	0.044924
755.9970	0.045431
756.2317	0.046845
756.4663	0.050516
756.7010	0.049039
756.9356	0.052078
757.1703	0.055665
757.4050	0.058240
757.6397	0.061785
757.8744	0.058071
758.1091	0.058809
758.3438	0.059189
758.5786	0.054188
758.8133	0.054399
759.0481	0.055581
759.2828	0.057079
759.5176	0.061700
759.7524	0.060139
759.9872	0.058641
760.2220	0.062207
760.4568	0.062439
760.6916	0.065604
760.9264	0.064190
761.1613	0.061110
761.3961	0.059020
761.6310	0.057986
761.8658	0.052627
762.1007	0.051234
762.3356	0.047858
762.5705	0.047056
762.8054	0.048512
763.0403	0.050432
763.2752	0.049799
763.5101	0.051951
763.7450	0.049926
763.9800	0.048596
764.2149	0.054758
764.4499	0.057396
764.6849	0.059548
764.9198	0.058029
765.1548	0.060962
765.3898	0.056594
765.6248	0.055117
765.8599	0.054294
766.0949	0.047499
766.3299	0.046190
766.5650	0.044249
766.8000	0.042540
767.0351	0.040514
767.2701	0.041780
767.5052	0.038003
767.7403	0.040366
767.9754	0.041485
768.2105	0.043890
768.4456	0.047140
768.6808	0.051593
768.9159	0.049187
769.1510	0.050031
769.3862	0.047414
769.6214	0.047794
769.8565	0.048533
770.0917	0.044777
770.3269	0.044270
770.5621	0.045600
770.7973	0.048153
771.0325	0.047309
771.2677	0.048427
771.5030	0.046802
771.7382	0.046022
771.9735	0.044376
772.2087	0.042413
772.4440	0.041042
772.6793	0.039733
772.9146	0.042139
773.1499	0.040303
773.3852	0.040366
773.6205	0.039206
773.8558	0.038784
774.0911	0.037855
774.3265	0.037433
774.5618	0.034690
774.7972	0.032960
775.0326	0.032158
775.2679	0.032200
775.5033	0.030638
775.7387	0.029604
775.9741	0.028971
776.2095	0.026924
776.4450	0.027135
776.6804	0.026692
776.9158	0.025722
777.1513	0.025110
777.3868	0.025806
777.6222	0.026545
777.8577	0.025827
778.0932	0.026608
778.3287	0.026840
778.5642	0.028043
778.7997	0.029710
779.0352	0.029858
779.2707	0.031271
779.5063	0.031503
779.7418	0.029921
779.9774	0.028824
780.2130	0.029372
780.4485	0.028908
780.6841	0.028528
780.9197	0.030385
781.1553	0.035935
781.3909	0.035492
781.6265	0.034690
781.8622	0.035956
782.0978	0.038066
782.3335	0.036378
782.5691	0.033593
782.8048	0.033656
783.0405	0.034985
783.2761	0.034141
783.5118	0.035703
783.7475	0.035914
783.9832	0.033297
784.2190	0.033761
784.4547	0.030364
784.6904	0.032031
784.9262	0.029077
785.1619	0.030406
785.3977	0.032263
785.6335	0.030237
785.8692	0.029836
786.1050	0.031187
786.3408	0.029815
786.5766	0.029330
786.8124	0.029288
787.0483	0.028317
787.2841	0.028169
787.5199	0.030385
787.7558	0.030638
787.9917	0.030301
788.2275	0.029562
788.4634	0.030406
788.6993	0.031567
788.9352	0.035070
789.1711	0.031820
789.4070	0.031039
789.6429	0.029900
789.8789	0.027747
790.1148	0.027178
790.3507	0.028887
790.5867	0.027684
790.8227	0.025785
791.0586	0.023464
791.2946	0.024434
791.5306	0.025173
791.7666	0.025489
792.0026	0.023886
792.2387	0.023358
792.4747	0.022725
792.7107	0.022620
792.9468	0.021164
793.1828	0.022345
793.4189	0.022936
793.6550	0.025257
793.8910	0.027916
794.1271	0.030892
794.3632	0.033192
794.5993	0.032453
794.8355	0.029625
795.0716	0.033867
795.3077	0.033065
795.5439	0.031440
795.7800	0.029309
796.0162	0.029077
796.2523	0.026861
796.4885	0.024287
796.7247	0.019834
796.9609	0.022936
797.1971	0.022366
797.4333	0.022240
797.6695	0.022809
797.9058	0.024561
798.1420	0.023991
798.3783	0.023717
798.6145	0.023253
798.8508	0.025996
799.0871	0.022598
799.3233	0.024540
799.5596	0.022050
799.7959	0.022366
800.0322	0.021438
800.2686	0.021923
800.5049	0.019454
800.7412	0.020699
800.9776	0.018568
801.2139	0.020341
801.4503	0.020298
801.6867	0.019475
801.9230	0.018104
802.1594	0.018737
802.3958	0.018589
802.6322	0.016922
802.8686	0.016753
803.1051	0.019834
803.3415	0.018378
803.5779	0.020910
803.8144	0.017217
804.0508	0.017829
804.2873	0.017049
804.5238	0.017829
804.7603	0.019496
804.9968	0.016162
805.2333	0.018125
805.4698	0.016500
805.7063	0.019117
805.9428	0.021269
806.1794	0.021628
806.4159	0.023443
806.6525	0.023590
806.8890	0.024877
807.1256	0.024814
807.3622	0.023421
807.5988	0.022788
807.8354	0.024076
808.0720	0.022662
808.3086	0.024561
808.5452	0.023379
808.7818	0.022957
809.0185	0.022261
809.2551	0.022029
809.4918	0.023042
809.7284	0.022134
809.9651	0.021269
810.2018	0.020024
810.4385	0.018019
810.6752	0.020763
810.9119	0.019285
811.1486	0.019264
811.3853	0.018484
811.6221	0.018990
811.8588	0.019243
812.0956	0.016922
812.3323	0.016141
812.5691	0.016753
812.8059	0.015487
813.0427	0.014221
813.2795	0.012955
813.5163	0.017703
813.7531	0.018251
813.9899	0.020678
814.2267	0.019707
814.4636	0.018104
814.7004	0.018631
814.9373	0.017239
815.1742	0.014854
815.4110	0.017323
815.6479	0.015572
815.8848	0.013546
816.1217	0.014200
816.3586	0.013482
816.5955	0.014938
816.8324	0.015424
817.0694	0.015951
817.3063	0.015698
817.5433	0.015614
817.7802	0.016141
818.0172	0.016057
818.2542	0.015276
818.4912	0.014115
818.7282	0.013419
818.9652	0.014559
819.2022	0.015192
819.4392	0.011752
819.6762	0.012913
819.9133	0.014031
820.1503	0.013715
820.3874	0.014601
820.6244	0.014812
820.8615	0.015888
821.0986	0.017091
821.3357	0.016226
821.5727	0.016711
821.8099	0.016162
822.0470	0.014791
822.2841	0.013588
822.5212	0.014411
822.7584	0.013588
822.9955	0.011815
823.2327	0.014326
823.4698	0.011984
823.7070	0.013187
823.9442	0.012723
824.1814	0.011267
824.4186	0.011942
824.6558	0.011499
824.8930	0.012258
825.1302	0.013103
825.3675	0.012786
825.6047	0.013926
825.8419	0.011604
826.0792	0.012934
826.3165	0.013187
826.5537	0.012892
826.7910	0.014010
827.0283	0.014369
827.2656	0.014305
827.5029	0.016521
827.7402	0.014411
827.9776	0.013651
828.2149	0.012681
828.4522	0.013018
828.6896	0.011710
828.9270	0.013250
829.1643	0.014917
829.4017	0.013039
829.6391	0.012047
829.8765	0.012681
830.1139	0.013208
830.3513	0.011499
830.5887	0.011013
830.8261	0.009853
831.0636	0.008566
831.3010	0.009283
831.5385	0.009874
831.7759	0.008608
832.0134	0.008207
832.2509	0.009368
832.4884	0.008861
832.7259	0.009220
832.9634	0.008376
833.2009	0.010549
833.4384	0.010486
833.6759	0.009621
833.9135	0.009768
834.1510	0.009579
834.3886	0.012343
834.6261	0.013525
834.8637	0.010380
835.1013	0.011773
835.3389	0.010887
835.5765	0.010486
835.8141	0.011351
836.0517	0.010254
836.2893	0.010908
836.5269	0.008945
836.7646	0.008650
837.0022	0.009283
837.2399	0.007300
837.4775	0.007067
837.7152	0.007954
837.9529	0.008988
838.1906	0.007658
838.4283	0.007089
838.6660	0.006498
838.9037	0.006877
839.1414	0.008566
839.3791	0.009515
839.6169	0.008713
839.8546	0.008502
840.0924	0.006730
840.3302	0.005991
840.5679	0.007257
840.8057	0.008713
841.0435	0.007025
841.2813	0.007004
841.5191	0.007468
841.7569	0.006962
841.9947	0.006582
842.2326	0.006477
842.4704	0.004936
842.7082	0.006540
842.9461	0.005232
843.1840	0.006666
843.4218	0.005379
843.6597	0.006033
843.8976	0.005991
844.1355	0.006076
844.3734	0.003860
844.6113	0.007110
844.8492	0.004978
845.0872	0.005485
845.3251	0.004831
845.5631	0.006455
845.8010	0.004978
846.0390	0.007447
846.2770	0.005569
846.5149	0.005464
846.7529	0.005105
846.9909	0.004704
847.2289	0.003438
847.4669	0.006645
847.7050	0.005274
847.9430	0.006582
848.1810	0.005295
848.4191	0.007574
848.6571	0.004767
848.8952	0.005084
849.1333	0.003987
849.3713	0.005063
849.6094	0.006519
849.8475	0.005379
850.0856	0.004852
850.3237	0.005886
850.5619	0.005970
850.8000	0.005675
851.0381	0.004641
851.2763	0.003691
851.5144	0.004198
851.7526	0.006624
851.9908	0.006160
852.2289	0.006856
852.4671	0.007089
852.7053	0.009557
852.9435	0.011013
853.1817	0.012744
853.4200	0.014411
853.6582	0.015572
853.8964	0.015403
854.1347	0.013504
854.3729	0.014390
854.6112	0.014390
854.8495	0.012913
855.0877	0.013103
855.3260	0.013271
855.5643	0.013187
855.8026	0.013419
856.0409	0.012216
856.2792	0.014326
856.5176	0.013588
856.7559	0.011562
856.9942	0.012659
857.2326	0.010718
857.4710	0.012301
857.7093	0.010486
857.9477	0.011182
858.1861	0.009916
858.4245	0.010802
858.6629	0.009283
858.9013	0.009958
859.1397	0.010338
859.3781	0.010507
859.6166	0.009832
859.8550	0.009790
860.0935	0.008988
860.3319	0.008291
860.5704	0.008101
860.8089	0.008270
861.0473	0.007342
861.2858	0.006624
861.5243	0.006751
861.7628	0.006751
862.0013	0.007869
862.2399	0.006835
862.4784	0.006688
862.7169	0.007574
862.9555	0.005590
863.1940	0.007996
863.4326	0.007152
863.6712	0.007300
863.9098	0.009346
864.1483	0.007574
864.3869	0.007426
864.6255	0.006856
864.8642	0.007152
865.1028	0.007067
865.3414	0.005590
865.5800	0.005991
865.8187	0.004598
866.0573	0.006434
866.2960	0.005105
866.5347	0.006033
866.7733	0.006645
867.0120	0.005780
867.2507	0.005443
867.4894	0.005548
867.7281	0.004366
867.9669	0.006012
868.2056	0.006856
868.4443	0.005759
868.6831	0.005928
868.9218	0.006202
869.1606	0.005907
869.3993	0.005907
869.6381	0.004598
869.8769	0.006413
870.1157	0.006223
870.3545	0.006455
870.5933	0.005611
870.8321	0.005295
871.0709	0.005253
871.3097	0.006666
871.5486	0.005400
871.7874	0.005970
872.0263	0.006308
872.2651	0.005886
872.5040	0.003797
872.7429	0.005801
872.9818	0.005189
873.2207	0.007067
873.4596	0.005654
873.6985	0.005443
873.9374	0.006097
874.1763	0.005274
874.4153	0.004240
874.6542	0.006413
874.8932	0.005632
875.1321	0.006877
875.3711	0.007426
875.6101	0.006962
875.8491	0.006709
876.0880	0.008545
876.3270	0.005337
876.5661	0.004788
876.8051	0.005421
877.0441	0.005970
877.2831	0.006477
877.5222	0.006223
877.7612	0.007827
878.0003	0.006413
878.2393	0.008798
878.4784	0.006920
878.7175	0.007975
878.9566	0.005168
879.1957	0.007785
879.4348	0.007764
879.6739	0.008819
879.9130	0.008882
880.1521	0.007447
880.3913	0.010655
880.6304	0.006751
880.8696	0.008249
881.1087	0.008418
881.3479	0.007489
881.5871	0.007827
881.8262	0.007616
882.0654	0.007067
882.3046	0.006962
882.5438	0.006835
882.7831	0.005759
883.0223	0.007511
883.2615	0.007363
883.5007	0.007067
883.7400	0.006139
883.9792	0.007426
884.2185	0.006666
884.4578	0.005886
884.6971	0.006835
884.9363	0.007954
885.1756	0.007511
885.4149	0.007194
885.6542	0.007468
885.8936	0.006645
886.1329	0.008017
886.3722	0.007511
886.6116	0.007321
886.8509	0.007827
887.0903	0.006118
887.3296	0.007025
887.5690	0.006097
887.8084	0.006308
888.0478	0.004936
888.2872	0.005886
888.5266	0.005295
888.7660	0.004704
889.0054	0.006920
889.2448	0.007996
889.4843	0.005063
889.7237	0.005379
889.9632	0.005443
890.2026	0.003818
890.4421	0.005189
890.6816	0.005991
890.9211	0.003839
891.1606	0.004261
891.4001	0.005590
891.6396	0.005485
891.8791	0.005949
892.1186	0.007426
892.3581	0.003564
892.5977	0.006519
892.8372	0.005991
893.0768	0.005611
893.3163	0.004324
893.5559	0.005949
893.7955	0.004894
894.0351	0.004788
894.2747	0.005675
894.5143	0.004493
894.7539	0.004746
894.9935	0.004704
895.2331	0.004366
895.4727	0.004767
895.7124	0.005569
895.9520	0.004894
896.1917	0.004683
896.4314	0.006666
896.6710	0.005316
896.9107	0.005126
897.1504	0.005590
897.3901	0.004282
897.6298	0.004936
897.8695	0.006519
898.1092	0.003459
898.3489	0.004915
898.5887	0.004873
898.8284	0.004662
899.0682	0.004767
899.3079	0.005590
899.5477	0.004894
899.7875	0.004915
900.0272	0.004113
900.2670	0.004071
900.5068	0.004978
900.7466	0.005907
900.9864	0.005063
901.2263	0.005780
901.4661	0.002699
901.7059	0.004472
901.9458	0.004831
902.1856	0.005443
902.4255	0.004535
902.6654	0.006434
902.9052	0.003417
903.1451	0.005358
903.3850	0.003269
903.6249	0.004641
903.8648	0.005274
904.1047	0.005337
904.3446	0.004894
904.5846	0.005084
904.8245	0.004219
905.0644	0.005569
905.3044	0.007743
905.5444	0.004620
905.7843	0.005843
906.0243	0.005949
906.2643	0.005654
906.5043	0.004662
906.7443	0.004008
906.9843	0.005675
907.2243	0.004535
907.4643	0.003586
907.7043	0.004936
907.9444	0.005506
908.1844	0.003670
908.4245	0.004852
908.6645	0.001982
908.9046	0.005590
909.1447	0.003860
909.3847	0.004704
909.6248	0.004071
909.8649	0.004324
910.1050	0.002910
910.3452	0.004176
910.5853	0.003691
910.8254	0.005759
911.0655	0.004387
911.3057	0.004999
911.5458	0.005168
911.7860	0.004261
912.0262	0.003754
912.2663	0.005443
912.5065	0.004852
912.7467	0.005358
912.9869	0.004113
913.2271	0.004240
913.4673	0.004556
913.7075	0.003923
913.9478	0.005421
914.1880	0.003775
914.4283	0.004683
914.6685	0.003944
914.9088	0.004092
915.1490	0.003332
915.3893	0.005316
915.6296	0.003543
915.8699	0.003501
916.1102	0.004852
916.3505	0.004092
916.5908	0.004472
916.8311	0.004387
917.0714	0.006477
917.3118	0.004155
917.5521	0.005464
917.7925	0.005822
918.0328	0.004831
918.2732	0.003628
918.5136	0.005232
918.7539	0.004915
918.9943	0.004472
919.2347	0.005063
919.4751	0.003797
919.7155	0.003375
919.9560	0.005084
920.1964	0.004662
920.4368	0.004198
920.6773	0.004746
920.9177	0.003142
921.1582	0.005168
921.3986	0.003797
921.6391	0.003860
921.8796	0.003670
922.1201	0.002573
922.3606	0.003058
922.6011	0.004219
922.8416	0.003417
923.0821	0.003037
923.3226	0.003501
923.5631	0.004556
923.8037	0.003121
924.0442	0.005168
924.2848	0.002847
924.5254	0.004113
924.7659	0.002256
925.0065	0.002741
925.2471	0.001750
925.4877	0.002425
925.7283	0.002615
925.9689	0.003881
926.2095	0.004240
926.4501	0.002530
926.6908	0.002467
926.9314	0.003733
927.1720	0.003121
927.4127	0.002699
927.6533	0.003923
927.8940	0.002763
928.1347	0.002953
928.3754	0.003649
928.6161	0.002826
928.8568	0.002172
929.0975	0.003607
929.3382	0.002910
929.5789	0.002594
929.8196	0.004029
930.0604	0.002383
930.3011	0.003543
930.5419	0.003185
930.7826	0.002151
931.0234	0.004641
931.2642	0.002193
931.5049	0.003227
931.7457	0.001876
931.9865	0.001961
932.2273	0.003543
932.4681	0.002615
932.7089	0.003037
932.9498	0.002910
933.1906	0.001623
933.4314	0.003375
933.6723	0.002573
933.9131	0.003881
934.1540	0.002868
934.3949	0.003923
934.6358	0.004134
934.8766	0.003142
935.1175	0.002530
935.3584	0.003459
935.5993	0.001053
935.8403	0.002488
936.0812	0.002974
936.3221	0.002847
936.5630	-0.000297
936.8040	0.001897
937.0449	0.002488
937.2859	0.002910
937.5269	0.000906
937.7678	0.001750
938.0088	0.002594
938.2498	0.001560
938.4908	0.002805
938.7318	0.001834
938.9728	0.002256
939.2138	0.002573
939.4549	0.002657
939.6959	0.001285
939.9369	0.001771
940.1780	0.001560
940.4190	0.001581
940.6601	0.000990
940.9012	0.001750
941.1422	0.002130
941.3833	0.002720
941.6244	0.002172
941.8655	0.001686
942.1066	0.001855
942.3477	0.002383
942.5889	0.001159
942.8300	0.001201
943.0711	0.001855
943.3123	0.001539
943.5534	0.002193
943.7946	0.003586
944.0357	0.002319
944.2769	0.002108
944.5181	0.002552
944.7593	0.002425
945.0005	0.001370
945.2417	0.001518
945.4829	0.001412
945.7241	0.002024
945.9653	0.001919
946.2066	0.002362
946.4478	0.001032
946.6891	0.001391
946.9303	0.003100
947.1716	0.001159
947.4128	0.000420
947.6541	0.001264
947.8954	0.001180
948.1367	0.001539
948.3780	0.002108
948.6193	0.000800
948.8606	0.001961
949.1019	0.001560
949.3433	0.002509
949.5846	0.000589
949.8259	0.002720
950.0673	0.000716
950.3086	0.001264
950.5500	0.002130
950.7914	-0.000276
951.0327	0.002404
951.2741	0.001159
951.5155	0.002488
951.7569	0.000927
951.9983	0.001496
952.2398	0.003712
952.4812	0.001834
952.7226	0.002446
952.9640	0.002678
953.2055	0.002319
953.4469	0.001982
953.6884	0.002657
953.9299	0.001011
954.1713	0.001518
954.4128	0.001665
954.6543	0.000990
954.8958	0.001581
955.1373	0.001349
955.3788	0.001560
955.6203	0.001792
955.8618	0.001940
956.1034	0.001391
956.3449	0.002003
956.5865	0.001518
956.8280	0.001053
957.0696	0.002446
957.3111	0.002256
957.5527	0.000821
957.7943	0.001961
958.0359	0.001876
958.2775	0.002509
958.5191	0.000273
958.7607	0.002425
959.0023	0.000462
959.2439	0.001602
959.4856	0.002066
959.7272	0.002193
959.9688	0.001940
960.2105	0.002699
960.4522	0.001053
960.6938	0.001855
960.9355	-0.000572
961.1772	0.002151
961.4189	0.000336
961.6606	0.001686
961.9023	0.000906
962.1440	0.000167
962.3857	0.001813
962.6274	0.000821
962.8692	0.001074
963.1109	0.002087
963.3527	0.000209
963.5944	0.001729
963.8362	0.001496
964.0779	0.001729
964.3197	0.000758
964.5615	0.001623
964.8033	0.000631
965.0451	0.000251
965.2869	0.000273
965.5287	0.001855
965.7705	-0.000065
966.0123	0.002319
966.2542	0.000652
966.4960	0.001708
966.7379	0.000885
966.9797	0.001750
967.2216	0.000273
967.4634	0.001433
967.7053	0.001897
967.9472	0.002615
968.1891	0.001307
968.4310	0.001665
968.6729	0.001665
968.9148	0.001623
969.1567	0.001011
969.3987	0.001644
969.6406	0.002425
969.8825	0.001032
970.1245	0.001349
970.3664	0.001180
970.6084	0.002066
970.8504	0.002277
971.0923	0.001349
971.3343	0.002045
971.5763	-0.000677
971.8183	0.001370
972.0603	0.001138
972.3023	0.001011
972.5443	0.001665
972.7864	0.000420
973.0284	0.001222
973.2704	0.001285
973.5125	0.001961
973.7545	0.001834
973.9966	0.001729
974.2387	0.001454
974.4807	0.002319
974.7228	0.002003
974.9649	0.001307
975.2070	0.001159
975.4491	0.000484
975.6912	0.001729
975.9333	0.000610
976.1755	0.000104
976.4176	0.001074
976.6597	0.001370
976.9019	-0.000593
977.1440	0.001117
977.3862	0.000062
977.6283	0.001834
977.8705	0.000526
978.1127	0.001729
978.3549	0.000716
978.5971	0.000547
978.8393	0.002087
979.0815	0.001412
979.3237	0.001602
979.5659	0.001792
979.8082	0.000441
980.0504	0.001518
980.2926	0.000969
980.5349	0.001032
980.7771	0.000420
981.0194	0.000547
981.2617	0.001053
981.5040	0.001982
981.7462	0.001623
981.9885	0.001729
982.2308	-0.000044
982.4731	0.002045
982.7155	0.000610
982.9578	0.001602
983.2001	-0.000149
983.4424	0.000378
983.6848	0.002024
983.9271	0.001708
984.1695	0.002298
984.4118	0.001961
984.6542	0.000019
984.8966	0.001159
985.1390	0.001834
985.3814	0.001602
985.6238	0.001750
985.8662	0.000230
986.1086	0.000104
986.3510	0.001518
986.5934	0.000441
986.8358	0.000927
987.0783	-0.000318
987.3207	0.002003
987.5632	-0.000276
987.8056	0.000040
988.0481	0.001307
988.2906	0.001792
988.5331	0.001032
988.7756	-0.000213
989.0180	0.001729
989.2605	0.001391
989.5031	0.001897
989.7456	0.000800
989.9881	0.001222
990.2306	0.001180
990.4732	-0.000128
990.7157	0.001180
990.9582	0.001201
991.2008	0.000737
991.4434	0.001665
991.6859	0.001433
991.9285	0.000040
992.1711	0.000315
992.4137	-0.000318
992.6563	0.001264
992.8989	0.000674
993.1415	0.003164
993.3841	-0.000213
993.6267	0.001602
993.8694	0.001180
994.1120	0.002066
994.3547	0.000104
994.5973	0.000906
994.8400	-0.000086
995.0826	0.001285
995.3253	0.001391
995.5680	0.000800
995.8107	-0.000107
996.0534	0.001285
996.2961	0.000948
996.5388	0.000378
996.7815	0.001307
997.0242	0.002446
997.2670	0.000209
997.5097	0.001391
997.7524	0.001370
997.9952	0.001201
998.2379	0.001792
998.4807	0.001750
998.7235	-0.000656
998.9662	-0.000002
999.2090	-0.000234
999.4518	0.001096
999.6946	0.000315
999.9374	0.000758
1000.1802	0.001264
1000.4230	0.001222
1000.6659	0.001307
1000.9087	0.001053
1001.1515	0.001180
1001.3944	-0.000445
1001.6372	0.001370
1001.8801	-0.000593
1002.1230	0.000209
1002.3658	0.002024
1002.6087	0.000568
1002.8516	0.000294
1003.0945	0.002256
1003.3374	0.000906
1003.5803	0.000821
1003.8232	0.001201
1004.0661	0.000589
1004.3091	0.000948
1004.5520	0.000863
1004.7949	0.001243
1005.0379	0.001644
1005.2808	0.001011
1005.5238	0.001433
1005.7667	0.000505
1006.0097	0.001433
1006.2527	-0.000002
1006.4957	-0.000445
1006.7387	0.002467
1006.9817	0.000800
1007.2247	0.000104
1007.4677	0.001117
1007.7107	-0.000044
1007.9538	0.000758
1008.1968	0.001876
1008.4398	0.000209
1008.6829	0.001961
1008.9259	0.001370
1009.1690	0.000927
1009.4121	0.000906
1009.6551	-0.000445
1009.8982	0.001623
1010.1413	0.000378
1010.3844	0.002720
1010.6275	0.000948
1010.8706	0.001834
1011.1137	0.000294
1011.3568	0.000589
1011.6000	-0.000403
1011.8431	0.000948
1012.0863	0.000104
1012.3294	0.000948
1012.5726	0.001370
1012.8157	0.000251
1013.0589	0.000462
1013.3021	0.000568
1013.5452	0.001222
1013.7884	0.001138
1014.0316	0.001117
1014.2748	0.000990
1014.5180	0.000758
1014.7613	0.001454
1015.0045	0.000083
1015.2477	0.001771
1015.4909	0.000631
1015.7342	0.000948
1015.9774	0.001243
1016.2207	0.001370
1016.4640	0.000674
1016.7072	0.002573
1016.9505	0.001138
1017.1938	0.001053
1017.4371	0.000336
1017.6804	0.000125
1017.9237	0.000863
1018.1670	0.000125
1018.4103	0.000610
1018.6536	0.000336
1018.8969	0.001011
1019.1403	0.002214
1019.3836	0.000062
1019.6270	0.000737
1019.8703	0.000927
1020.1137	0.001201
1020.3571	0.000969
1020.6004	0.001771
1020.8438	0.000695
1021.0872	0.001053
1021.3306	0.000188
1021.5740	0.000357
1021.8174	0.000399
1022.0608	0.001307
1022.3042	0.000484
1022.5477	0.000568
1022.7911	0.001729
1023.0345	0.000758
