# Wavelength (nm)	Intensity (a.u.)
197.7802	0.000825
197.9842	0.000255
198.1882	-0.000315
198.3922	0.001163
198.5963	0.000044
198.8003	0.000572
199.0044	0.001247
199.2085	0.000234
199.4126	0.000846
199.6168	-0.000927
199.8209	-0.000294
200.0251	-0.000484
200.2292	-0.000019
200.4334	0.000487
200.6376	0.000762
200.8418	-0.000040
201.0461	0.001691
201.2503	0.000614
201.4546	0.000086
201.6589	0.000466
201.8631	0.000804
202.0674	-0.000758
202.2718	0.000150
202.4761	-0.000948
202.6805	0.001691
202.8848	-0.000252
203.0892	0.000783
203.2936	0.000318
203.4980	0.001163
203.7024	0.000867
203.9069	0.001311
204.1113	0.000318
204.3158	0.001902
204.5203	0.000023
204.7248	0.000107
204.9293	-0.000315
205.1338	0.000107
205.3384	-0.001666
205.5430	0.000720
205.7475	0.000065
205.9521	0.001205
206.1567	0.000128
206.3614	0.000023
206.5660	-0.000040
206.7706	-0.000442
206.9753	0.001269
207.1800	-0.000695
207.3847	-0.001075
207.5894	0.000445
207.7941	0.000382
207.9989	0.000656
208.2036	0.000002
208.4084	-0.000040
208.6132	-0.000463
208.8180	0.000403
209.0228	0.002029
209.2276	0.000192
209.4325	-0.000547
209.6373	-0.000230
209.8422	-0.000526
210.0471	0.001163
210.2520	0.000741
210.4569	0.000804
210.6618	-0.000843
210.8668	0.001395
211.0718	0.001585
211.2767	0.001290
211.4817	0.000973
211.6867	-0.001075
211.8918	0.001459
212.0968	0.000614
212.3018	0.001437
212.5069	0.000150
212.7120	-0.000399
212.9171	0.000762
213.1222	0.000065
213.3273	0.000424
213.5325	-0.000125
213.7376	0.001395
213.9428	-0.000822
214.1480	-0.000505
214.3532	0.000297
214.5584	0.000635
214.7636	-0.001371
214.9689	0.000466
215.1741	0.000762
215.3794	-0.000062
215.5847	0.000783
215.7900	-0.000062
215.9953	0.001311
216.2007	0.000466
216.4060	-0.000315
216.6114	0.001247
216.8168	-0.000463
217.0222	0.001416
217.2276	-0.001159
217.4330	-0.000125
217.6384	0.000825
217.8439	0.000762
218.0494	0.000910
218.2548	0.000973
218.4603	-0.001307
218.6659	-0.000758
218.8714	-0.000188
219.0769	-0.000864
219.2825	0.001585
219.4881	0.000255
219.6936	0.000508
219.8992	0.001480
220.1049	0.000276
220.3105	0.001247
220.5161	0.000213
220.7218	0.000973
220.9275	0.000973
221.1332	0.001733
221.3389	0.001311
221.5446	0.000593
221.7503	-0.000378
221.9561	0.000340
222.1618	-0.000484
222.3676	0.000382
222.5734	0.000635
222.7792	-0.000230
222.9850	-0.001159
223.1909	-0.000019
223.3967	0.000128
223.6026	0.000065
223.8085	0.000192
224.0144	0.000445
224.2203	-0.000230
224.4262	0.000952
224.6322	0.000466
224.8381	-0.001096
225.0441	0.000361
225.2501	0.001184
225.4561	-0.000062
225.6621	0.000994
225.8681	0.000023
226.0742	-0.000357
226.2802	-0.000653
226.4863	0.000128
226.6924	-0.000758
226.8985	0.000846
227.1046	0.000023
227.3107	0.000762
227.5169	0.000910
227.7230	-0.000315
227.9292	-0.000653
228.1354	0.001121
228.3416	-0.000505
228.5478	-0.000442
228.7541	0.001564
228.9603	0.000065
229.1666	-0.000484
229.3729	0.000403
229.5791	-0.000484
229.7855	0.001079
229.9918	0.000551
230.1981	0.001163
230.4045	0.000593
230.6108	0.001100
230.8172	0.000297
231.0236	0.000171
231.2300	0.000635
231.4364	0.000002
231.6429	-0.000230
231.8493	0.002029
232.0558	-0.000209
232.2623	0.001036
232.4688	0.000044
232.6753	0.000804
232.8818	-0.000209
233.0884	0.000677
233.2949	0.000698
233.5015	0.000910
233.7081	0.000044
233.9147	0.000614
234.1213	-0.000505
234.3279	0.001501
234.5346	0.000023
234.7413	-0.000378
234.9479	-0.001687
235.1546	0.000318
235.3613	0.000466
235.5680	0.000044
235.7748	-0.001117
235.9815	0.000192
236.1883	0.001712
236.3951	-0.000843
236.6018	0.000340
236.8087	0.001944
237.0155	0.000508
237.2223	-0.000167
237.4292	0.000192
237.6360	0.000044
237.8429	0.000255
238.0498	0.001079
238.2567	-0.000822
238.4636	0.001649
238.6706	-0.000019
238.8775	0.000445
239.0845	0.000318
239.2915	0.001543
239.4985	0.000656
239.7055	-0.000589
239.9125	-0.001392
240.1195	-0.000737
240.3266	0.000445
240.5337	0.001374
240.7407	-0.000294
240.9478	-0.000927
241.1549	0.000677
241.3621	-0.000273
241.5692	0.000635
241.7764	0.001522
241.9835	0.000466
242.1907	0.000825
242.3979	-0.001075
242.6051	0.001036
242.8124	-0.001518
243.0196	0.000720
243.2269	0.000635
243.4341	0.000065
243.6414	0.000403
243.8487	0.001416
244.0560	-0.000336
244.2634	0.000002
244.4707	-0.000653
244.6781	0.000297
244.8854	0.000720
245.0928	-0.000864
245.3002	0.000044
245.5076	-0.000146
245.7151	-0.000230
245.9225	-0.000336
246.1300	-0.000188
246.3375	0.000023
246.5449	0.000086
246.7524	-0.000357
246.9600	0.000677
247.1675	-0.000083
247.3750	0.000297
247.5826	0.000107
247.7902	0.000825
247.9978	-0.000230
248.2054	0.000825
248.4130	0.000318
248.6206	0.000635
248.8283	-0.000526
249.0359	0.000530
249.2436	0.000910
249.4513	0.000656
249.6590	0.002155
249.8667	0.000044
250.0745	-0.000294
250.2822	-0.000125
250.4900	-0.001497
250.6978	0.001353
250.9056	0.000382
251.1134	0.000361
251.3212	0.001986
251.5290	-0.000526
251.7369	0.001437
251.9447	-0.000315
252.1526	0.001290
252.3605	0.000572
252.5684	0.000002
252.7763	-0.000167
252.9843	0.000297
253.1922	-0.000167
253.4002	-0.000040
253.6082	0.000635
253.8162	0.000128
254.0242	0.000128
254.2322	-0.000146
254.4402	0.000424
254.6483	0.000741
254.8564	0.001923
255.0644	0.001606
255.2725	-0.001244
255.4806	-0.000779
255.6888	-0.000336
255.8969	0.000508
256.1051	0.000825
256.3132	0.000846
256.5214	-0.000801
256.7296	0.000910
256.9378	0.000044
257.1460	0.001522
257.3543	0.000255
257.5625	-0.000611
257.7708	-0.000653
257.9791	0.002176
258.1874	-0.000294
258.3957	0.001057
258.6040	0.000698
258.8124	0.000382
259.0207	-0.001033
259.2291	0.000213
259.4375	-0.001202
259.6459	0.000403
259.8543	0.000107
260.0627	0.000487
260.2711	-0.001033
260.4796	-0.000399
260.6881	0.000635
260.8965	0.000487
261.1050	-0.000589
261.3135	-0.000505
261.5221	-0.000758
261.7306	0.000171
261.9392	-0.000716
262.1477	0.000318
262.3563	0.000551
262.5649	-0.000463
262.7735	0.000107
262.9822	-0.000357
263.1908	-0.000758
263.3995	0.000593
263.6081	-0.000442
263.8168	-0.000209
264.0255	0.001163
264.2342	0.000804
264.4429	0.000150
264.6517	-0.000737
264.8604	0.000213
265.0692	0.000825
265.2780	-0.000252
265.4868	0.000150
265.6956	-0.000146
265.9044	0.001353
266.1133	0.000466
266.3221	-0.000273
266.5310	-0.001096
266.7399	0.000023
266.9488	0.000255
267.1577	0.001057
267.3666	0.000128
267.5755	-0.000188
267.7845	-0.001054
267.9935	0.000128
268.2024	0.000551
268.4114	0.000994
268.6205	-0.000589
268.8295	0.001902
269.0385	0.000614
269.2476	0.000846
269.4566	-0.001054
269.6657	-0.000062
269.8748	0.000635
270.0839	0.000867
270.2931	-0.000463
270.5022	-0.001202
270.7114	-0.000167
270.9205	0.000867
271.1297	0.000044
271.3389	0.001522
271.5481	0.000783
271.7573	-0.000864
271.9666	-0.000420
272.1758	0.000508
272.3851	-0.000146
272.5944	0.000424
272.8037	0.001437
273.0130	-0.000758
273.2223	0.001923
273.4316	0.000255
273.6410	0.000234
273.8504	0.000002
274.0597	-0.000315
274.2691	0.000530
274.4785	0.001480
274.6880	0.001036
274.8974	0.000931
275.1069	0.000994
275.3163	-0.001096
275.5258	0.000403
275.7353	-0.000547
275.9448	0.000044
276.1543	0.000910
276.3639	0.000150
276.5734	-0.000188
276.7830	0.000382
276.9926	0.000508
277.2022	0.001627
277.4118	-0.000146
277.6214	0.001036
277.8310	0.001057
278.0407	0.000065
278.2503	-0.000167
278.4600	0.001269
278.6697	-0.001624
278.8794	-0.000420
279.0891	-0.001202
279.2989	0.001522
279.5086	-0.000420
279.7184	0.001881
279.9281	0.000382
280.1379	0.000931
280.3477	-0.000463
280.5576	0.000382
280.7674	-0.001096
280.9772	0.000086
281.1871	0.001100
281.3970	-0.000019
281.6069	-0.000125
281.8168	0.000445
282.0267	0.000572
282.2366	0.001649
282.4466	-0.000209
282.6565	0.001015
282.8665	0.000973
283.0765	0.000593
283.2865	-0.000019
283.4965	0.000508
283.7065	-0.000273
283.9166	0.000234
284.1266	0.000867
284.3367	0.000593
284.5468	-0.000315
284.7569	0.000551
284.9670	0.000466
285.1771	0.001543
285.3873	-0.000991
285.5974	0.000128
285.8076	-0.000779
286.0178	0.000044
286.2280	0.000614
286.4382	0.000762
286.6484	0.000593
286.8587	0.000720
287.0689	-0.000040
287.2792	0.000720
287.4895	-0.000948
287.6998	0.000086
287.9101	0.000487
288.1204	-0.000463
288.3308	0.000255
288.5411	0.000466
288.7515	0.000593
288.9619	0.000530
289.1723	0.000931
289.3827	-0.000062
289.5931	-0.000801
289.8035	0.000804
290.0140	0.000002
290.2245	-0.000273
290.4349	0.000318
290.6454	0.000044
290.8559	0.000593
291.0665	-0.001328
291.2770	0.000023
291.4875	0.002007
291.6981	-0.000420
291.9087	0.000720
292.1193	-0.000568
292.3299	0.000382
292.5405	-0.000589
292.7511	0.001585
292.9618	0.000255
293.1724	0.000994
293.3831	-0.000104
293.5938	0.001944
293.8045	-0.000125
294.0152	-0.000252
294.2260	0.000846
294.4367	0.000846
294.6475	0.000614
294.8582	0.000762
295.0690	0.000508
295.2798	-0.000104
295.4906	0.001374
295.7015	-0.000463
295.9123	0.001100
296.1232	0.000888
296.3340	-0.000019
296.5449	0.000255
296.7558	-0.000505
296.9667	0.000023
297.1777	-0.001349
297.3886	-0.000969
297.5995	-0.000505
297.8105	0.000720
298.0215	0.001712
298.2325	-0.000399
298.4435	0.000783
298.6545	0.001395
298.8656	0.000825
299.0766	0.001121
299.2877	-0.000230
299.4988	-0.000589
299.7099	-0.000822
299.9210	-0.000188
300.1321	-0.000906
300.3432	0.001986
300.5544	-0.001223
300.7655	0.000572
300.9767	-0.001244
301.1879	0.000361
301.3991	0.001269
301.6103	-0.000399
301.8215	0.000720
302.0328	0.000720
302.2441	0.000002
302.4553	0.001121
302.6666	0.001290
302.8779	0.001184
303.0892	0.000044
303.3006	-0.000019
303.5119	0.000107
303.7233	-0.000864
303.9346	0.000171
304.1460	0.000466
304.3574	-0.000357
304.5688	0.000213
304.7803	-0.000273
304.9917	0.000276
305.2031	0.000445
305.4146	-0.000885
305.6261	-0.000273
305.8376	0.001480
306.0491	-0.001455
306.2606	-0.000336
306.4722	0.001290
306.6837	0.000128
306.8953	0.002261
307.1069	0.001564
307.3184	-0.001202
307.5301	0.000023
307.7417	-0.000062
307.9533	-0.001096
308.1650	-0.000737
308.3766	0.000931
308.5883	-0.000758
308.8000	-0.000463
309.0117	0.000023
309.2234	0.001079
309.4351	-0.001054
309.6469	0.000213
309.8586	0.000762
310.0704	0.000530
310.2822	0.000297
310.4940	0.000213
310.7058	0.000361
310.9176	-0.000209
311.1295	0.000614
311.3413	0.000867
311.5532	0.001627
311.7651	0.001121
311.9770	0.000445
312.1889	0.000445
312.4008	-0.000167
312.6127	0.001374
312.8247	-0.001138
313.0366	0.001564
313.2486	0.000044
313.4606	0.000150
313.6726	0.000698
313.8846	0.001754
314.0967	0.001015
314.3087	0.001100
314.5208	0.000466
314.7328	0.000445
314.9449	0.000466
315.1570	0.000340
315.3692	0.000107
315.5813	0.000931
315.7934	0.000804
316.0056	0.001374
316.2177	0.000593
316.4299	-0.000083
316.6421	-0.002257
316.8543	0.000508
317.0666	-0.001202
317.2788	0.000551
317.4911	-0.000991
317.7033	-0.000378
317.9156	0.000318
318.1279	0.002007
318.3402	-0.000822
318.5525	0.000783
318.7649	0.000846
318.9772	-0.000463
319.1896	0.000150
319.4019	0.000403
319.6143	0.000171
319.8267	0.000150
320.0392	-0.000843
320.2516	0.000086
320.4640	0.000551
320.6765	-0.000906
320.8890	0.000382
321.1014	0.000551
321.3139	-0.000125
321.5265	0.000825
321.7390	-0.000273
321.9515	0.000424
322.1641	0.000952
322.3766	0.000150
322.5892	-0.000167
322.8018	-0.001033
323.0144	0.000487
323.2270	0.001311
323.4397	0.000508
323.6523	-0.000146
323.8650	0.000107
324.0777	-0.000125
324.2904	-0.000252
324.5031	-0.000209
324.7158	0.000445
324.9285	0.000297
325.1412	-0.000273
325.3540	0.000762
325.5668	0.000255
325.7796	0.001585
325.9924	-0.000716
326.2052	-0.000188
326.4180	-0.000420
326.6308	0.002007
326.8437	0.000720
327.0566	0.000466
327.2694	0.000403
327.4823	0.001817
327.6952	0.000466
327.9082	0.001353
328.1211	0.001121
328.3340	-0.000167
328.5470	0.000318
328.7600	0.000065
328.9730	-0.000885
329.1860	0.000445
329.3990	-0.001793
329.6120	0.002050
329.8251	0.001944
330.0381	-0.000948
330.2512	-0.000167
330.4643	0.001100
330.6774	0.000593
330.8905	0.000551
331.1036	0.000720
331.3167	0.000762
331.5299	0.000002
331.7431	0.000213
331.9562	0.000487
332.1694	0.000973
332.3826	0.000150
332.5959	0.000466
332.8091	-0.001138
333.0223	0.001269
333.2356	0.000107
333.4489	0.000255
333.6622	0.000994
333.8755	0.000445
334.0888	0.001374
334.3021	0.000952
334.5154	-0.000801
334.7288	0.000424
334.9422	-0.000969
335.1555	0.000783
335.3689	-0.000927
335.5823	0.000593
335.7958	0.001416
336.0092	0.002071
336.2227	0.000044
336.4361	0.000487
336.6496	0.000783
336.8631	0.000297
337.0766	0.000783
337.2901	0.000466
337.5036	-0.000146
337.7172	0.001079
337.9307	-0.000526
338.1443	0.000551
338.3579	0.000656
338.5715	0.000572
338.7851	0.000192
338.9987	0.000171
339.2124	-0.000252
339.4260	0.001163
339.6397	-0.000695
339.8533	-0.000125
340.0670	0.000234
340.2807	0.001100
340.4945	-0.000906
340.7082	0.001057
340.9219	0.000952
341.1357	0.000487
341.3495	0.001121
341.5633	0.001459
341.7771	0.001649
341.9909	0.000783
342.2047	0.000297
342.4185	0.000973
342.6324	-0.000463
342.8463	0.001205
343.0601	-0.000589
343.2740	0.001606
343.4879	-0.000653
343.7019	-0.000125
343.9158	0.000297
344.1297	0.001247
344.3437	0.001754
344.5577	0.000635
344.7717	-0.000062
344.9857	0.000318
345.1997	-0.000083
345.4137	0.002282
345.6277	-0.000357
345.8418	-0.000294
346.0559	0.002219
346.2699	0.001564
346.4840	-0.000188
346.6981	0.001015
346.9123	0.000297
347.1264	0.001670
347.3406	-0.000885
347.5547	0.000973
347.7689	-0.000420
347.9831	-0.000695
348.1973	0.000276
348.4115	0.000128
348.6257	0.000508
348.8400	-0.000083
349.0542	0.000720
349.2685	0.000783
349.4828	-0.000653
349.6971	-0.000991
349.9114	0.000150
350.1257	0.000656
350.3400	0.000128
350.5544	0.000867
350.7687	0.000698
350.9831	0.000614
351.1975	0.000340
351.4119	0.000846
351.6263	-0.000674
351.8407	0.001269
352.0552	-0.000019
352.2696	0.001353
352.4841	0.000107
352.6986	0.001163
352.9131	0.001015
353.1276	0.001269
353.3421	0.000086
353.5566	0.000192
353.7712	-0.000209
353.9858	-0.000167
354.2003	0.000593
354.4149	-0.000104
354.6295	0.000825
354.8441	0.000466
355.0588	-0.000230
355.2734	0.001754
355.4881	-0.000188
355.7027	0.000994
355.9174	-0.000991
356.1321	0.000445
356.3468	-0.001434
356.5615	0.001733
356.7763	0.001100
356.9910	0.000635
357.2058	0.000403
357.4206	0.000846
357.6353	-0.000716
357.8501	-0.000505
358.0650	0.000867
358.2798	0.001332
358.4946	-0.000230
358.7095	-0.000104
358.9243	0.000994
359.1392	0.001205
359.3541	0.001585
359.5690	0.000276
359.7839	-0.000104
359.9989	0.000656
360.2138	-0.000948
360.4288	0.000593
360.6438	-0.000822
360.8587	0.000213
361.0737	0.001585
361.2888	-0.000230
361.5038	0.000150
361.7188	0.001944
361.9339	0.001057
362.1489	0.000635
362.3640	0.000783
362.5791	0.001163
362.7942	0.000424
363.0093	0.000593
363.2245	0.001100
363.4396	0.000234
363.6548	-0.000864
363.8699	0.000107
364.0851	0.000614
364.3003	0.000910
364.5155	0.000255
364.7308	0.002409
364.9460	0.000720
365.1612	0.000445
365.3765	0.000002
365.5918	-0.000167
365.8071	-0.000442
366.0224	0.000973
366.2377	0.000635
366.4530	0.000551
366.6684	0.000276
366.8837	0.000445
367.0991	0.000635
367.3145	-0.000294
367.5299	0.000466
367.7453	0.001142
367.9607	-0.000632
368.1761	0.000804
368.3916	-0.000083
368.6070	0.001036
368.8225	0.000044
369.0380	0.000255
369.2535	0.000424
369.4690	0.000593
369.6845	-0.000230
369.9001	0.001543
370.1156	-0.000758
370.3312	0.000888
370.5468	0.000593
370.7624	0.000530
370.9780	-0.000779
371.1936	0.001184
371.4092	-0.001286
371.6249	0.002261
371.8405	0.000318
372.0562	-0.000294
372.2719	0.001395
372.4876	0.000931
372.7033	-0.000484
372.9190	0.000741
373.1348	-0.000188
373.3505	0.000931
373.5663	0.000361
373.7820	0.001205
373.9978	0.001796
374.2136	0.000762
374.4294	0.000698
374.6453	0.001480
374.8611	0.000276
375.0770	-0.000864
375.2928	0.000741
375.5087	0.001184
375.7246	-0.000357
375.9405	-0.000357
376.1564	0.000635
376.3724	-0.000611
376.5883	-0.001033
376.8043	-0.000589
377.0203	-0.000758
377.2362	0.001480
377.4522	0.000382
377.6682	-0.000801
377.8843	0.000171
378.1003	-0.000125
378.3164	0.000192
378.5324	0.000340
378.7485	-0.001307
378.9646	0.001100
379.1807	0.000466
379.3968	0.001459
379.6129	-0.000040
379.8291	0.000171
380.0452	0.000572
380.2614	0.000572
380.4776	-0.000632
380.6938	0.000508
380.9100	-0.000167
381.1262	0.000846
381.3424	0.000614
381.5587	0.000804
381.7749	-0.000632
381.9912	0.001691
382.2075	-0.000969
382.4238	0.001353
382.6401	0.000762
382.8564	-0.000125
383.0728	0.001754
383.2891	0.001817
383.5055	0.000825
383.7219	-0.000357
383.9382	-0.000062
384.1546	0.001100
384.3711	0.000741
384.5875	0.000677
384.8039	0.000361
385.0204	0.000973
385.2368	-0.000442
385.4533	-0.000273
385.6698	0.000677
385.8863	-0.000083
386.1028	0.001395
386.3194	0.000973
386.5359	-0.000547
386.7525	-0.000083
386.9690	0.000318
387.1856	0.001459
387.4022	-0.000357
387.6188	0.001163
387.8355	-0.000463
388.0521	0.000297
388.2687	0.000171
388.4854	0.000318
388.7021	0.001459
388.9188	-0.000674
389.1355	-0.000252
389.3522	-0.000209
389.5689	0.001269
389.7856	0.001184
390.0024	0.001269
390.2192	0.001649
390.4359	0.000593
390.6527	0.001817
390.8695	0.000804
391.0863	0.001585
391.3032	0.001057
391.5200	0.002577
391.7369	0.000973
391.9537	0.001184
392.1706	-0.000420
392.3875	0.001247
392.6044	0.002451
392.8213	0.002113
393.0383	0.001184
393.2552	0.001374
393.4722	0.002535
393.6891	0.001269
393.9061	0.002493
394.1231	0.004034
394.3401	0.000593
394.5572	0.001121
394.7742	0.001965
394.9912	0.002219
395.2083	0.001311
395.4254	0.003338
395.6425	0.001395
395.8596	0.003654
396.0767	0.002366
396.2938	0.001986
396.5109	0.002979
396.7281	0.003485
396.9453	0.001459
397.1624	0.004858
397.3796	0.002746
397.5968	0.002894
397.8140	0.003971
398.0313	0.005090
398.2485	0.003886
398.4658	0.002852
398.6830	0.002725
398.9003	0.004393
399.1176	0.003000
399.3349	0.003886
399.5522	0.006103
399.7696	0.004752
399.9869	0.005407
400.2043	0.004689
400.4216	0.005385
400.6390	0.005449
400.8564	0.006694
401.0738	0.004604
401.2912	0.003760
401.5087	0.004499
401.7261	0.004562
401.9436	0.004203
402.1610	0.006103
402.3785	0.005681
402.5960	0.005744
402.8135	0.004900
403.0310	0.006188
403.2486	0.007898
403.4661	0.005280
403.6837	0.006884
403.9013	0.006483
404.1189	0.005998
404.3365	0.006927
404.5541	0.006758
404.7717	0.006082
404.9893	0.007602
405.2070	0.006694
405.4246	0.008278
405.6423	0.007792
405.8600	0.007940
406.0777	0.006167
406.2954	0.008869
406.5131	0.006504
406.7309	0.009270
406.9486	0.006821
407.1664	0.006906
407.3842	0.007053
407.6020	0.007898
407.8198	0.009312
408.0376	0.007835
408.2554	0.007856
408.4733	0.009334
408.6911	0.008383
408.9090	0.009735
409.1269	0.009840
409.3448	0.009946
409.5627	0.007729
409.7806	0.009376
409.9985	0.008595
410.2165	0.009861
410.4344	0.010600
410.6524	0.010157
410.8704	0.008531
411.0884	0.009882
411.3064	0.009460
411.5244	0.009882
411.7424	0.009524
411.9605	0.009946
412.1785	0.009101
412.3966	0.010959
412.6147	0.009904
412.8328	0.011951
413.0509	0.011086
413.2690	0.011761
413.4871	0.011213
413.7053	0.012332
413.9234	0.011360
414.1416	0.011381
414.3598	0.009967
414.5780	0.011466
414.7962	0.012416
415.0144	0.012205
415.2326	0.010664
415.4509	0.012268
415.6692	0.012226
415.8874	0.009967
416.1057	0.014316
416.3240	0.012416
416.5423	0.014147
416.7606	0.011593
416.9790	0.011909
417.1973	0.013472
417.4157	0.013577
417.6341	0.014569
417.8524	0.013176
418.0708	0.013345
418.2893	0.012754
418.5077	0.013788
418.7261	0.012522
418.9446	0.013472
419.1630	0.013049
419.3815	0.013282
419.6000	0.015393
419.8185	0.013640
420.0370	0.014464
420.2555	0.015182
420.4741	0.014253
420.6926	0.016153
420.9112	0.016807
421.1298	0.016406
421.3483	0.017145
421.5669	0.018708
421.7856	0.019003
422.0042	0.019869
422.2228	0.015583
422.4415	0.017905
422.6601	0.016280
422.8788	0.016660
423.0975	0.017947
423.3162	0.017884
423.5349	0.018581
423.7536	0.018306
423.9724	0.018686
424.1911	0.017187
424.4099	0.017631
424.6287	0.019383
424.8475	0.017251
425.0663	0.018475
425.2851	0.017272
425.5039	0.018792
425.7228	0.017525
425.9416	0.016850
426.1605	0.016871
426.3793	0.014612
426.5982	0.016174
426.8171	0.019911
427.0361	0.015224
427.2550	0.018074
427.4739	0.017187
427.6929	0.018433
427.9118	0.018581
428.1308	0.018898
428.3498	0.018602
428.5688	0.019446
428.7878	0.018159
429.0068	0.019024
429.2259	0.015773
429.4449	0.018560
429.6640	0.019446
429.8831	0.021811
430.1022	0.021452
430.3213	0.021262
430.5404	0.020101
430.7595	0.022318
430.9787	0.022360
431.1978	0.021811
431.4170	0.020270
431.6362	0.021093
431.8553	0.021917
432.0745	0.020840
432.2938	0.019784
432.5130	0.018940
432.7322	0.016237
432.9515	0.020734
433.1707	0.018011
433.3900	0.019700
433.6093	0.018285
433.8286	0.021114
434.0479	0.022233
434.2673	0.024028
434.4866	0.022043
434.7059	0.020692
434.9253	0.020840
435.1447	0.020038
435.3641	0.020650
435.5835	0.023310
435.8029	0.018581
436.0223	0.022402
436.2418	0.019446
436.4612	0.020544
436.6807	0.021832
436.9001	0.022170
437.1196	0.019974
437.3391	0.020101
437.5586	0.020734
437.7782	0.020903
437.9977	0.021325
438.2173	0.020397
438.4368	0.020544
438.6564	0.020312
438.8760	0.021283
439.0956	0.021389
439.3152	0.021473
439.5348	0.020798
439.7545	0.021663
439.9741	0.020798
440.1938	0.019848
440.4135	0.020819
440.6331	0.021811
440.8528	0.022487
441.0725	0.021579
441.2923	0.023057
441.5120	0.026878
441.7318	0.024450
441.9515	0.027723
442.1713	0.025442
442.3911	0.024028
442.6109	0.025337
442.8307	0.024640
443.0505	0.025442
443.2703	0.021853
443.4902	0.026350
443.7101	0.026012
443.9299	0.026097
444.1498	0.023901
444.3697	0.025759
444.5896	0.024007
444.8095	0.023606
445.0295	0.023817
445.2494	0.025527
445.4694	0.024894
445.6894	0.022508
445.9093	0.023585
446.1293	0.024176
446.3493	0.023289
446.5694	0.023943
446.7894	0.022972
447.0094	0.023986
447.2295	0.021959
447.4496	0.025020
447.6696	0.022930
447.8897	0.023226
448.1098	0.024049
448.3300	0.023352
448.5501	0.020903
448.7702	0.021389
448.9904	0.021874
449.2106	0.022318
449.4307	0.020819
449.6509	0.021558
449.8711	0.022254
450.0914	0.020967
450.3116	0.021832
450.5318	0.021389
450.7521	0.021304
450.9724	0.021135
451.1926	0.019446
451.4129	0.020819
451.6332	0.019869
451.8535	0.020291
452.0739	0.019383
452.2942	0.020988
452.5146	0.020291
452.7349	0.018581
452.9553	0.018581
453.1757	0.019320
453.3961	0.019742
453.6165	0.017694
453.8369	0.017905
454.0574	0.018602
454.2778	0.018095
454.4983	0.019193
454.7188	0.016807
454.9393	0.017800
455.1597	0.016638
455.3803	0.018243
455.6008	0.018771
455.8213	0.017251
456.0419	0.018116
456.2624	0.016913
456.4830	0.016617
456.7036	0.018412
456.9242	0.015794
457.1448	0.018264
457.3654	0.015161
457.5860	0.016807
457.8067	0.017399
458.0274	0.017525
458.2480	0.018306
458.4687	0.016470
458.6894	0.018602
458.9101	0.019088
459.1308	0.016934
459.3516	0.017990
459.5723	0.019193
459.7931	0.016322
460.0138	0.018686
460.2346	0.017504
460.4554	0.017145
460.6762	0.014844
460.8970	0.016005
461.1178	0.016385
461.3387	0.015604
461.5595	0.015836
461.7804	0.015498
462.0013	0.014823
462.2222	0.016216
462.4431	0.013387
462.6640	0.014422
462.8849	0.014337
463.1059	0.014506
463.3268	0.013366
463.5478	0.014654
463.7687	0.015182
463.9897	0.014358
464.2107	0.015731
464.4317	0.013978
464.6528	0.013155
464.8738	0.015815
465.0948	0.015710
465.3159	0.015161
465.5370	0.015013
465.7581	0.014823
465.9792	0.014759
466.2003	0.014337
466.4214	0.014717
466.6425	0.012142
466.8637	0.011191
467.0848	0.012036
467.3060	0.011635
467.5272	0.011761
467.7484	0.012374
467.9696	0.012057
468.1908	0.011191
468.4120	0.010769
468.6333	0.011593
468.8545	0.012205
469.0758	0.011297
469.2970	0.010262
469.5183	0.011001
469.7396	0.010262
469.9610	0.010664
470.1823	0.011149
470.4036	0.009840
470.6250	0.010178
470.8463	0.008658
471.0677	0.009165
471.2891	0.008975
471.5105	0.009418
471.7319	0.007750
471.9533	0.008637
472.1748	0.009460
472.3962	0.009165
472.6177	0.007623
472.8391	0.009735
473.0606	0.008172
473.2821	0.009566
473.5036	0.008447
473.7251	0.010305
473.9467	0.008320
474.1682	0.008320
474.3898	0.007286
474.6113	0.008679
474.8329	0.007307
475.0545	0.008215
475.2761	0.008151
475.4977	0.008468
475.7193	0.008067
475.9410	0.009059
476.1626	0.010009
476.3843	0.008046
476.6060	0.008130
476.8277	0.009735
477.0494	0.008405
477.2711	0.007455
477.4928	0.006188
477.7145	0.007307
477.9363	0.005280
478.1580	0.009165
478.3798	0.007455
478.6016	0.006863
478.8234	0.006906
479.0452	0.007856
479.2670	0.006716
479.4888	0.007729
479.7107	0.007011
479.9325	0.008067
480.1544	0.006716
480.3763	0.007180
480.5982	0.007687
480.8201	0.007518
481.0420	0.006842
481.2639	0.007222
481.4859	0.007476
481.7078	0.007159
481.9298	0.006906
482.1517	0.006504
482.3737	0.006272
482.5957	0.006378
482.8177	0.006737
483.0398	0.007560
483.2618	0.006420
483.4838	0.006652
483.7059	0.006821
483.9280	0.006716
484.1501	0.007117
484.3721	0.006019
484.5943	0.007412
484.8164	0.007455
485.0385	0.007032
485.2606	0.005850
485.4828	0.006842
485.7050	0.008637
485.9271	0.012880
486.1493	0.018496
486.3715	0.018011
486.5937	0.017124
486.8160	0.013852
487.0382	0.011001
487.2605	0.010537
487.4827	0.009545
487.7050	0.007961
487.9273	0.006167
488.1496	0.004921
488.3719	0.005174
488.5942	0.006948
488.8165	0.004583
489.0389	0.005005
489.2612	0.005597
489.4836	0.005428
489.7060	0.004267
489.9284	0.004900
490.1508	0.005195
490.3732	0.004668
490.5956	0.004562
490.8180	0.004182
491.0405	0.005385
491.2630	0.005111
491.4854	0.005850
491.7079	0.004604
491.9304	0.004435
492.1529	0.003063
492.3755	0.005259
492.5980	0.005005
492.8205	0.003549
493.0431	0.003992
493.2657	0.003485
493.4882	0.004267
493.7108	0.005934
493.9334	0.003781
494.1561	0.005956
494.3787	0.002704
494.6013	0.002324
494.8240	0.003063
495.0466	0.004055
495.2693	0.003654
495.4920	0.003675
495.7147	0.003654
495.9374	0.003570
496.1601	0.004055
496.3829	0.002556
496.6056	0.003696
496.8284	0.004119
497.0511	0.004055
497.2739	0.004119
497.4967	0.003929
497.7195	0.004583
497.9423	0.004478
498.1652	0.004879
498.3880	0.002683
498.6109	0.003380
498.8337	0.004478
499.0566	0.003802
499.2795	0.004583
499.5024	0.005111
499.7253	0.002577
499.9482	0.004710
500.1712	0.004055
500.3941	0.003506
500.6171	0.003274
500.8400	0.004984
501.0630	0.003105
501.2860	0.003021
501.5090	0.003802
501.7320	0.003084
501.9551	0.002535
502.1781	0.004942
502.4012	0.002029
502.6242	0.004224
502.8473	0.003063
503.0704	0.003612
503.2935	0.003886
503.5166	0.004013
503.7397	0.004499
503.9628	0.003802
504.1860	0.003718
504.4092	0.003169
504.6323	0.004098
504.8555	0.004140
505.0787	0.002958
505.3019	0.003675
505.5251	0.003042
505.7483	0.004034
505.9716	0.002662
506.1948	0.002662
506.4181	0.001944
506.6414	0.003823
506.8647	0.003549
507.0880	0.003464
507.3113	0.002197
507.5346	0.001817
507.7579	0.002704
507.9813	0.004309
508.2046	0.002387
508.4280	0.003380
508.6514	0.002050
508.8748	0.002493
509.0982	0.002915
509.3216	0.003000
509.5450	0.003232
509.7685	0.003042
509.9919	0.003063
510.2154	0.004013
510.4388	0.002155
510.6623	0.004435
510.8858	0.002746
511.1093	0.004288
511.3329	0.003042
511.5564	0.003021
511.7799	0.002430
512.0035	0.002599
512.2270	0.003844
512.4506	0.004267
512.6742	0.003211
512.8978	0.001817
513.1214	0.002324
513.3451	0.004794
513.5687	0.002451
513.7923	0.004267
514.0160	0.002979
514.2397	0.003338
514.4634	0.002746
514.6871	0.003633
514.9108	0.002958
515.1345	0.003063
515.3582	0.000994
515.5819	0.004034
515.8057	0.002979
516.0295	0.003929
516.2532	0.003528
516.4770	0.004309
516.7008	0.001585
516.9246	0.003401
517.1485	0.002958
517.3723	0.002155
517.5961	0.002493
517.8200	0.002240
518.0439	0.002535
518.2677	0.004478
518.4916	0.003654
518.7155	0.003211
518.9395	0.003063
519.1634	0.001269
519.3873	0.003506
519.6113	0.004245
519.8352	0.002219
520.0592	0.002577
520.2832	0.003760
520.5072	0.003401
520.7312	0.003148
520.9552	0.002746
521.1792	0.003084
521.4033	0.003718
521.6273	0.004837
521.8514	0.003000
522.0755	0.002050
522.2996	0.003528
522.5237	0.002303
522.7478	0.004267
522.9719	0.004457
523.1960	0.003549
523.4202	0.003675
523.6443	0.003865
523.8685	0.005132
524.0927	0.002831
524.3169	0.004119
524.5411	0.004076
524.7653	0.003359
524.9895	0.003612
525.2138	0.005681
525.4380	0.004351
525.6623	0.004140
525.8865	0.003802
526.1108	0.004562
526.3351	0.005027
526.5594	0.004267
526.7837	0.004372
527.0081	0.003802
527.2324	0.004858
527.4568	0.004288
527.6811	0.002958
527.9055	0.004647
528.1299	0.004478
528.3543	0.005195
528.5787	0.004034
528.8031	0.005575
529.0276	0.004140
529.2520	0.005554
529.4765	0.005491
529.7009	0.004541
529.9254	0.005575
530.1499	0.005322
530.3744	0.005913
530.5989	0.005787
530.8234	0.005322
531.0480	0.004267
531.2725	0.005702
531.4971	0.005174
531.7217	0.005618
531.9462	0.006146
532.1708	0.004794
532.3954	0.004921
532.6200	0.003718
532.8447	0.004794
533.0693	0.004668
533.2940	0.007328
533.5186	0.004562
533.7433	0.007940
533.9680	0.007560
534.1927	0.007623
534.4174	0.007032
534.6421	0.006990
534.8668	0.007349
535.0916	0.008489
535.3163	0.008215
535.5411	0.006694
535.7659	0.008447
535.9907	0.008890
536.2155	0.008109
536.4403	0.008996
536.6651	0.007264
536.8899	0.008595
537.1148	0.007708
537.3396	0.007919
537.5645	0.007307
537.7894	0.007856
538.0143	0.009144
538.2392	0.008573
538.4641	0.007898
538.6890	0.008616
538.9139	0.010474
539.1389	0.008658
539.3638	0.011381
539.5888	0.008236
539.8138	0.010009
540.0388	0.010389
540.2638	0.010072
540.4888	0.009334
540.7138	0.009460
540.9389	0.010706
541.1639	0.010178
541.3890	0.011445
541.6140	0.009524
541.8391	0.012142
542.0642	0.011508
542.2893	0.010199
542.5144	0.010136
542.7396	0.012585
542.9647	0.010917
543.1899	0.013535
543.4150	0.012944
543.6402	0.012479
543.8654	0.013450
544.0906	0.013619
544.3158	0.013640
544.5410	0.014337
544.7662	0.015667
544.9915	0.014907
545.2167	0.014886
545.4420	0.014126
545.6673	0.015076
545.8926	0.016047
546.1179	0.015182
546.3432	0.014992
546.5685	0.013197
546.7938	0.014337
547.0192	0.013831
547.2445	0.015667
547.4699	0.014189
547.6953	0.014971
547.9206	0.013852
548.1460	0.017314
548.3715	0.018539
548.5969	0.020629
548.8223	0.019045
549.0478	0.020481
549.2732	0.017525
549.4987	0.018159
549.7242	0.017800
549.9496	0.018708
550.1751	0.018665
550.4007	0.017779
550.6262	0.017209
550.8517	0.017779
551.0773	0.015456
551.3028	0.015710
551.5284	0.016850
551.7540	0.017166
551.9796	0.018813
552.2052	0.019932
552.4308	0.019742
552.6564	0.022571
552.8820	0.020945
553.1077	0.020903
553.3333	0.021473
553.5590	0.021706
553.7847	0.023796
554.0104	0.022339
554.2361	0.022001
554.4618	0.024112
554.6875	0.020291
554.9132	0.022761
555.1390	0.019510
555.3648	0.022233
555.5905	0.023986
555.8163	0.024915
556.0421	0.024218
556.2679	0.025506
556.4937	0.026857
556.7195	0.023922
556.9454	0.025274
557.1712	0.021368
557.3971	0.024978
557.6230	0.025569
557.8488	0.025654
558.0747	0.026646
558.3006	0.026561
558.5266	0.027321
558.7525	0.027005
558.9784	0.024830
559.2044	0.024345
559.4303	0.023521
559.6563	0.024492
559.8823	0.025759
560.1083	0.026097
560.3343	0.027786
560.5603	0.029032
560.7863	0.029918
561.0124	0.031987
561.2384	0.032557
561.4645	0.033339
561.6905	0.032811
561.9166	0.033212
562.1427	0.033887
562.3688	0.030995
562.5949	0.030911
562.8211	0.031248
563.0472	0.032684
563.2733	0.031755
563.4995	0.033719
563.7257	0.031227
563.9519	0.035175
564.1781	0.035661
564.4043	0.035513
564.6305	0.035767
564.8567	0.037033
565.0829	0.036484
565.3092	0.038363
565.5355	0.038764
565.7617	0.037054
565.9880	0.038237
566.2143	0.038448
566.4406	0.041488
566.6669	0.040686
566.8932	0.039377
567.1196	0.040411
567.3459	0.045267
567.5723	0.047125
567.7987	0.049743
568.0250	0.053797
568.2514	0.054641
568.4778	0.056436
568.7043	0.055465
568.9307	0.063128
569.1571	0.066443
569.3836	0.069969
569.6100	0.074107
569.8365	0.080082
570.0630	0.089794
570.2895	0.096866
570.5160	0.096824
570.7425	0.097838
570.9690	0.102440
571.1956	0.106853
571.4221	0.114136
571.6487	0.122539
571.8752	0.123405
572.1018	0.128958
572.3284	0.131364
572.5550	0.134215
572.7816	0.126952
573.0082	0.115298
573.2349	0.110062
573.4615	0.120618
573.6882	0.131829
573.9149	0.141815
574.1415	0.146354
574.3682	0.150028
574.5949	0.157818
574.8216	0.164954
575.0484	0.162928
575.2751	0.165060
575.5018	0.168734
575.7286	0.167530
575.9554	0.159465
576.1821	0.151717
576.4089	0.154567
576.6357	0.158198
576.8626	0.164342
577.0894	0.174307
577.3162	0.175975
577.5431	0.179058
577.7699	0.186954
577.9968	0.229643
578.2237	0.237920
578.4505	0.229179
578.6774	0.217314
578.9044	0.201437
579.1313	0.191873
579.3582	0.185772
579.5851	0.185117
579.8121	0.197193
580.0391	0.200234
580.2660	0.199959
580.4930	0.198186
580.7200	0.199938
580.9470	0.194575
581.1741	0.197552
581.4011	0.230340
581.6281	0.276281
581.8552	0.301975
582.0822	0.310843
582.3093	0.306831
582.5364	0.293214
582.7635	0.277527
582.9906	0.246998
583.2177	0.232409
583.4449	0.215561
583.6720	0.200740
583.8991	0.189023
584.1263	0.185096
584.3535	0.187925
584.5807	0.192929
584.8079	0.194174
585.0351	0.202704
585.2623	0.219129
585.4895	0.228018
585.7167	0.230657
585.9440	0.227722
586.1713	0.222360
586.3985	0.208172
586.6258	0.199094
586.8531	0.189002
587.0804	0.195314
587.3077	0.205554
587.5350	0.212711
587.7624	0.221008
587.9897	0.220671
588.2171	0.212796
588.4445	0.200403
588.6718	0.198587
588.8992	0.192274
589.1266	0.185370
589.3540	0.172893
589.5815	0.164490
589.8089	0.157460
590.0363	0.158832
590.2638	0.157185
590.4913	0.153237
590.7187	0.143209
590.9462	0.140654
591.1737	0.134193
591.4012	0.129359
591.6288	0.125242
591.8563	0.126403
592.0838	0.131871
592.3114	0.121695
592.5389	0.131491
592.7665	0.150661
592.9941	0.174075
593.2217	0.191282
593.4493	0.198756
593.6769	0.196180
593.9046	0.191071
594.1322	0.188368
594.3598	0.179311
594.5875	0.167784
594.8152	0.164004
595.0429	0.174012
595.2705	0.188516
595.4983	0.192844
595.7260	0.188073
595.9537	0.182731
596.1814	0.167361
596.4092	0.157586
596.6369	0.152414
596.8647	0.139598
597.0925	0.141287
597.3203	0.141118
597.5481	0.145130
597.7759	0.152076
598.0037	0.147135
598.2315	0.144201
598.4594	0.135101
598.6872	0.136896
598.9151	0.150598
599.1430	0.171140
599.3709	0.180662
599.5988	0.175110
599.8267	0.171056
600.0546	0.169346
600.2825	0.176102
600.5105	0.182457
600.7384	0.179459
600.9664	0.176292
601.1944	0.180641
601.4223	0.182626
601.6503	0.177495
601.8783	0.173041
602.1064	0.167129
602.3344	0.162379
602.5624	0.164279
602.7905	0.166242
603.0185	0.168248
603.2466	0.170465
603.4747	0.178614
603.7028	0.184653
603.9309	0.184758
604.1590	0.181042
604.3871	0.172998
604.6152	0.164976
604.8434	0.159275
605.0715	0.155158
605.2997	0.152245
605.5279	0.157058
605.7561	0.161344
605.9843	0.167741
606.2125	0.173970
606.4407	0.170359
606.6689	0.164912
606.8972	0.152899
607.1254	0.153174
607.3537	0.152984
607.5819	0.159170
607.8102	0.155264
608.0385	0.156805
608.2668	0.152139
608.4951	0.146713
608.7235	0.146038
608.9518	0.143631
609.1801	0.140675
609.4085	0.136790
609.6369	0.134658
609.8653	0.131005
610.0936	0.135925
610.3220	0.144644
610.5505	0.151464
610.7789	0.147452
611.0073	0.139387
611.2357	0.135946
611.4642	0.136199
611.6927	0.137424
611.9211	0.136051
612.1496	0.134151
612.3781	0.131217
612.6066	0.126762
612.8351	0.127627
613.0637	0.127606
613.2922	0.130604
613.5208	0.128641
613.7493	0.124038
613.9779	0.126508
614.2065	0.126530
614.4351	0.124397
614.6637	0.128577
614.8923	0.127269
615.1209	0.124249
615.3495	0.125854
615.5782	0.124629
615.8068	0.128662
616.0355	0.128472
616.2642	0.125685
616.4929	0.115910
616.7216	0.113102
616.9503	0.110104
617.1790	0.109365
617.4077	0.109724
617.6365	0.109154
617.8652	0.109323
618.0940	0.108331
618.3227	0.112236
618.5515	0.107592
618.7803	0.101680
619.0091	0.096360
619.2379	0.090427
619.4667	0.089181
619.6956	0.088844
619.9244	0.088041
620.1533	0.092961
620.3821	0.095262
620.6110	0.097394
620.8399	0.092665
621.0688	0.088970
621.2977	0.082468
621.5266	0.074930
621.7556	0.072439
621.9845	0.076092
622.2135	0.079470
622.4424	0.081581
622.6714	0.079997
622.9004	0.082531
623.1294	0.086014
623.3584	0.088379
623.5874	0.087429
623.8164	0.089941
624.0454	0.087239
624.2745	0.085719
624.5035	0.087408
624.7326	0.089202
624.9617	0.090110
625.1908	0.090300
625.4199	0.085022
625.6490	0.083945
625.8781	0.081665
626.1072	0.078161
626.3364	0.076070
626.5655	0.078055
626.7947	0.072080
627.0238	0.070771
627.2530	0.071510
627.4822	0.072165
627.7114	0.071025
627.9406	0.073009
628.1698	0.068639
628.3991	0.065029
628.6283	0.059666
628.8576	0.056541
629.0868	0.059033
629.3161	0.057027
629.5454	0.061271
629.7747	0.062875
630.0040	0.060320
630.2333	0.063888
630.4626	0.059603
630.6920	0.060637
630.9213	0.058230
631.1507	0.056140
631.3801	0.051707
631.6094	0.052678
631.8388	0.052720
632.0682	0.051939
632.2976	0.051432
632.5271	0.053015
632.7565	0.051052
632.9859	0.047695
633.2154	0.044338
633.4448	0.046196
633.6743	0.043832
633.9038	0.045795
634.1333	0.044359
634.3628	0.043304
634.5923	0.042987
634.8218	0.042839
635.0514	0.042396
635.2809	0.042945
635.5105	0.039799
635.7400	0.039250
635.9696	0.042248
636.1992	0.043114
636.4288	0.045774
636.6584	0.045499
636.8880	0.044592
637.1177	0.045985
637.3473	0.044190
637.5770	0.040897
637.8066	0.042670
638.0363	0.040285
638.2660	0.042565
638.4957	0.040263
638.7254	0.042565
638.9551	0.043071
639.1848	0.040897
639.4145	0.043409
639.6443	0.039740
639.8740	0.041278
640.1038	0.038537
640.3336	0.038270
640.5633	0.037331
640.7931	0.036056
641.0229	0.034498
641.2528	0.036246
641.4826	0.033329
641.7124	0.033791
641.9423	0.031532
642.1721	0.031335
642.4020	0.030169
642.6319	0.030578
642.8617	0.028115
643.0916	0.030239
643.3216	0.031035
643.5515	0.031875
643.7814	0.030223
644.0113	0.031916
644.2413	0.030159
644.4712	0.026929
644.7012	0.027303
644.9312	0.028439
645.1612	0.028672
645.3912	0.026299
645.6212	0.028486
645.8512	0.026207
646.0812	0.026550
646.3113	0.026688
646.5413	0.026124
646.7714	0.023362
647.0015	0.024486
647.2316	0.024182
647.4616	0.024043
647.6918	0.024266
647.9219	0.026666
648.1520	0.029079
648.3821	0.028610
648.6123	0.032012
648.8424	0.033221
649.0726	0.032292
649.3028	0.032847
649.5329	0.034355
649.7631	0.034554
649.9933	0.032854
650.2236	0.031695
650.4538	0.029439
650.6840	0.029776
650.9143	0.030391
651.1445	0.029270
651.3748	0.028350
651.6051	0.028518
651.8354	0.029419
652.0657	0.030658
652.2960	0.030808
652.5263	0.031685
652.7566	0.032067
652.9870	0.030822
653.2173	0.031491
653.4477	0.034539
653.6780	0.031290
653.9084	0.033272
654.1388	0.032340
654.3692	0.033743
654.5996	0.034024
654.8300	0.037429
655.0605	0.044339
655.2909	0.064805
655.5213	0.187844
655.7518	0.519893
655.9823	0.943416
656.2128	1.000000
656.4433	1.000000
656.6738	1.000000
656.9043	1.000000
657.1348	1.000000
657.3653	0.865093
657.5959	0.700855
657.8264	0.604895
658.0570	0.524755
658.2875	0.483946
658.5181	0.446877
658.7487	0.399528
658.9793	0.375806
659.2099	0.369993
659.4406	0.330517
659.6712	0.256043
659.9018	0.168298
660.1325	0.100591
660.3632	0.059849
660.5938	0.039306
660.8245	0.031726
661.0552	0.027949
661.2859	0.026747
661.5166	0.024984
661.7474	0.022793
661.9781	0.025221
662.2088	0.024407
662.4396	0.023587
662.6704	0.022406
662.9011	0.021071
663.1319	0.023520
663.3627	0.019915
663.5935	0.023223
663.8243	0.021150
664.0552	0.022809
664.2860	0.020973
664.5168	0.022491
664.7477	0.021711
664.9786	0.023581
665.2094	0.023936
665.4403	0.025010
665.6712	0.024808
665.9021	0.023923
666.1330	0.025226
666.3640	0.023938
666.5949	0.021639
666.8259	0.021481
667.0568	0.021276
667.2878	0.022500
667.5188	0.022718
667.7497	0.022358
667.9807	0.022188
668.2117	0.022955
668.4428	0.020502
668.6738	0.020777
668.9048	0.021093
669.1359	0.022170
669.3669	0.021494
669.5980	0.020608
669.8291	0.020988
670.0602	0.024323
670.2913	0.022339
670.5224	0.023268
670.7535	0.021642
670.9846	0.023331
671.2157	0.022508
671.4469	0.022993
671.6781	0.027131
671.9092	0.028863
672.1404	0.030932
672.3716	0.032980
672.6028	0.033719
672.8340	0.033149
673.0652	0.033740
673.2964	0.031840
673.5277	0.031523
673.7589	0.032072
673.9902	0.029264
674.2214	0.031882
674.4527	0.029559
674.6840	0.027955
674.9153	0.028440
675.1466	0.025084
675.3779	0.026773
675.6093	0.026941
675.8406	0.027955
676.0719	0.027406
676.3033	0.024915
676.5347	0.026012
676.7661	0.023922
676.9974	0.023986
677.2288	0.022212
677.4602	0.024070
677.6917	0.026815
677.9231	0.027089
678.1545	0.029243
678.3860	0.029602
678.6174	0.030045
678.8489	0.030425
679.0804	0.030172
679.3119	0.031354
679.5434	0.033001
679.7749	0.034310
680.0064	0.035471
680.2379	0.035006
680.4694	0.034795
680.7010	0.036104
680.9325	0.034500
681.1641	0.033001
681.3957	0.033339
681.6273	0.035767
681.8589	0.036379
682.0905	0.036695
682.3221	0.033317
682.5537	0.032937
682.7854	0.031628
683.0170	0.030277
683.2487	0.031354
683.4803	0.029200
683.7120	0.032388
683.9437	0.031586
684.1754	0.031523
684.4071	0.033550
684.6388	0.035682
684.8705	0.036843
685.1023	0.038596
685.3340	0.041171
685.5658	0.043008
685.7975	0.045014
686.0293	0.046724
686.2611	0.045584
686.4929	0.045689
686.7247	0.043663
686.9565	0.044317
687.1883	0.042501
687.4202	0.045922
687.6520	0.044359
687.8838	0.042987
688.1157	0.042459
688.3476	0.041847
688.5795	0.038511
688.8114	0.039292
689.0433	0.039123
689.2752	0.036738
689.5071	0.036125
689.7390	0.036864
689.9710	0.037772
690.2029	0.034816
690.4349	0.034753
690.6669	0.033761
690.8988	0.033951
691.1308	0.034479
691.3628	0.037878
691.5948	0.039060
691.8269	0.037836
692.0589	0.038553
692.2909	0.039841
692.5230	0.037308
692.7550	0.039208
692.9871	0.037519
693.2192	0.040327
693.4513	0.039989
693.6834	0.040601
693.9155	0.039166
694.1476	0.036273
694.3797	0.035281
694.6119	0.034563
694.8440	0.032642
695.0762	0.033360
695.3083	0.034605
695.5405	0.033529
695.7727	0.032557
696.0049	0.030699
696.2371	0.031818
696.4693	0.029644
696.7016	0.033149
696.9338	0.034859
697.1660	0.039715
697.3983	0.038617
697.6306	0.039693
697.8628	0.038004
698.0951	0.036400
698.3274	0.040622
698.5597	0.038406
698.7920	0.039905
699.0243	0.036653
699.2567	0.037920
699.4890	0.036590
699.7214	0.033339
699.9537	0.033613
700.1861	0.031417
700.4185	0.034690
700.6509	0.031671
700.8833	0.032410
701.1157	0.032853
701.3481	0.031586
701.5806	0.028293
701.8130	0.030847
702.0454	0.030404
702.2779	0.029222
702.5104	0.031227
702.7429	0.031797
702.9753	0.030509
703.2078	0.028757
703.4403	0.027364
703.6729	0.028630
703.9054	0.028229
704.1379	0.028863
704.3705	0.027596
704.6030	0.029053
704.8356	0.026625
705.0682	0.026245
705.3008	0.026941
705.5334	0.024028
705.7660	0.023817
705.9986	0.025400
706.2312	0.025527
706.4638	0.027364
706.6965	0.031818
706.9291	0.032008
707.1618	0.034901
707.3945	0.038786
707.6272	0.038047
707.8599	0.038384
708.0926	0.037603
708.3253	0.037371
708.5580	0.039060
708.7907	0.037709
709.0235	0.039018
709.2562	0.036653
709.4890	0.034669
709.7217	0.035006
709.9545	0.032684
710.1873	0.033697
710.4201	0.033085
710.6529	0.035978
710.8857	0.035767
711.1186	0.034246
711.3514	0.032452
711.5842	0.031185
711.8171	0.031586
712.0500	0.031016
712.2828	0.029623
712.5157	0.028989
712.7486	0.028757
712.9815	0.028398
713.2144	0.028609
713.4474	0.029348
713.6803	0.032832
713.9132	0.032853
714.1462	0.034310
714.3791	0.034458
714.6121	0.037329
714.8451	0.035555
715.0781	0.034331
715.3111	0.035175
715.5441	0.035661
715.7771	0.034732
716.0102	0.032790
716.2432	0.032621
716.4762	0.029602
716.7093	0.029095
716.9424	0.030277
717.1754	0.029158
717.4085	0.026498
717.6416	0.026646
717.8747	0.027786
718.1078	0.029559
718.3410	0.029538
718.5741	0.028229
718.8072	0.029200
719.0404	0.027997
719.2736	0.028377
719.5067	0.030214
719.7399	0.028947
719.9731	0.029686
720.2063	0.029728
720.4395	0.029327
720.6727	0.027490
720.9060	0.029623
721.1392	0.029813
721.3725	0.029496
721.6057	0.030235
721.8390	0.030784
722.0723	0.028419
722.3055	0.030932
722.5388	0.029285
722.7721	0.029771
723.0055	0.026604
723.2388	0.028989
723.4721	0.027153
723.7055	0.028250
723.9388	0.029538
724.1722	0.027490
724.4056	0.028630
724.6389	0.027765
724.8723	0.027131
725.1057	0.029918
725.3391	0.030657
725.5726	0.032959
725.8060	0.031333
726.0394	0.033149
726.2729	0.034141
726.5063	0.033296
726.7398	0.033064
726.9733	0.034204
727.2068	0.032177
727.4403	0.031080
727.6738	0.030509
727.9073	0.030319
728.1408	0.032895
728.3743	0.033106
728.6079	0.032916
728.8414	0.034542
729.0750	0.033740
729.3086	0.033993
729.5421	0.033719
729.7757	0.036527
730.0093	0.038574
730.2429	0.036337
730.4766	0.037962
730.7102	0.038004
730.9438	0.039546
731.1775	0.044592
731.4111	0.044866
731.6448	0.043451
731.8785	0.043979
732.1122	0.042839
732.3458	0.041277
732.5795	0.039567
732.8133	0.042058
733.0470	0.044613
733.2807	0.041868
733.5145	0.044000
733.7482	0.043642
733.9820	0.044317
734.2157	0.047590
734.4495	0.051833
734.6833	0.050039
734.9171	0.049743
735.1509	0.049701
735.3847	0.047442
735.6185	0.045626
735.8524	0.050946
736.0862	0.047505
736.3201	0.048814
736.5539	0.049046
736.7878	0.049300
737.0217	0.047231
737.2556	0.047210
737.4895	0.048582
737.7234	0.049933
737.9573	0.046365
738.1912	0.044148
738.4252	0.041446
738.6591	0.040432
738.8931	0.041361
739.1271	0.043198
739.3610	0.046006
739.5950	0.048983
739.8290	0.046682
740.0630	0.047167
740.2970	0.045204
740.5310	0.043135
740.7651	0.040179
740.9991	0.038680
741.2332	0.038026
741.4672	0.036421
741.7013	0.033423
741.9354	0.033592
742.1695	0.034310
742.4036	0.035893
742.6377	0.034690
742.8718	0.035957
743.1059	0.035049
743.3400	0.032832
743.5742	0.031671
743.8083	0.032959
744.0425	0.030826
744.2767	0.029834
744.5108	0.029243
744.7450	0.031396
744.9792	0.030573
745.2134	0.031354
745.4477	0.026477
745.6819	0.030003
745.9161	0.028715
746.1504	0.026709
746.3846	0.028799
746.6189	0.028272
746.8532	0.026878
747.0874	0.028145
747.3217	0.030404
747.5560	0.033296
747.7903	0.032431
748.0247	0.031966
748.2590	0.029581
748.4933	0.027321
748.7277	0.026561
748.9620	0.026561
749.1964	0.030615
749.4308	0.031861
749.6652	0.033529
749.8995	0.035006
750.1339	0.036062
750.3684	0.036653
750.6028	0.039503
750.8372	0.040073
751.0717	0.040580
751.3061	0.040158
751.5406	0.038448
751.7750	0.037878
752.0095	0.042354
752.2440	0.040327
752.4785	0.038490
752.7130	0.038448
752.9475	0.038384
753.1820	0.035661
753.4166	0.036484
753.6511	0.037202
753.8856	0.041192
754.1202	0.045647
754.3548	0.041974
754.5894	0.039693
754.8239	0.039799
755.0585	0.039588
755.2931	0.040031
755.5278	0.040031
755.7624	0.042375
755.9970	0.044613
756.2317	0.043325
756.4663	0.046724
756.7010	0.047843
756.9356	0.049363
757.1703	0.050799
757.4050	0.051495
757.6397	0.057702
757.8744	0.060194
758.1091	0.061292
758.3438	0.058294
758.5786	0.054810
758.8133	0.053227
759.0481	0.054768
759.2828	0.055275
759.5176	0.056964
759.7524	0.059856
759.9872	0.059075
760.2220	0.060975
760.4568	0.062263
760.6916	0.063318
760.9264	0.064395
761.1613	0.062981
761.3961	0.061819
761.6310	0.058631
761.8658	0.055929
762.1007	0.052277
762.3356	0.052340
762.5705	0.049131
762.8054	0.050820
763.0403	0.048920
763.2752	0.050503
763.5101	0.049933
763.7450	0.051517
763.9800	0.048519
764.2149	0.048160
764.4499	0.051728
764.6849	0.054050
764.9198	0.060130
765.1548	0.061334
765.3898	0.058420
765.6248	0.056752
765.8599	0.054873
766.0949	0.053923
766.3299	0.050123
766.5650	0.046471
766.8000	0.044697
767.0351	0.041192
767.2701	0.041002
767.5052	0.037244
767.7403	0.036738
767.9754	0.038870
768.2105	0.041298
768.4456	0.042903
768.6808	0.044296
768.9159	0.046597
769.1510	0.048328
769.3862	0.047906
769.6214	0.046428
769.8565	0.044380
770.0917	0.046365
770.3269	0.044528
770.5621	0.044972
770.7973	0.045668
771.0325	0.047442
771.2677	0.049574
771.5030	0.049975
771.7382	0.048244
771.9735	0.045140
772.2087	0.040538
772.4440	0.041910
772.6793	0.040665
772.9146	0.041826
773.1499	0.042607
773.3852	0.039123
773.6205	0.039123
773.8558	0.037054
774.0911	0.039039
774.3265	0.036907
774.5618	0.035365
774.7972	0.032726
775.0326	0.031882
775.2679	0.031438
775.5033	0.031291
775.7387	0.028968
775.9741	0.028018
776.2095	0.028504
776.4450	0.026688
776.6804	0.024915
776.9158	0.024830
777.1513	0.025126
777.3868	0.025400
777.6222	0.023901
777.8577	0.023479
778.0932	0.024197
778.3287	0.025421
778.5642	0.024978
778.7997	0.027680
779.0352	0.027934
779.2707	0.030594
779.5063	0.029559
779.7418	0.032072
779.9774	0.031248
780.2130	0.031607
780.4485	0.031312
780.6841	0.028250
780.9197	0.029644
781.1553	0.029602
781.3909	0.034310
781.6265	0.034500
781.8622	0.035175
782.0978	0.034584
782.3335	0.034183
782.5691	0.035471
782.8048	0.036463
783.0405	0.035091
783.2761	0.034225
783.5118	0.034584
783.7475	0.034331
783.9832	0.034901
784.2190	0.034922
784.4547	0.030826
784.6904	0.031861
784.9262	0.030889
785.1619	0.029581
785.3977	0.029158
785.6335	0.030488
785.8692	0.030826
786.1050	0.027786
786.3408	0.029792
786.5766	0.027723
786.8124	0.029137
787.0483	0.026709
787.2841	0.025780
787.5199	0.030108
787.7558	0.028778
787.9917	0.029982
788.2275	0.029116
788.4634	0.030594
788.6993	0.030868
788.9352	0.032663
789.1711	0.033402
789.4070	0.032220
789.6429	0.030003
789.8789	0.028715
790.1148	0.027828
790.3507	0.026308
790.5867	0.025485
790.8227	0.025738
791.0586	0.024830
791.2946	0.024535
791.5306	0.022698
791.7666	0.024513
792.0026	0.024492
792.2387	0.023479
792.4747	0.023183
792.7107	0.021304
792.9468	0.021874
793.1828	0.019636
793.4189	0.023268
793.6550	0.023395
793.8910	0.024492
794.1271	0.026181
794.3632	0.028145
794.5993	0.031481
794.8355	0.030932
795.0716	0.030974
795.3077	0.032790
795.5439	0.031987
795.7800	0.031227
796.0162	0.029369
796.2523	0.029876
796.4885	0.024661
796.7247	0.023437
796.9609	0.022212
797.1971	0.022698
797.4333	0.023247
797.6695	0.022909
797.9058	0.022360
798.1420	0.024725
798.3783	0.023226
798.6145	0.022677
798.8508	0.023352
799.0871	0.023395
799.3233	0.021093
799.5596	0.023078
799.7959	0.021959
800.0322	0.021642
800.2686	0.022339
800.5049	0.021600
800.7412	0.018623
800.9776	0.020143
801.2139	0.020439
801.4503	0.021030
801.6867	0.020101
801.9230	0.020439
802.1594	0.018074
802.3958	0.018306
802.6322	0.017356
802.8686	0.017800
803.1051	0.016807
803.3415	0.018370
803.5779	0.018433
803.8144	0.018412
804.0508	0.019193
804.2873	0.018475
804.5238	0.018623
804.7603	0.017589
804.9968	0.017483
805.2333	0.018602
805.4698	0.016807
805.7063	0.017694
805.9428	0.018327
806.1794	0.020840
806.4159	0.022170
806.6525	0.025274
806.8890	0.026435
807.1256	0.024070
807.3622	0.023310
807.5988	0.022423
807.8354	0.022487
808.0720	0.024049
808.3086	0.023627
808.5452	0.022740
808.7818	0.023141
809.0185	0.024281
809.2551	0.022360
809.4918	0.022001
809.7284	0.020017
809.9651	0.020375
810.2018	0.018623
810.4385	0.019341
810.6752	0.018454
810.9119	0.020101
811.1486	0.016934
811.3853	0.019256
811.6221	0.019172
811.8588	0.016934
812.0956	0.016512
812.3323	0.015921
812.5691	0.016132
812.8059	0.015710
813.0427	0.015583
813.2795	0.015330
813.5163	0.015498
813.7531	0.016174
813.9899	0.017462
814.2267	0.019130
814.4636	0.019552
814.7004	0.018961
814.9373	0.016997
815.1742	0.017926
815.4110	0.017187
815.6479	0.015055
815.8848	0.013640
816.1217	0.014527
816.3586	0.011973
816.5955	0.014316
816.8324	0.014992
817.0694	0.013619
817.3063	0.015794
817.5433	0.014168
817.7802	0.015161
818.0172	0.015477
818.2542	0.014591
818.4912	0.014443
818.7282	0.014189
818.9652	0.013366
819.2022	0.013366
819.4392	0.014569
819.6762	0.013640
819.9133	0.013704
820.1503	0.013429
820.3874	0.012395
820.6244	0.014548
820.8615	0.015625
821.0986	0.014591
821.3357	0.015414
821.5727	0.016385
821.8099	0.014401
822.0470	0.014781
822.2841	0.013957
822.5212	0.014105
822.7584	0.013366
822.9955	0.014274
823.2327	0.012458
823.4698	0.012205
823.7070	0.011571
823.9442	0.012775
824.1814	0.012437
824.4186	0.011719
824.6558	0.009861
824.8930	0.010347
825.1302	0.010748
825.3675	0.012099
825.6047	0.011973
825.8419	0.013366
826.0792	0.013873
826.3165	0.013957
826.5537	0.011635
826.7910	0.011719
827.0283	0.013155
827.2656	0.010811
827.5029	0.014063
827.7402	0.013746
827.9776	0.014126
828.2149	0.013788
828.4522	0.011656
828.6896	0.011086
828.9270	0.013577
829.1643	0.013092
829.4017	0.013387
829.6391	0.012880
829.8765	0.012163
830.1139	0.013197
830.3513	0.011804
830.5887	0.010811
830.8261	0.009439
831.0636	0.008616
831.3010	0.009144
831.5385	0.008679
831.7759	0.009756
832.0134	0.008193
832.2509	0.006399
832.4884	0.008975
832.7259	0.008383
832.9634	0.008595
833.2009	0.009988
833.4384	0.008510
833.6759	0.009355
833.9135	0.009671
834.1510	0.009714
834.3886	0.008552
834.6261	0.011360
834.8637	0.011994
835.1013	0.010389
835.3389	0.009882
835.5765	0.010241
835.8141	0.010431
836.0517	0.009524
836.2893	0.010241
836.5269	0.008067
836.7646	0.010452
837.0022	0.007750
837.2399	0.007117
837.4775	0.008193
837.7152	0.007898
837.9529	0.006420
838.1906	0.007813
838.4283	0.007813
838.6660	0.007286
838.9037	0.006694
839.1414	0.007518
839.3791	0.006716
839.6169	0.006906
839.8546	0.006779
840.0924	0.008215
840.3302	0.007771
840.5679	0.005554
840.8057	0.008003
841.0435	0.008510
841.2813	0.005153
841.5191	0.007455
841.7569	0.006927
841.9947	0.006441
842.2326	0.006040
842.4704	0.006842
842.7082	0.005343
842.9461	0.005385
843.1840	0.005808
843.4218	0.006884
843.6597	0.005343
843.8976	0.005132
844.1355	0.005322
844.3734	0.007264
844.6113	0.004794
844.8492	0.005829
845.0872	0.006061
845.3251	0.005998
845.5631	0.005808
845.8010	0.005998
846.0390	0.005385
846.2770	0.005575
846.5149	0.006103
846.7529	0.005829
846.9909	0.005174
847.2289	0.004182
847.4669	0.005871
847.7050	0.005660
847.9430	0.005048
848.1810	0.006758
848.4191	0.005111
848.6571	0.004984
848.8952	0.004858
849.1333	0.004372
849.3713	0.004689
849.6094	0.005449
849.8475	0.004837
850.0856	0.004984
850.3237	0.003718
850.5619	0.004499
850.8000	0.004858
851.0381	0.004224
851.2763	0.006230
851.5144	0.005808
851.7526	0.003696
851.9908	0.005702
852.2289	0.006589
852.4671	0.004942
852.7053	0.005639
852.9435	0.008383
853.1817	0.010136
853.4200	0.012500
853.6582	0.013577
853.8964	0.014042
854.1347	0.013852
854.3729	0.013704
854.6112	0.013408
854.8495	0.014485
855.0877	0.014802
855.3260	0.012585
855.5643	0.014274
855.8026	0.014274
856.0409	0.013113
856.2792	0.011656
856.5176	0.013683
856.7559	0.013450
856.9942	0.012078
857.2326	0.011403
857.4710	0.011593
857.7093	0.010854
857.9477	0.010833
858.1861	0.009819
858.4245	0.009777
858.6629	0.010579
858.9013	0.009967
859.1397	0.010009
859.3781	0.009038
859.6166	0.008911
859.8550	0.008954
860.0935	0.009439
860.3319	0.007645
860.5704	0.007264
860.8089	0.008405
861.0473	0.007687
861.2858	0.006673
861.5243	0.007623
861.7628	0.007433
862.0013	0.006737
862.2399	0.006652
862.4784	0.005575
862.7169	0.004583
862.9555	0.005048
863.1940	0.006272
863.4326	0.006652
863.6712	0.006948
863.9098	0.007307
864.1483	0.007243
864.3869	0.006863
864.6255	0.008088
864.8642	0.005364
865.1028	0.006167
865.3414	0.006420
865.5800	0.004140
865.8187	0.006399
866.0573	0.005681
866.2960	0.004752
866.5347	0.005428
866.7733	0.006167
867.0120	0.004794
867.2507	0.006441
867.4894	0.005491
867.7281	0.006357
867.9669	0.005174
868.2056	0.005554
868.4443	0.005238
868.6831	0.005111
868.9218	0.004647
869.1606	0.005090
869.3993	0.003992
869.6381	0.005027
869.8769	0.004119
870.1157	0.004435
870.3545	0.004457
870.5933	0.005132
870.8321	0.004731
871.0709	0.007117
871.3097	0.005195
871.5486	0.005322
871.7874	0.004879
872.0263	0.006293
872.2651	0.005174
872.5040	0.004879
872.7429	0.005048
872.9818	0.006209
873.2207	0.003760
873.4596	0.004330
873.6985	0.006673
873.9374	0.004900
874.1763	0.004984
874.4153	0.005618
874.6542	0.005723
874.8932	0.005428
875.1321	0.005027
875.3711	0.004520
875.6101	0.006652
875.8491	0.005639
876.0880	0.005956
876.3270	0.007645
876.5661	0.007264
876.8051	0.005892
877.0441	0.004562
877.2831	0.006124
877.5222	0.004900
877.7612	0.005787
878.0003	0.006990
878.2393	0.007074
878.4784	0.007813
878.7175	0.007750
878.9566	0.008003
879.1957	0.005723
879.4348	0.007433
879.6739	0.006610
879.9130	0.007813
880.1521	0.008573
880.3913	0.008109
880.6304	0.010030
880.8696	0.007243
881.1087	0.007180
881.3479	0.008278
881.5871	0.008215
881.8262	0.008447
882.0654	0.005913
882.3046	0.006863
882.5438	0.006842
882.7831	0.005301
883.0223	0.006673
883.2615	0.006293
883.5007	0.006948
883.7400	0.006293
883.9792	0.005364
884.2185	0.006124
884.4578	0.004773
884.6971	0.006737
884.9363	0.005934
885.1756	0.006188
885.4149	0.006441
885.6542	0.006568
885.8936	0.007856
886.1329	0.007307
886.3722	0.005660
886.6116	0.006568
886.8509	0.005956
887.0903	0.006737
887.3296	0.006167
887.5690	0.006462
887.8084	0.005280
888.0478	0.006103
888.2872	0.006547
888.5266	0.006272
888.7660	0.005153
889.0054	0.006230
889.2448	0.004203
889.4843	0.005407
889.7237	0.004942
889.9632	0.005343
890.2026	0.004562
890.4421	0.004309
890.6816	0.004625
890.9211	0.004055
891.1606	0.004541
891.4001	0.004435
891.6396	0.005512
891.8791	0.005723
892.1186	0.004921
892.3581	0.005977
892.5977	0.003612
892.8372	0.003844
893.0768	0.002704
893.3163	0.005512
893.5559	0.004562
893.7955	0.004942
894.0351	0.005027
894.2747	0.004858
894.5143	0.005660
894.7539	0.004076
894.9935	0.004457
895.2331	0.006019
895.4727	0.003401
895.7124	0.005111
895.9520	0.004815
896.1917	0.005871
896.4314	0.003971
896.6710	0.004414
896.9107	0.005787
897.1504	0.004161
897.3901	0.005132
897.6298	0.004055
897.8695	0.003338
898.1092	0.005829
898.3489	0.004457
898.5887	0.005280
898.8284	0.004963
899.0682	0.005681
899.3079	0.003464
899.5477	0.005195
899.7875	0.005090
900.0272	0.004647
900.2670	0.005153
900.5068	0.002958
900.7466	0.005153
900.9864	0.003549
901.2263	0.004689
901.4661	0.004710
901.7059	0.004773
901.9458	0.005744
902.1856	0.003886
902.4255	0.003570
902.6654	0.004267
902.9052	0.005090
903.1451	0.003253
903.3850	0.003950
903.6249	0.003506
903.8648	0.003654
904.1047	0.004710
904.3446	0.003464
904.5846	0.005681
904.8245	0.005132
905.0644	0.005280
905.3044	0.004900
905.5444	0.005407
905.7843	0.005554
906.0243	0.005491
906.2643	0.004583
906.5043	0.004710
906.7443	0.003971
906.9843	0.005132
907.2243	0.004435
907.4643	0.003781
907.7043	0.005343
907.9444	0.004583
908.1844	0.004055
908.4245	0.004668
908.6645	0.005956
908.9046	0.002958
909.1447	0.003211
909.3847	0.005027
909.6248	0.004478
909.8649	0.001860
910.1050	0.003084
910.3452	0.003844
910.5853	0.004076
910.8254	0.004055
911.0655	0.003148
911.3057	0.004478
911.5458	0.003696
911.7860	0.004372
912.0262	0.004668
912.2663	0.003380
912.5065	0.004837
912.7467	0.004098
912.9869	0.004858
913.2271	0.002936
913.4673	0.003760
913.7075	0.001543
913.9478	0.002261
914.1880	0.003338
914.4283	0.001480
914.6685	0.002577
914.9088	0.001923
915.1490	0.002324
915.3893	0.003675
915.6296	0.002282
915.8699	0.002873
916.1102	0.003781
916.3505	0.003781
916.5908	0.004478
916.8311	0.004267
917.0714	0.002936
917.3118	0.005027
917.5521	0.004140
917.7925	0.004625
918.0328	0.004330
918.2732	0.004921
918.5136	0.003950
918.7539	0.005512
918.9943	0.005301
919.2347	0.003633
919.4751	0.003338
919.7155	0.003886
919.9560	0.003506
920.1964	0.005048
920.4368	0.001923
920.6773	0.003760
920.9177	0.003612
921.1582	0.003443
921.3986	0.003886
921.6391	0.003464
921.8796	0.003823
922.1201	0.004921
922.3606	0.002430
922.6011	0.003316
922.8416	0.002451
923.0821	0.003654
923.3226	0.001923
923.5631	0.003084
923.8037	0.002746
924.0442	0.003105
924.2848	0.003950
924.5254	0.002894
924.7659	0.004478
925.0065	0.003084
925.2471	0.002683
925.4877	0.004140
925.7283	0.002704
925.9689	0.003063
926.2095	0.002176
926.4501	0.004182
926.6908	0.002831
926.9314	0.003105
927.1720	0.002577
927.4127	0.001944
927.6533	0.002134
927.8940	0.001881
928.1347	0.002894
928.3754	0.001965
928.6161	0.002472
928.8568	0.002134
929.0975	0.002958
929.3382	0.002366
929.5789	0.003528
929.8196	0.002915
930.0604	0.001627
930.3011	0.001142
930.5419	0.001986
930.7826	0.003253
931.0234	0.002514
931.2642	0.002303
931.5049	0.001627
931.7457	0.002831
931.9865	0.003422
932.2273	0.002493
932.4681	0.001226
932.7089	0.003549
932.9498	0.001100
933.1906	0.002050
933.4314	0.002704
933.6723	0.003105
933.9131	0.001564
934.1540	0.002852
934.3949	0.002662
934.6358	0.002303
934.8766	0.001416
935.1175	0.003148
935.3584	0.002345
935.5993	0.002240
935.8403	0.001416
936.0812	0.002577
936.3221	0.000720
936.5630	0.001564
936.8040	0.001459
937.0449	0.002197
937.2859	0.001142
937.5269	0.002704
937.7678	0.000973
938.0088	0.001142
938.2498	0.001965
938.4908	0.001437
938.7318	0.002240
938.9728	0.001627
939.2138	0.001902
939.4549	0.001585
939.6959	0.002577
939.9369	0.001184
940.1780	0.002113
940.4190	0.002134
940.6601	0.000656
940.9012	0.001437
941.1422	0.001437
941.3833	0.000530
941.6244	0.003084
941.8655	0.001353
942.1066	0.001585
942.3477	0.000128
942.5889	0.001944
942.8300	0.000508
943.0711	0.002261
943.3123	0.000635
943.5534	0.002197
943.7946	0.001079
944.0357	0.001839
944.2769	0.001100
944.5181	0.001944
944.7593	0.000846
945.0005	0.001649
945.2417	0.001986
945.4829	0.000698
945.7241	0.002620
945.9653	0.000973
946.2066	0.000487
946.4478	0.001290
946.6891	0.000276
946.9303	0.000804
947.1716	-0.000040
947.4128	0.000931
947.6541	0.002514
947.8954	0.002641
948.1367	0.000551
948.3780	0.000318
948.6193	0.000044
948.8606	-0.000568
949.1019	0.001036
949.3433	0.000825
949.5846	0.002493
949.8259	0.002577
950.0673	0.000382
950.3086	0.001965
950.5500	0.000741
950.7914	0.001543
951.0327	-0.000252
951.2741	0.001733
951.5155	0.001649
951.7569	0.002219
951.9983	0.000361
952.2398	0.002282
952.4812	0.000973
952.7226	0.001395
952.9640	0.001311
953.2055	0.000952
953.4469	0.000846
953.6884	0.000994
953.9299	0.000551
954.1713	0.002789
954.4128	0.000867
954.6543	0.002641
954.8958	0.001606
955.1373	0.001712
955.3788	0.000234
955.6203	0.000044
955.8618	0.000741
956.1034	0.000382
956.3449	-0.000209
956.5865	0.002451
956.8280	0.001944
957.0696	0.001627
957.3111	0.002176
957.5527	0.001627
957.7943	0.002092
958.0359	0.000487
958.2775	0.001142
958.5191	0.000297
958.7607	0.001015
959.0023	0.001839
959.2439	0.001290
959.4856	0.000846
959.7272	0.000593
959.9688	0.000044
960.2105	0.000213
960.4522	0.000551
960.6938	-0.000294
960.9355	0.001775
961.1772	0.001416
961.4189	0.002620
961.6606	0.000910
961.9023	0.001311
962.1440	-0.000653
962.3857	0.000888
962.6274	0.001163
962.8692	0.000825
963.1109	0.000276
963.3527	0.000508
963.5944	0.000846
963.8362	0.000614
964.0779	0.001649
964.3197	0.001606
964.5615	-0.000252
964.8033	0.001036
965.0451	0.000213
965.2869	0.000762
965.5287	0.000846
965.7705	0.001522
966.0123	0.000297
966.2542	0.001332
966.4960	0.000614
966.7379	0.001121
966.9797	0.000530
967.2216	0.001332
967.4634	0.000931
967.7053	0.000804
967.9472	0.000171
968.1891	-0.001033
968.4310	0.001437
968.6729	0.001986
968.9148	0.000762
969.1567	0.000255
969.3987	0.001121
969.6406	0.000741
969.8825	-0.001223
970.1245	0.001817
970.3664	0.001205
970.6084	0.001923
970.8504	0.000741
971.0923	0.000762
971.3343	0.000741
971.5763	0.002366
971.8183	0.001121
972.0603	0.001121
972.3023	0.000762
972.5443	0.001649
972.7864	-0.001159
973.0284	0.000677
973.2704	0.001437
973.5125	0.000656
973.7545	0.001395
973.9966	0.001459
974.2387	0.000044
974.4807	0.001459
974.7228	0.000065
974.9649	0.000593
975.2070	-0.001328
975.4491	0.001142
975.6912	0.000107
975.9333	0.001311
976.1755	0.000234
976.4176	0.000804
976.6597	0.000530
976.9019	-0.000062
977.1440	0.000382
977.3862	0.002282
977.6283	-0.000062
977.8705	0.001459
978.1127	-0.000505
978.3549	0.000762
978.5971	0.001353
978.8393	0.000234
979.0815	0.000403
979.3237	0.001036
979.5659	-0.000674
979.8082	0.000698
980.0504	-0.000420
980.2926	0.001100
980.5349	0.000361
980.7771	0.002387
981.0194	0.000635
981.2617	0.000825
981.5040	0.000720
981.7462	-0.000758
981.9885	-0.001012
982.2308	0.002071
982.4731	0.000952
982.7155	-0.000273
982.9578	-0.000209
983.2001	0.000445
983.4424	0.000297
983.6848	0.001437
983.9271	0.000445
984.1695	0.000656
984.4118	0.000888
984.6542	0.000297
984.8966	-0.000484
985.1390	0.001184
985.3814	0.000192
985.6238	0.000382
985.8662	0.000720
986.1086	0.000720
986.3510	0.001205
986.5934	0.001923
986.8358	0.000593
987.0783	0.001100
987.3207	0.000677
987.5632	0.000171
987.8056	0.000888
988.0481	0.001395
988.2906	-0.000315
988.5331	0.002556
988.7756	0.001247
989.0180	0.000551
989.2605	-0.000209
989.5031	0.000318
989.7456	-0.001476
989.9881	0.000150
990.2306	-0.000442
990.4732	0.000192
990.7157	-0.000442
990.9582	0.002704
991.2008	0.000804
991.4434	0.000318
991.6859	0.000065
991.9285	0.000234
992.1711	0.000213
992.4137	0.001374
992.6563	-0.000632
992.8989	0.001480
993.1415	0.001100
993.3841	0.000530
993.6267	0.000910
993.8694	-0.000442
994.1120	-0.001328
994.3547	0.000762
994.5973	0.001332
994.8400	0.000530
995.0826	0.001184
995.3253	0.000297
995.5680	-0.000188
995.8107	0.001184
996.0534	0.000572
996.2961	0.000107
996.5388	0.000741
996.7815	0.000107
997.0242	-0.000040
997.2670	0.000276
997.5097	-0.000273
997.7524	0.000530
997.9952	0.000656
998.2379	0.000551
998.4807	-0.002173
998.7235	0.000530
998.9662	-0.001687
999.2090	0.000171
999.4518	0.000572
999.6946	-0.000273
999.9374	0.003654
1000.1802	0.000171
1000.4230	0.001712
1000.6659	0.000825
1000.9087	0.000171
1001.1515	0.001247
1001.3944	0.000445
1001.6372	0.001395
1001.8801	0.000614
1002.1230	-0.000146
1002.3658	0.000255
1002.6087	0.000551
1002.8516	0.000910
1003.0945	0.000318
1003.3374	0.000635
1003.5803	-0.000357
1003.8232	0.000424
1004.0661	0.000150
1004.3091	0.000044
1004.5520	0.000867
1004.7949	0.000762
1005.0379	-0.000505
1005.2808	-0.000188
1005.5238	0.000150
1005.7667	0.000698
1006.0097	-0.000273
1006.2527	-0.000315
1006.4957	0.000128
1006.7387	0.000044
1006.9817	0.001585
1007.2247	-0.001159
1007.4677	-0.001582
1007.7107	0.000255
1007.9538	-0.001033
1008.1968	0.000445
1008.4398	-0.000230
1008.6829	0.000931
1008.9259	-0.000674
1009.1690	0.000720
1009.4121	-0.000547
1009.6551	0.000572
1009.8982	0.000973
1010.1413	0.000107
1010.3844	0.000192
1010.6275	0.000382
1010.8706	0.001121
1011.1137	0.001121
1011.3568	0.000741
1011.6000	0.000065
1011.8431	-0.000716
1012.0863	0.000825
1012.3294	0.001100
1012.5726	0.000213
1012.8157	-0.000969
1013.0589	0.000192
1013.3021	0.000276
1013.5452	-0.001012
1013.7884	0.000677
1014.0316	-0.000695
1014.2748	0.000086
1014.5180	0.000023
1014.7613	-0.000505
1015.0045	0.001163
1015.2477	0.000044
1015.4909	0.000804
1015.7342	0.000044
1015.9774	-0.000737
1016.2207	0.000128
1016.4640	0.000677
1016.7072	-0.000589
1016.9505	0.000783
1017.1938	0.000530
1017.4371	0.000677
1017.6804	0.000023
1017.9237	-0.000378
1018.1670	-0.000146
1018.4103	-0.000611
1018.6536	-0.000463
1018.8969	0.001627
1019.1403	0.001437
1019.3836	0.000171
1019.6270	0.000635
1019.8703	-0.000906
1020.1137	-0.000062
1020.3571	0.001205
1020.6004	-0.000589
1020.8438	-0.000336
1021.0872	0.000593
1021.3306	0.001311
1021.5740	0.000023
1021.8174	-0.000420
1022.0608	-0.000526
1022.3042	-0.000611
1022.5477	-0.000378
1022.7911	-0.000378
1023.0345	-0.000484
