# Wavelength (nm)	Intensity (a.u.)
197.7802	0.000498
197.9842	-0.000199
198.1882	0.000793
198.3922	-0.001106
198.5963	0.000392
198.8003	-0.000642
199.0044	0.000688
199.2085	-0.000009
199.4126	0.001131
199.6168	-0.000705
199.8209	0.001089
200.0251	-0.000030
200.2292	0.000350
200.4334	0.000688
200.6376	0.000667
200.8418	-0.000283
201.0461	0.000772
201.2503	-0.000030
201.4546	0.000266
201.6589	0.000751
201.8631	0.001891
202.0674	-0.000220
202.2718	0.000814
202.4761	-0.000600
202.6805	-0.000157
202.8848	-0.000072
203.0892	0.000772
203.2936	0.001047
203.4980	-0.000473
203.7024	-0.000178
203.9069	0.001427
204.1113	0.000730
204.3158	0.001511
204.5203	0.000646
204.7248	0.000308
204.9293	-0.001085
205.1338	0.000287
205.3384	0.000624
205.5430	0.000308
205.7475	0.000941
205.9521	0.000055
206.1567	0.000983
206.3614	0.000033
206.5660	0.000329
206.7706	0.000287
206.9753	-0.000410
207.1800	0.000582
207.3847	0.000667
207.5894	0.000118
207.7941	0.002165
207.9989	0.001237
208.2036	0.000266
208.4084	0.000751
208.6132	0.000076
208.8180	0.000624
209.0228	0.000941
209.2276	0.001870
209.4325	-0.000494
209.6373	0.000857
209.8422	-0.000410
210.0471	0.000878
210.2520	-0.000642
210.4569	0.001384
210.6618	0.001089
210.8668	0.000245
211.0718	0.001743
211.2767	0.000033
211.4817	0.000624
211.6867	0.001300
211.8918	0.000878
212.0968	0.000962
212.3018	0.000624
212.5069	0.000477
212.7120	0.000245
212.9171	-0.000093
213.1222	-0.000769
213.3273	0.000814
213.5325	0.000139
213.7376	-0.000790
213.9428	-0.000727
214.1480	0.000033
214.3532	0.000751
214.5584	0.002229
214.7636	0.000076
214.9689	0.001553
215.1741	0.001574
215.3794	0.001194
215.5847	0.000751
215.7900	0.002461
215.9953	0.000413
216.2007	0.001363
216.4060	0.001004
216.6114	0.000392
216.8168	-0.001296
217.0222	0.001047
217.2276	-0.000262
217.4330	-0.000368
217.6384	-0.000093
217.8439	0.000012
218.0494	0.000793
218.2548	-0.001106
218.4603	-0.000600
218.6659	0.000836
218.8714	0.000709
219.0769	0.000793
219.2825	-0.000093
219.4881	-0.000072
219.6936	-0.000220
219.8992	0.000287
220.1049	0.001258
220.3105	0.001173
220.5161	0.000477
220.7218	0.001933
220.9275	0.000646
221.1332	0.000371
221.3389	0.000160
221.5446	0.001701
221.7503	-0.000114
221.9561	0.001173
222.1618	0.000899
222.3676	0.000582
222.5734	0.000730
222.7792	0.000223
222.9850	0.000624
223.1909	-0.000579
223.3967	0.000012
223.6026	-0.000325
223.8085	-0.000051
224.0144	0.000139
224.2203	-0.000135
224.4262	-0.000368
224.6322	0.001216
224.8381	0.000434
225.0441	0.000350
225.2501	0.001785
225.4561	-0.000220
225.6621	0.001490
225.8681	0.000477
226.0742	0.001680
226.2802	0.000857
226.4863	0.000223
226.6924	0.001131
226.8985	0.000350
227.1046	0.001089
227.3107	0.000772
227.5169	0.000118
227.7230	0.000857
227.9292	0.001194
228.1354	0.001722
228.3416	-0.000515
228.5478	0.000308
228.7541	-0.000663
228.9603	0.001870
229.1666	-0.000494
229.3729	0.000392
229.5791	-0.000642
229.7855	-0.000347
229.9918	0.002060
230.1981	-0.000199
230.4045	-0.000093
230.6108	0.000202
230.8172	-0.000853
231.0236	0.000245
231.2300	0.001068
231.4364	0.000688
231.6429	0.001342
231.8493	0.000287
232.0558	0.000793
232.2623	0.000434
232.4688	0.000730
232.6753	0.000624
232.8818	0.000160
233.0884	0.001722
233.2949	-0.000072
233.5015	-0.000452
233.7081	0.000139
233.9147	0.000477
234.1213	-0.000241
234.3279	-0.000178
234.5346	-0.000241
234.7413	-0.000304
234.9479	0.000878
235.1546	0.001110
235.3613	0.000223
235.5680	0.000181
235.7748	-0.000642
235.9815	0.000329
236.1883	0.001469
236.3951	-0.000030
236.6018	0.000097
236.8087	0.001110
237.0155	0.001532
237.2223	0.001216
237.4292	0.000287
237.6360	0.001701
237.8429	-0.000431
238.0498	0.000836
238.2567	0.000076
238.4636	0.002018
238.6706	-0.000600
238.8775	0.000667
239.0845	-0.000262
239.2915	0.002292
239.4985	-0.000473
239.7055	0.000118
239.9125	0.000878
240.1195	0.000413
240.3266	-0.001866
240.5337	0.000012
240.7407	0.001701
240.9478	0.000392
241.1549	0.000308
241.3621	0.001490
241.5692	-0.000663
241.7764	0.000941
241.9835	0.000202
242.1907	0.002102
242.3979	-0.000030
242.6051	-0.000241
242.8124	0.001828
243.0196	-0.000093
243.2269	0.001047
243.4341	0.003073
243.6414	0.000709
243.8487	0.001173
244.0560	0.002947
244.2634	0.001047
244.4707	0.000582
244.6781	0.000287
244.8854	-0.000769
245.0928	0.000751
245.3002	-0.000157
245.5076	0.000287
245.7151	-0.001191
245.9225	0.000519
246.1300	0.000519
246.3375	-0.000769
246.5449	-0.000241
246.7524	0.000350
246.9600	-0.000600
247.1675	0.000730
247.3750	0.000181
247.5826	-0.000727
247.7902	-0.000621
247.9978	0.001152
248.2054	0.000245
248.4130	0.000836
248.6206	-0.000558
248.8283	0.001406
249.0359	0.001089
249.2436	0.000012
249.4513	0.000456
249.6590	0.000245
249.8667	-0.000157
250.0745	0.001828
250.2822	0.001131
250.4900	0.000899
250.6978	-0.000515
250.9056	0.000413
251.1134	0.001216
251.3212	0.000033
251.5290	-0.000410
251.7369	0.002419
251.9447	-0.000515
252.1526	0.002313
252.3605	-0.000093
252.5684	-0.001149
252.7763	0.001258
252.9843	0.000814
253.1922	-0.000009
253.4002	0.000498
253.6082	0.000456
253.8162	0.001194
254.0242	0.000899
254.2322	0.000371
254.4402	0.000266
254.6483	0.000688
254.8564	-0.001001
255.0644	0.000223
255.2725	0.000181
255.4806	0.000941
255.6888	-0.000684
255.8969	0.001743
256.1051	0.001532
256.3132	0.000350
256.5214	0.000540
256.7296	0.001828
256.9378	-0.000178
257.1460	0.000033
257.3543	0.000688
257.5625	0.000160
257.7708	-0.000325
257.9791	0.000097
258.1874	0.001089
258.3957	0.000097
258.6040	0.000793
258.8124	0.001279
259.0207	0.000371
259.2291	0.000434
259.4375	0.000688
259.6459	0.000941
259.8543	-0.000072
260.0627	0.000814
260.2711	0.000878
260.4796	0.000857
260.6881	-0.000135
260.8965	0.000181
261.1050	-0.000895
261.3135	0.000793
261.5221	-0.000241
261.7306	0.000202
261.9392	-0.000515
262.1477	0.001722
262.3563	0.000223
262.5649	-0.000241
262.7735	0.001047
262.9822	-0.000705
263.1908	0.000245
263.3995	0.000012
263.6081	0.001173
263.8168	0.000097
264.0255	0.000667
264.2342	-0.000072
264.4429	0.000899
264.6517	0.000287
264.8604	0.000561
265.0692	0.001532
265.2780	0.000709
265.4868	0.000941
265.6956	-0.000199
265.9044	0.000434
266.1133	0.001004
266.3221	0.000160
266.5310	0.000962
266.7399	0.001997
266.9488	-0.001254
267.1577	-0.000558
267.3666	-0.000114
267.5755	0.000983
267.7845	-0.000452
267.9935	0.000350
268.2024	0.000983
268.4114	0.000836
268.6205	0.000603
268.8295	0.001194
269.0385	0.000793
269.2476	0.000772
269.4566	0.001089
269.6657	0.000582
269.8748	-0.000748
270.0839	0.001300
270.2931	0.002081
270.5022	0.001216
270.7114	-0.000769
270.9205	0.000202
271.1297	0.001216
271.3389	0.000413
271.5481	0.000751
271.7573	0.001258
271.9666	0.000223
272.1758	-0.000452
272.3851	-0.001022
272.5944	0.001553
272.8037	-0.001381
273.0130	0.000498
273.2223	0.000434
273.4316	-0.000199
273.6410	0.001004
273.8504	0.000139
274.0597	0.001237
274.2691	0.001216
274.4785	0.000371
274.6880	0.000603
274.8974	0.001807
275.1069	0.000667
275.3163	0.000920
275.5258	-0.000009
275.7353	0.000793
275.9448	0.000350
276.1543	0.000603
276.3639	0.001680
276.5734	-0.000135
276.7830	0.001194
276.9926	0.000730
277.2022	0.001785
277.4118	0.001659
277.6214	0.000245
277.8310	-0.000558
278.0407	-0.000642
278.2503	0.000413
278.4600	0.000667
278.6697	-0.000410
278.8794	0.000582
279.0891	0.000012
279.2989	0.000456
279.5086	0.000097
279.7184	-0.000368
279.9281	0.000413
280.1379	0.000055
280.3477	0.000329
280.5576	0.000857
280.7674	0.000118
280.9772	0.000709
281.1871	0.000392
281.3970	0.000076
281.6069	0.000139
281.8168	0.001490
282.0267	-0.001444
282.2366	0.001004
282.4466	0.000139
282.6565	0.000033
282.8665	0.000223
283.0765	0.000350
283.2865	-0.001888
283.4965	0.001173
283.7065	0.000709
283.9166	-0.000494
284.1266	0.000793
284.3367	0.001785
284.5468	0.000266
284.7569	-0.000135
284.9670	0.000371
285.1771	0.000857
285.3873	-0.000072
285.5974	0.000118
285.8076	0.000245
286.0178	0.001427
286.2280	0.001448
286.4382	0.002039
286.6484	0.000793
286.8587	-0.000347
287.0689	0.000582
287.2792	0.001469
287.4895	0.000878
287.6998	0.000266
287.9101	-0.000452
288.1204	-0.000579
288.3308	0.000582
288.5411	0.000709
288.7515	0.000709
288.9619	0.001047
289.1723	-0.000684
289.3827	0.000899
289.5931	0.001089
289.8035	0.000456
290.0140	0.000245
290.2245	0.000667
290.4349	0.000667
290.6454	0.000857
290.8559	0.000814
291.0665	0.000624
291.2770	0.000329
291.4875	-0.000199
291.6981	-0.000916
291.9087	0.000582
292.1193	0.001089
292.3299	-0.000135
292.5405	0.001406
292.7511	-0.000114
292.9618	0.001131
293.1724	0.000097
293.3831	0.000561
293.5938	-0.000072
293.8045	0.000667
294.0152	0.000160
294.2260	0.000392
294.4367	-0.000431
294.6475	-0.000727
294.8582	0.000751
295.0690	-0.000389
295.2798	0.001279
295.4906	0.000561
295.7015	0.000667
295.9123	0.000899
296.1232	0.001427
296.3340	-0.000431
296.5449	0.000667
296.7558	0.000033
296.9667	0.000772
297.1777	-0.000072
297.3886	0.001321
297.5995	-0.000389
297.8105	0.001068
298.0215	0.000751
298.2325	0.000477
298.4435	-0.000959
298.6545	0.001342
298.8656	0.001110
299.0766	0.000498
299.2877	0.000329
299.4988	0.000667
299.7099	-0.000135
299.9210	0.001701
300.1321	0.000350
300.3432	-0.000093
300.5544	-0.000283
300.7655	-0.000473
300.9767	0.000097
301.1879	0.000730
301.3991	0.000139
301.6103	0.000329
301.8215	0.000097
302.0328	-0.000473
302.2441	0.000730
302.4553	0.002334
302.6666	-0.000494
302.8779	-0.000727
303.0892	-0.000938
303.3006	0.001807
303.5119	0.001532
303.7233	-0.001191
303.9346	0.000772
304.1460	0.000730
304.3574	-0.000811
304.5688	0.001026
304.7803	-0.000262
304.9917	0.000730
305.2031	0.001342
305.4146	0.000076
305.6261	0.001004
305.8376	0.001954
306.0491	0.001089
306.2606	-0.000051
306.4722	-0.000178
306.6837	0.001891
306.8953	0.000688
307.1069	0.000456
307.3184	0.000793
307.5301	0.000983
307.7417	0.000371
307.9533	0.001173
308.1650	0.001089
308.3766	0.001638
308.5883	0.001068
308.8000	-0.000600
309.0117	0.000730
309.2234	0.001912
309.4351	0.000519
309.6469	-0.000072
309.8586	0.000245
310.0704	0.000329
310.2822	-0.001064
310.4940	0.002355
310.7058	-0.000600
310.9176	0.001026
311.1295	-0.000748
311.3413	0.001363
311.5532	0.000941
311.7651	0.000055
311.9770	-0.000347
312.1889	0.002524
312.4008	0.001047
312.6127	-0.000325
312.8247	-0.000241
313.0366	0.001553
313.2486	0.000329
313.4606	0.000519
313.6726	-0.000389
313.8846	-0.000072
314.0967	0.000076
314.3087	0.000561
314.5208	-0.000853
314.7328	0.001490
314.9449	0.000899
315.1570	0.000561
315.3692	0.000012
315.5813	0.001954
315.7934	-0.000621
316.0056	0.000751
316.2177	-0.000241
316.4299	0.001321
316.6421	0.000118
316.8543	0.000751
317.0666	-0.000241
317.2788	0.001152
317.4911	0.000624
317.7033	-0.000705
317.9156	0.000730
318.1279	0.002693
318.3402	0.001089
318.5525	0.001279
318.7649	0.000076
318.9772	0.001342
319.1896	0.000223
319.4019	0.000857
319.6143	-0.000241
319.8267	0.000202
320.0392	-0.000621
320.2516	0.000983
320.4640	0.000814
320.6765	0.001596
320.8890	0.000983
321.1014	0.001638
321.3139	0.000371
321.5265	0.001047
321.7390	0.000814
321.9515	0.002018
322.1641	-0.000895
322.3766	-0.000093
322.5892	-0.000262
322.8018	0.001131
323.0144	0.000857
323.2270	0.000582
323.4397	0.000287
323.6523	0.000667
323.8650	0.000223
324.0777	0.000202
324.2904	-0.000241
324.5031	-0.000135
324.7158	0.000941
324.9285	0.000814
325.1412	-0.000621
325.3540	0.001216
325.5668	0.000371
325.7796	-0.000157
325.9924	-0.000178
326.2052	0.000793
326.4180	0.000329
326.6308	0.001363
326.8437	0.001764
327.0566	0.001237
327.2694	0.000139
327.4823	0.000709
327.6952	0.000160
327.9082	0.001722
328.1211	-0.000347
328.3340	0.000667
328.5470	0.001089
328.7600	0.000582
328.9730	0.000688
329.1860	0.000709
329.3990	0.000836
329.6120	0.001406
329.8251	0.000392
330.0381	0.001237
330.2512	-0.000178
330.4643	-0.000241
330.6774	-0.000135
330.8905	0.001216
331.1036	0.000160
331.3167	0.000097
331.5299	0.000308
331.7431	0.001975
331.9562	0.001490
332.1694	-0.000199
332.3826	0.000814
332.5959	0.000624
332.8091	0.000139
333.0223	-0.000114
333.2356	-0.000347
333.4489	0.000287
333.6622	0.001279
333.8755	0.000582
334.0888	0.000582
334.3021	0.000793
334.5154	0.001532
334.7288	0.000498
334.9422	0.001300
335.1555	0.000793
335.3689	0.000413
335.5823	0.001173
335.7958	0.000709
336.0092	0.001828
336.2227	-0.000051
336.4361	0.000245
336.6496	0.000646
336.8631	0.000519
337.0766	0.001089
337.2901	-0.000241
337.5036	0.001553
337.7172	0.000245
337.9307	-0.000072
338.1443	0.001110
338.3579	0.000329
338.5715	0.000350
338.7851	0.000160
338.9987	-0.000009
339.2124	-0.000051
339.4260	-0.000515
339.6397	0.000287
339.8533	0.000878
340.0670	0.000857
340.2807	0.000899
340.4945	0.001511
340.7082	0.000667
340.9219	-0.000748
341.1357	0.001004
341.3495	-0.000769
341.5633	0.000055
341.7771	0.000181
341.9909	0.002271
342.2047	0.000413
342.4185	0.001870
342.6324	0.000118
342.8463	0.000266
343.0601	-0.000304
343.2740	0.001152
343.4879	0.000751
343.7019	0.000730
343.9158	0.000962
344.1297	-0.000093
344.3437	-0.000558
344.5577	0.000751
344.7717	0.000730
344.9857	0.002292
345.1997	0.000646
345.4137	0.001047
345.6277	0.000118
345.8418	0.000055
346.0559	0.000878
346.2699	0.000561
346.4840	-0.001296
346.6981	-0.000030
346.9123	0.000181
347.1264	0.002039
347.3406	0.000540
347.5547	0.002377
347.7689	-0.000558
347.9831	0.001448
348.1973	-0.000895
348.4115	0.000962
348.6257	-0.001085
348.8400	0.000477
349.0542	0.000266
349.2685	-0.000621
349.4828	-0.000431
349.6971	-0.000135
349.9114	0.001173
350.1257	0.000793
350.3400	0.000836
350.5544	-0.000515
350.7687	-0.001022
350.9831	-0.000220
351.1975	-0.000178
351.4119	0.000793
351.6263	-0.000790
351.8407	0.000603
352.0552	0.000202
352.2696	0.002250
352.4841	-0.000368
352.6986	-0.000304
352.9131	-0.000283
353.1276	0.000477
353.3421	-0.000558
353.5566	0.001532
353.7712	-0.001613
353.9858	0.000709
354.2003	0.001997
354.4149	0.000055
354.6295	-0.000009
354.8441	0.001216
355.0588	0.001553
355.2734	-0.000178
355.4881	0.000033
355.7027	0.001722
355.9174	0.000097
356.1321	0.001216
356.3468	0.001954
356.5615	0.000751
356.7763	0.000498
356.9910	0.000962
357.2058	-0.001296
357.4206	-0.000452
357.6353	0.000857
357.8501	-0.000030
358.0650	-0.000452
358.2798	0.000392
358.4946	-0.000220
358.7095	0.001026
358.9243	-0.000262
359.1392	0.001427
359.3541	0.000076
359.5690	0.000350
359.7839	0.001131
359.9989	-0.000684
360.2138	-0.000494
360.4288	0.001068
360.6438	0.000582
360.8587	-0.000178
361.0737	0.000920
361.2888	0.000709
361.5038	-0.000558
361.7188	-0.000051
361.9339	0.000519
362.1489	0.000245
362.3640	-0.000642
362.5791	0.000287
362.7942	0.000793
363.0093	-0.000684
363.2245	0.000646
363.4396	0.002102
363.6548	-0.000980
363.8699	0.000139
364.0851	-0.000009
364.3003	0.001173
364.5155	-0.000093
364.7308	0.001279
364.9460	-0.000980
365.1612	0.001891
365.3765	0.000245
365.5918	0.000582
365.8071	-0.000938
366.0224	0.000498
366.2377	-0.001001
366.4530	0.000202
366.6684	-0.000410
366.8837	0.001638
367.0991	0.000540
367.3145	0.000245
367.5299	0.000287
367.7453	-0.001254
367.9607	-0.000452
368.1761	0.000413
368.3916	-0.001275
368.6070	0.000624
368.8225	0.001004
369.0380	0.000561
369.2535	0.001194
369.4690	0.001258
369.6845	-0.000135
369.9001	0.000941
370.1156	-0.000980
370.3312	0.001279
370.5468	0.000097
370.7624	0.000878
370.9780	0.000688
371.1936	0.001511
371.4092	0.001448
371.6249	0.000730
371.8405	0.000139
372.0562	0.001574
372.2719	0.000498
372.4876	0.000582
372.7033	0.001321
372.9190	0.000139
373.1348	0.000814
373.3505	0.001384
373.5663	-0.000727
373.7820	0.001532
373.9978	0.000266
374.2136	0.000751
374.4294	0.000181
374.6453	0.000329
374.8611	0.000561
375.0770	0.000498
375.2928	-0.000093
375.5087	0.000582
375.7246	0.001532
375.9405	0.001194
376.1564	0.000118
376.3724	-0.000790
376.5883	0.000582
376.8043	0.002355
377.0203	0.000603
377.2362	0.001342
377.4522	0.000456
377.6682	0.001511
377.8843	0.000751
378.1003	-0.000241
378.3164	0.001363
378.5324	0.000519
378.7485	-0.000537
378.9646	0.001110
379.1807	-0.000157
379.3968	0.000772
379.6129	0.000624
379.8291	0.001553
380.0452	0.000667
380.2614	0.001047
380.4776	0.000751
380.6938	0.002039
380.9100	0.000012
381.1262	0.001237
381.3424	0.000540
381.5587	0.000920
381.7749	-0.000135
381.9912	0.001089
382.2075	-0.000262
382.4238	0.000561
382.6401	0.001173
382.8564	0.000751
383.0728	-0.000811
383.2891	0.000160
383.5055	0.000118
383.7219	0.001173
383.9382	0.000266
384.1546	0.000709
384.3711	-0.000895
384.5875	0.001448
384.8039	0.001342
385.0204	0.002271
385.2368	0.001047
385.4533	0.000519
385.6698	-0.000916
385.8863	0.000519
386.1028	0.000751
386.3194	0.000983
386.5359	0.001131
386.7525	0.000097
386.9690	0.000688
387.1856	0.002820
387.4022	0.000941
387.6188	0.000983
387.8355	0.001237
388.0521	0.001849
388.2687	-0.000748
388.4854	0.000012
388.7021	0.001912
388.9188	0.001026
389.1355	0.001342
389.3522	0.001237
389.5689	0.001173
389.7856	0.001194
390.0024	0.001448
390.2192	0.000857
390.4359	0.002102
390.6527	0.001997
390.8695	0.000772
391.0863	0.002947
391.3032	0.001173
391.5200	0.002187
391.7369	0.002778
391.9537	0.000308
392.1706	0.001975
392.3875	0.002377
392.6044	0.004086
392.8213	0.002693
393.0383	0.003749
393.2552	0.002968
393.4722	0.001406
393.6891	0.004825
393.9061	0.002461
394.1231	0.003812
394.3401	0.002461
394.5572	0.002904
394.7742	0.001574
394.9912	0.006176
395.2083	0.004023
395.4254	0.005691
395.6425	0.003854
395.8596	0.004108
396.0767	0.004340
396.2938	0.006134
396.5109	0.003474
396.7281	0.006155
396.9453	0.005015
397.1624	0.004720
397.3796	0.005374
397.5968	0.005670
397.8140	0.006725
398.0313	0.005817
398.2485	0.006894
398.4658	0.006113
398.6830	0.006345
398.9003	0.008097
399.1176	0.005606
399.3349	0.008414
399.5522	0.007379
399.7696	0.007168
399.9869	0.006767
400.2043	0.007295
400.4216	0.008794
400.6390	0.007548
400.8564	0.008034
401.0738	0.007358
401.2912	0.006345
401.5087	0.007464
401.7261	0.007907
401.9436	0.007506
402.1610	0.007105
402.3785	0.008477
402.5960	0.009300
402.8135	0.008604
403.0310	0.009132
403.2486	0.007253
403.4661	0.008920
403.6837	0.009005
403.9013	0.008519
404.1189	0.008730
404.3365	0.009300
404.5541	0.009913
404.7717	0.009976
404.9893	0.010208
405.2070	0.010736
405.4246	0.012319
405.6423	0.010820
405.8600	0.012171
406.0777	0.012467
406.2954	0.010314
406.5131	0.010905
406.7309	0.011369
406.9486	0.011411
407.1664	0.011242
407.3842	0.011327
407.6020	0.010968
407.8198	0.011939
408.0376	0.010461
408.2554	0.012425
408.4733	0.011559
408.6911	0.012488
408.9090	0.011728
409.1269	0.013184
409.3448	0.012045
409.5627	0.010905
409.7806	0.014134
409.9985	0.012572
410.2165	0.013839
410.4344	0.012847
410.6524	0.014451
410.8704	0.013881
411.0884	0.014092
411.3064	0.013881
411.5244	0.013079
411.7424	0.013248
411.9605	0.015127
412.1785	0.016604
412.3966	0.014219
412.6147	0.015317
412.8328	0.014261
413.0509	0.016435
413.2690	0.013269
413.4871	0.015232
413.7053	0.015507
413.9234	0.014282
414.1416	0.014557
414.3598	0.016414
414.5780	0.015549
414.7962	0.015950
415.0144	0.015295
415.2326	0.017301
415.4509	0.018145
415.6692	0.015950
415.8874	0.014873
416.1057	0.016921
416.3240	0.016309
416.5423	0.015190
416.7606	0.017026
416.9790	0.015549
417.1973	0.015359
417.4157	0.018821
417.6341	0.016456
417.8524	0.015591
418.0708	0.017343
418.2893	0.017723
418.5077	0.017385
418.7261	0.016351
418.9446	0.018251
419.1630	0.017301
419.3815	0.018187
419.6000	0.017829
419.8185	0.018483
420.0370	0.019306
420.2555	0.020383
420.4741	0.020573
420.6926	0.020594
420.9112	0.020953
421.1298	0.020362
421.3483	0.023211
421.5669	0.022346
421.7856	0.021860
422.0042	0.022958
422.2228	0.023232
422.4415	0.020805
422.6601	0.021692
422.8788	0.022198
423.0975	0.023317
423.3162	0.022979
423.5349	0.021438
423.7536	0.022409
423.9724	0.024119
424.1911	0.021565
424.4099	0.022409
424.6287	0.021966
424.8475	0.021755
425.0663	0.020193
425.2851	0.021713
425.5039	0.022916
425.7228	0.021333
425.9416	0.019749
426.1605	0.020552
426.3793	0.021860
426.5982	0.019876
426.8171	0.020277
427.0361	0.021037
427.2550	0.021797
427.4739	0.021692
427.6929	0.022451
427.9118	0.021924
428.1308	0.022451
428.3498	0.022747
428.5688	0.023634
428.7878	0.023528
429.0068	0.022578
429.2259	0.021058
429.4449	0.020383
429.6640	0.025829
429.8831	0.023676
430.1022	0.026779
430.3213	0.026019
430.5404	0.027855
430.7595	0.026631
430.9787	0.028425
431.1978	0.023676
431.4170	0.023950
431.6362	0.022958
431.8553	0.021248
432.0745	0.022874
432.2938	0.021037
432.5130	0.021016
432.7322	0.023127
432.9515	0.020615
433.1707	0.022409
433.3900	0.023781
433.6093	0.025787
433.8286	0.025998
434.0479	0.026504
434.2673	0.022620
434.4866	0.023465
434.7059	0.023655
434.9253	0.021290
435.1447	0.023254
435.3641	0.024394
435.5835	0.023317
435.8029	0.023127
436.0223	0.025660
436.2418	0.022916
436.4612	0.024415
436.6807	0.023254
436.9001	0.024583
437.1196	0.024182
437.3391	0.024583
437.5586	0.025238
437.7782	0.022367
437.9977	0.023718
438.2173	0.024900
438.4368	0.023950
438.6564	0.023296
438.8760	0.026019
439.0956	0.025069
439.3152	0.023507
439.5348	0.024204
439.7545	0.024731
439.9741	0.023486
440.1938	0.023021
440.4135	0.024668
440.6331	0.024478
440.8528	0.023971
441.0725	0.026716
441.2923	0.028826
441.5120	0.028278
441.7318	0.030283
441.9515	0.027264
442.1713	0.028869
442.3911	0.029713
442.6109	0.027222
442.8307	0.025576
443.0505	0.027328
443.2703	0.025428
443.4902	0.027138
443.7101	0.029312
443.9299	0.024963
444.1498	0.027813
444.3697	0.026420
444.5896	0.027729
444.8095	0.024204
445.0295	0.026378
445.2494	0.026251
445.4694	0.025702
445.6894	0.027074
445.9093	0.026990
446.1293	0.027961
446.3493	0.024288
446.5694	0.025491
446.7894	0.025217
447.0094	0.026462
447.2295	0.025196
447.4496	0.024583
447.6696	0.023486
447.8897	0.024583
448.1098	0.025808
448.3300	0.024119
448.5501	0.023866
448.7702	0.024267
448.9904	0.024837
449.2106	0.023254
449.4307	0.023549
449.6509	0.024394
449.8711	0.023908
450.0914	0.023380
450.3116	0.023718
450.5318	0.024098
450.7521	0.024246
450.9724	0.023570
451.1926	0.021903
451.4129	0.022050
451.6332	0.021987
451.8535	0.020108
452.0739	0.022641
452.2942	0.019496
452.5146	0.020214
452.7349	0.020425
452.9553	0.019771
453.1757	0.020341
453.3961	0.020362
453.6165	0.020298
453.8369	0.020678
454.0574	0.018715
454.2778	0.020615
454.4983	0.017575
454.7188	0.018040
454.9393	0.019876
455.1597	0.017850
455.3803	0.017850
455.6008	0.020362
455.8213	0.018778
456.0419	0.019201
456.2624	0.018145
456.4830	0.019961
456.7036	0.018314
456.9242	0.017744
457.1448	0.017892
457.3654	0.018968
457.5860	0.020045
457.8067	0.018293
458.0274	0.019116
458.2480	0.020425
458.4687	0.019855
458.6894	0.020636
458.9101	0.019116
459.1308	0.018082
459.3516	0.017892
459.5723	0.018610
459.7931	0.018821
460.0138	0.019559
460.2346	0.015865
460.4554	0.020214
460.6762	0.016879
460.8970	0.018525
461.1178	0.018314
461.3387	0.018926
461.5595	0.016351
461.7804	0.015992
462.0013	0.016182
462.2222	0.016055
462.4431	0.013206
462.6640	0.015633
462.8849	0.016055
463.1059	0.014514
463.3268	0.014177
463.5478	0.014704
463.7687	0.018061
463.9897	0.016604
464.2107	0.015528
464.4317	0.015886
464.6528	0.016161
464.8738	0.017005
465.0948	0.015844
465.3159	0.016034
465.5370	0.016351
465.7581	0.017259
465.9792	0.017259
466.2003	0.015760
466.4214	0.017829
466.6425	0.014894
466.8637	0.012783
467.0848	0.013311
467.3060	0.011475
467.5272	0.012805
467.7484	0.012066
467.9696	0.011644
468.1908	0.011833
468.4120	0.011749
468.6333	0.012023
468.8545	0.011644
469.0758	0.010694
469.2970	0.011221
469.5183	0.010862
469.7396	0.008942
469.9610	0.009533
470.1823	0.008435
470.4036	0.009807
470.6250	0.010799
470.8463	0.010926
471.0677	0.009638
471.2891	0.009701
471.5105	0.009279
471.7319	0.010081
471.9533	0.008667
472.1748	0.009321
472.3962	0.008435
472.6177	0.007675
472.8391	0.008583
473.0606	0.008097
473.2821	0.009828
473.5036	0.009448
473.7251	0.007612
473.9467	0.008942
474.1682	0.010145
474.3898	0.007781
474.6113	0.009047
474.8329	0.008562
475.0545	0.008562
475.2761	0.008730
475.4977	0.010124
475.7193	0.007675
475.9410	0.008815
476.1626	0.008414
476.3843	0.008878
476.6060	0.009427
476.8277	0.008625
477.0494	0.007464
477.2711	0.007717
477.4928	0.007844
477.7145	0.006999
477.9363	0.010018
478.1580	0.007633
478.3798	0.008139
478.6016	0.008160
478.8234	0.006852
479.0452	0.008308
479.2670	0.007527
479.4888	0.005036
479.7107	0.008182
479.9325	0.006873
480.1544	0.006451
480.3763	0.009068
480.5982	0.008350
480.8201	0.006915
481.0420	0.006641
481.2639	0.007865
481.4859	0.007633
481.7078	0.007992
481.9298	0.006324
482.1517	0.006240
482.3737	0.006197
482.5957	0.008709
482.8177	0.007253
483.0398	0.006176
483.2618	0.007105
483.4838	0.006535
483.7059	0.004677
483.9280	0.006050
484.1501	0.007591
484.3721	0.007717
484.5943	0.007907
484.8164	0.006345
485.0385	0.006535
485.2606	0.005543
485.4828	0.008773
485.7050	0.014092
485.9271	0.020720
486.1493	0.018652
486.3715	0.016963
486.5937	0.014008
486.8160	0.012868
487.0382	0.010968
487.2605	0.010166
487.4827	0.008287
487.7050	0.006007
487.9273	0.006028
488.1496	0.006704
488.3719	0.005923
488.5942	0.005754
488.8165	0.004825
489.0389	0.006767
489.2612	0.006113
489.4836	0.005459
489.7060	0.004846
489.9284	0.005564
490.1508	0.004297
490.3732	0.004319
490.5956	0.005311
490.8180	0.005142
491.0405	0.003643
491.2630	0.004361
491.4854	0.003432
491.7079	0.005374
491.9304	0.004234
492.1529	0.005564
492.3755	0.004023
492.5980	0.004297
492.8205	0.005015
493.0431	0.004952
493.2657	0.004150
493.4882	0.004234
493.7108	0.002968
493.9334	0.006197
494.1561	0.003854
494.3787	0.004994
494.6013	0.003875
494.8240	0.003685
495.0466	0.003833
495.2693	0.003643
495.4920	0.003770
495.7147	0.005585
495.9374	0.003432
496.1601	0.004129
496.3829	0.005860
496.6056	0.004255
496.8284	0.004530
497.0511	0.003770
497.2739	0.004319
497.4967	0.004213
497.7195	0.003875
497.9423	0.003812
498.1652	0.005501
498.3880	0.004065
498.6109	0.003622
498.8337	0.005691
499.0566	0.003706
499.2795	0.005057
499.5024	0.004720
499.7253	0.004297
499.9482	0.003854
500.1712	0.003453
500.3941	0.002862
500.6171	0.001891
500.8400	0.002482
501.0630	0.004762
501.2860	0.003031
501.5090	0.003432
501.7320	0.003369
501.9551	0.002672
502.1781	0.003770
502.4012	0.004994
502.6242	0.002250
502.8473	0.002651
503.0704	0.003664
503.2935	0.004108
503.5166	0.004297
503.7397	0.002714
503.9628	0.003896
504.1860	0.003685
504.4092	0.003115
504.6323	0.003538
504.8555	0.003896
505.0787	0.004720
505.3019	0.002630
505.5251	0.003960
505.7483	0.001448
505.9716	0.001638
506.1948	0.003221
506.4181	0.003706
506.6414	0.001701
506.8647	0.003305
507.0880	0.002630
507.3113	0.004192
507.5346	0.003158
507.7579	0.003812
507.9813	0.002440
508.2046	0.002334
508.4280	0.002799
508.6514	0.004445
508.8748	0.003918
509.0982	0.003284
509.3216	0.002292
509.5450	0.002989
509.7685	0.002651
509.9919	0.002651
510.2154	0.002545
510.4388	0.003538
510.6623	0.004635
510.8858	0.005036
511.1093	0.002229
511.3329	0.003432
511.5564	0.001975
511.7799	0.002778
512.0035	0.003010
512.2270	0.003770
512.4506	0.002292
512.6742	0.004213
512.8978	0.002630
513.1214	0.003685
513.3451	0.002588
513.5687	0.003453
513.7923	0.002630
514.0160	0.003706
514.2397	0.003073
514.4634	0.003728
514.6871	0.003094
514.9108	0.003516
515.1345	0.003179
515.3582	0.003812
515.5819	0.001828
515.8057	0.003031
516.0295	0.003390
516.2532	0.004044
516.4770	0.002841
516.7008	0.001089
516.9246	0.002039
517.1485	0.002968
517.3723	0.002588
517.5961	0.002989
517.8200	0.003390
518.0439	0.003073
518.2677	0.003390
518.4916	0.002292
518.7155	0.002925
518.9395	0.003073
519.1634	0.003474
519.3873	0.004171
519.6113	0.002947
519.8352	0.004382
520.0592	0.002440
520.2832	0.002377
520.5072	0.002757
520.7312	0.003812
520.9552	0.003284
521.1792	0.003263
521.4033	0.003369
521.6273	0.003833
521.8514	0.002651
522.0755	0.003875
522.2996	0.004297
522.5237	0.004108
522.7478	0.002187
522.9719	0.003263
523.1960	0.003305
523.4202	0.005100
523.6443	0.002229
523.8685	0.002735
524.0927	0.002968
524.3169	0.003200
524.5411	0.003643
524.7653	0.002229
524.9895	0.005838
525.2138	0.001891
525.4380	0.004424
525.6623	0.003791
525.8865	0.005522
526.1108	0.003305
526.3351	0.004424
526.5594	0.003516
526.7837	0.005944
527.0081	0.004910
527.2324	0.004445
527.4568	0.003643
527.6811	0.004086
527.9055	0.004192
528.1299	0.006261
528.3543	0.004297
528.5787	0.005416
528.8031	0.005754
529.0276	0.004699
529.2520	0.005057
529.4765	0.006430
529.7009	0.004297
529.9254	0.005142
530.1499	0.005247
530.3744	0.005796
530.5989	0.005057
530.8234	0.005437
531.0480	0.005015
531.2725	0.005480
531.4971	0.003854
531.7217	0.007105
531.9462	0.005226
532.1708	0.005648
532.3954	0.006155
532.6200	0.005247
532.8447	0.005311
533.0693	0.006155
533.2940	0.006261
533.5186	0.008393
533.7433	0.006725
533.9680	0.008287
534.1927	0.007696
534.4174	0.006387
534.6421	0.008477
534.8668	0.007971
535.0916	0.008963
535.3163	0.008245
535.5411	0.007232
535.7659	0.008097
535.9907	0.008034
536.2155	0.007464
536.4403	0.008055
536.6651	0.008308
536.8899	0.006451
537.1148	0.006915
537.3396	0.008308
537.5645	0.008393
537.7894	0.007569
538.0143	0.009110
538.2392	0.008540
538.4641	0.009617
538.6890	0.009913
538.9139	0.011285
539.1389	0.009195
539.3638	0.010736
539.5888	0.011074
539.8138	0.010335
540.0388	0.011200
540.2638	0.009828
540.4888	0.010905
540.7138	0.010799
540.9389	0.010419
541.1639	0.010525
541.3890	0.012720
541.6140	0.011179
541.8391	0.011010
542.0642	0.012551
542.2893	0.013016
542.5144	0.012699
542.7396	0.012741
542.9647	0.013839
543.1899	0.011981
543.4150	0.012910
543.6402	0.014641
543.8654	0.015190
544.0906	0.015169
544.3158	0.015253
544.5410	0.012973
544.7662	0.015253
544.9915	0.014388
545.2167	0.016646
545.4420	0.015063
545.6673	0.015528
545.8926	0.012171
546.1179	0.014493
546.3432	0.013797
546.5685	0.013269
546.7938	0.014768
547.0192	0.014303
547.2445	0.014873
547.4699	0.015612
547.6953	0.017343
547.9206	0.018567
548.1460	0.019538
548.3715	0.019602
548.5969	0.018208
548.8223	0.019327
549.0478	0.017216
549.2732	0.019686
549.4987	0.016858
549.7242	0.018800
549.9496	0.017491
550.1751	0.019011
550.4007	0.018546
550.6262	0.017786
550.8517	0.017997
551.0773	0.017997
551.3028	0.017195
551.5284	0.019855
551.7540	0.020172
551.9796	0.023169
552.2052	0.021860
552.4308	0.020910
552.6564	0.020615
552.8820	0.022726
553.1077	0.021185
553.3333	0.021713
553.5590	0.023401
553.7847	0.023275
554.0104	0.023211
554.2361	0.024182
554.4618	0.022198
554.6875	0.021945
554.9132	0.022008
555.1390	0.021649
555.3648	0.022557
555.5905	0.023317
555.8163	0.026420
556.0421	0.026547
556.2679	0.024710
556.4937	0.025280
556.7195	0.025512
556.9454	0.025766
557.1712	0.024457
557.3971	0.025090
557.6230	0.026103
557.8488	0.024647
558.0747	0.027454
558.3006	0.026441
558.5266	0.024668
558.7525	0.025597
558.9784	0.023718
559.2044	0.026652
559.4303	0.025175
559.6563	0.025744
559.8823	0.026146
560.1083	0.028341
560.3343	0.028130
560.5603	0.031613
560.7863	0.031972
561.0124	0.033703
561.2384	0.033914
561.4645	0.035223
561.6905	0.033470
561.9166	0.035075
562.1427	0.031908
562.3688	0.031550
562.5949	0.033745
562.8211	0.032626
563.0472	0.033069
563.2733	0.034716
563.4995	0.034357
563.7257	0.035497
563.9519	0.036996
564.1781	0.035687
564.4043	0.036257
564.6305	0.037523
564.8567	0.038220
565.0829	0.039782
565.3092	0.039064
565.5355	0.039761
565.7617	0.038600
565.9880	0.040458
566.2143	0.040415
566.4406	0.042822
566.6669	0.041471
566.8932	0.043561
567.1196	0.043920
567.3459	0.048247
567.5723	0.052405
567.7987	0.051266
568.0250	0.055846
568.2514	0.055931
568.4778	0.060511
568.7043	0.063066
568.9307	0.065852
569.1571	0.070918
569.3836	0.076639
569.6100	0.082571
569.8365	0.091964
570.0630	0.099732
570.2895	0.101696
570.5160	0.105242
570.7425	0.104651
570.9690	0.108345
571.1956	0.117274
571.4221	0.124219
571.6487	0.122868
571.8752	0.130404
572.1018	0.134352
572.3284	0.133486
572.5550	0.127892
572.7816	0.118034
573.0082	0.113939
573.2349	0.120525
573.4615	0.133549
573.6882	0.147714
573.9149	0.153033
574.1415	0.159155
574.3682	0.164369
574.5949	0.169245
574.8216	0.169034
575.0484	0.175346
575.2751	0.173172
575.5018	0.170828
575.7286	0.163525
575.9554	0.160210
576.1821	0.158353
576.4089	0.160633
576.6357	0.169393
576.8626	0.180264
577.0894	0.181615
577.3162	0.185922
577.5431	0.191853
577.7699	0.210704
577.9968	0.245112
578.2237	0.237027
578.4505	0.227042
578.6774	0.212371
578.9044	0.198629
579.1313	0.190988
579.3582	0.190587
579.5851	0.195378
579.8121	0.201437
580.0391	0.207242
580.2660	0.206461
580.4930	0.209142
580.7200	0.198186
580.9470	0.203569
581.1741	0.238146
581.4011	0.283003
581.6281	0.313274
581.8552	0.313105
582.0822	0.311817
582.3093	0.301727
582.5364	0.282074
582.7635	0.257862
582.9906	0.238526
583.2177	0.221470
583.4449	0.208846
583.6720	0.198714
583.8991	0.190544
584.1263	0.194450
584.3535	0.194006
584.5807	0.197236
584.8079	0.209944
585.0351	0.224573
585.2623	0.229765
585.4895	0.236478
585.7167	0.227338
585.9440	0.226536
586.1713	0.214398
586.3985	0.199389
586.6258	0.200825
586.8531	0.195801
587.0804	0.212477
587.3077	0.221005
587.5350	0.229744
587.7624	0.227591
587.9897	0.210957
588.2171	0.203653
588.4445	0.200635
588.6718	0.193310
588.8992	0.187273
589.1266	0.175472
589.3540	0.168675
589.5815	0.160970
589.8089	0.166628
590.0363	0.162110
590.2638	0.151281
590.4913	0.149044
590.7187	0.140769
590.9462	0.136821
591.1737	0.128483
591.4012	0.130299
591.6288	0.132135
591.8563	0.133275
592.0838	0.130088
592.3114	0.132452
592.5389	0.151809
592.7665	0.179990
592.9941	0.196476
593.2217	0.199811
593.4493	0.200128
593.6769	0.200529
593.9046	0.193436
594.1322	0.182628
594.3598	0.169520
594.5875	0.168443
594.8152	0.179589
595.0429	0.194872
595.2705	0.199009
595.4983	0.191917
595.7260	0.179779
595.9537	0.167958
596.1814	0.166417
596.4092	0.156432
596.6369	0.146384
596.8647	0.138341
597.0925	0.144442
597.3203	0.146869
597.5481	0.148875
597.7759	0.149529
598.0037	0.144822
598.2315	0.139840
598.4594	0.140917
598.6872	0.156960
598.9151	0.174691
599.1430	0.182249
599.3709	0.182080
599.5988	0.174544
599.8267	0.177225
600.0546	0.180771
600.2825	0.185394
600.5105	0.183557
600.7384	0.178386
600.9664	0.184444
601.1944	0.187315
601.4223	0.184444
601.6503	0.173678
601.8783	0.169140
602.1064	0.166543
602.3344	0.166691
602.5624	0.165530
602.7905	0.169752
603.0185	0.173319
603.2466	0.181024
603.4747	0.187336
603.7028	0.191199
603.9309	0.184001
604.1590	0.171504
604.3871	0.166163
604.6152	0.165319
604.8434	0.155186
605.0715	0.158923
605.2997	0.158078
605.5279	0.166058
605.7561	0.171546
605.9843	0.173615
606.2125	0.176845
606.4407	0.164242
606.6689	0.156749
606.8972	0.154701
607.1254	0.157825
607.3537	0.156136
607.5819	0.156981
607.8102	0.158226
608.0385	0.158163
608.2668	0.149846
608.4951	0.144843
608.7235	0.146553
608.9518	0.143049
609.1801	0.138573
609.4085	0.133676
609.6369	0.130615
609.8653	0.141170
610.0936	0.149424
610.3220	0.150775
610.5505	0.147144
610.7789	0.141107
611.0073	0.138025
611.2357	0.139333
611.4642	0.137476
611.6927	0.141064
611.9211	0.139608
612.1496	0.138299
612.3781	0.127681
612.6066	0.128631
612.8351	0.128061
613.0637	0.126098
613.2922	0.128547
613.5208	0.126161
613.7493	0.128188
613.9779	0.126921
614.2065	0.128209
614.4351	0.122066
614.6637	0.125950
614.8923	0.124093
615.1209	0.127871
615.3495	0.126837
615.5782	0.131671
615.8068	0.132726
616.0355	0.126795
616.2642	0.119470
616.4929	0.111321
616.7216	0.113242
616.9503	0.111659
617.1790	0.109443
617.4077	0.111005
617.6365	0.108936
617.8652	0.110625
618.0940	0.109189
618.3227	0.106445
618.5515	0.104545
618.7803	0.097094
619.0091	0.091394
619.2379	0.087975
619.4667	0.087151
619.6956	0.088903
619.9244	0.094518
620.1533	0.099078
620.3821	0.098128
620.6110	0.098318
620.8399	0.087510
621.0688	0.081156
621.2977	0.072797
621.5266	0.074908
621.7556	0.077927
621.9845	0.083858
622.2135	0.080692
622.4424	0.082106
622.6714	0.083288
622.9004	0.087700
623.1294	0.085505
623.3584	0.090909
623.5874	0.089072
623.8164	0.089748
624.0454	0.087194
624.2745	0.089072
624.5035	0.088418
624.7326	0.091669
624.9617	0.091690
625.1908	0.086708
625.4199	0.082908
625.6490	0.081811
625.8781	0.081072
626.1072	0.081199
626.3364	0.074528
626.5655	0.071805
626.7947	0.069187
627.0238	0.070433
627.2530	0.070412
627.4822	0.072438
627.7114	0.072016
627.9406	0.067161
628.1698	0.066063
628.3991	0.060701
628.6283	0.060427
628.8576	0.057683
629.0868	0.059920
629.3161	0.061820
629.5454	0.063783
629.7747	0.061208
630.0040	0.062939
630.2333	0.059709
630.4626	0.057577
630.6920	0.058422
630.9213	0.057725
631.1507	0.054728
631.3801	0.051962
631.6094	0.052026
631.8388	0.054263
632.0682	0.052659
632.2976	0.052131
632.5271	0.050231
632.7565	0.046959
632.9859	0.045841
633.2154	0.048163
633.4448	0.043139
633.6743	0.045883
633.9038	0.042906
634.1333	0.043518
634.3628	0.043012
634.5923	0.044532
634.8218	0.042062
635.0514	0.041534
635.2809	0.041344
635.5105	0.043033
635.7400	0.040458
635.9696	0.043772
636.1992	0.042906
636.4288	0.046242
636.6584	0.045798
636.8880	0.045207
637.1177	0.042273
637.3473	0.042273
637.5770	0.041471
637.8066	0.040120
638.0363	0.041872
638.2660	0.040099
638.4957	0.042062
638.7254	0.042759
638.9551	0.042421
639.1848	0.041281
639.4145	0.041450
639.6443	0.039512
639.8740	0.039687
640.1038	0.035833
640.3336	0.036558
640.5633	0.035080
640.7931	0.036892
641.0229	0.036896
641.2528	0.033228
641.4826	0.034289
641.7124	0.033966
641.9423	0.033171
642.1721	0.031468
642.4020	0.030005
642.6319	0.030626
642.8617	0.029175
643.0916	0.028938
643.3216	0.030997
643.5515	0.031748
643.7814	0.028767
644.0113	0.028850
644.2413	0.028503
644.4712	0.027449
644.7012	0.028671
644.9312	0.027064
645.1612	0.027333
645.3912	0.026507
645.6212	0.028492
645.8512	0.027000
646.0812	0.025398
646.3113	0.025491
646.5413	0.025644
646.7714	0.026658
647.0015	0.023627
647.2316	0.024721
647.4616	0.023739
647.6918	0.027253
647.9219	0.027314
648.1520	0.028009
648.3821	0.029887
648.6123	0.033183
648.8424	0.034011
649.0726	0.034780
649.3028	0.034195
649.5329	0.033954
649.7631	0.030784
649.9933	0.032456
650.2236	0.030417
650.4538	0.030223
650.6840	0.028237
650.9143	0.028910
651.1445	0.028957
651.3748	0.029422
651.6051	0.031617
651.8354	0.030615
652.0657	0.029644
652.2960	0.031109
652.5263	0.032568
652.7566	0.033332
652.9870	0.031531
653.2173	0.032698
653.4477	0.030271
653.6780	0.034641
653.9084	0.033172
654.1388	0.033710
654.3692	0.034404
654.5996	0.035460
654.8300	0.041428
655.0605	0.068258
655.2909	0.188309
655.5213	0.528609
655.7518	0.953508
655.9823	1.000000
656.2128	1.000000
656.4433	1.000000
656.6738	1.000000
656.9043	1.000000
657.1348	0.866216
657.3653	0.709438
657.5959	0.615640
657.8264	0.533968
658.0570	0.487925
658.2875	0.448625
658.5181	0.410355
658.7487	0.381759
658.9793	0.367749
659.2099	0.328470
659.4406	0.257984
659.6712	0.168080
659.9018	0.098360
660.1325	0.058569
660.3632	0.039591
660.5938	0.031531
660.8245	0.027664
661.0552	0.024578
661.2859	0.024764
661.5166	0.022652
661.7474	0.023434
661.9781	0.023576
662.2088	0.023990
662.4396	0.020419
662.6704	0.023283
662.9011	0.022371
663.1319	0.022747
663.3627	0.022474
663.5935	0.021681
663.8243	0.022980
664.0552	0.023768
664.2860	0.022722
664.5168	0.022097
664.7477	0.020186
664.9786	0.024221
665.2094	0.023627
665.4403	0.023056
665.6712	0.026323
665.9021	0.024013
666.1330	0.025988
666.3640	0.023797
666.5949	0.021731
666.8259	0.021257
667.0568	0.020902
667.2878	0.019212
667.5188	0.021861
667.7497	0.020235
667.9807	0.020892
668.2117	0.019549
668.4428	0.023317
668.6738	0.021375
668.9048	0.023043
669.1359	0.021797
669.3669	0.021480
669.5980	0.021143
669.8291	0.022599
670.0602	0.022451
670.2913	0.022114
670.5224	0.022114
670.7535	0.023444
670.9846	0.022557
671.2157	0.024921
671.4469	0.027898
671.6781	0.029101
671.9092	0.030431
672.1404	0.032204
672.3716	0.035666
672.6028	0.033703
672.8340	0.035117
673.0652	0.033618
673.2964	0.031528
673.5277	0.031402
673.7589	0.031085
673.9902	0.030494
674.2214	0.030367
674.4527	0.026610
674.6840	0.027940
674.9153	0.026547
675.1466	0.026821
675.3779	0.026061
675.6093	0.023887
675.8406	0.025069
676.0719	0.025470
676.3033	0.026526
676.5347	0.025069
676.7661	0.024731
676.9974	0.024225
677.2288	0.023676
677.4602	0.023781
677.6917	0.027074
677.9231	0.027687
678.1545	0.029607
678.3860	0.030557
678.6174	0.031148
678.8489	0.031360
679.0804	0.028552
679.3119	0.032711
679.5434	0.033787
679.7749	0.036004
680.0064	0.036384
680.2379	0.035771
680.4694	0.035391
680.7010	0.036510
680.9325	0.031317
681.1641	0.033597
681.3957	0.038093
681.6273	0.033492
681.8589	0.034019
682.0905	0.033555
682.3221	0.033808
682.5537	0.031697
682.7854	0.029270
683.0170	0.030494
683.2487	0.029924
683.4803	0.030304
683.7120	0.032436
683.9437	0.030220
684.1754	0.034843
684.4071	0.035075
684.6388	0.036088
684.8705	0.039888
685.1023	0.041386
685.3340	0.043054
685.5658	0.043898
685.7975	0.044722
686.0293	0.045461
686.2611	0.045756
686.4929	0.044658
686.7247	0.042991
686.9565	0.044067
687.1883	0.042885
687.4202	0.045038
687.6520	0.044004
687.8838	0.043434
688.1157	0.040289
688.3476	0.040415
688.5795	0.038706
688.8114	0.039888
689.0433	0.038262
689.2752	0.039297
689.5071	0.037228
689.7390	0.037798
689.9710	0.036954
690.2029	0.036004
690.4349	0.033133
690.6669	0.032309
690.8988	0.034125
691.1308	0.037925
691.3628	0.038009
691.5948	0.036911
691.8269	0.037291
692.0589	0.039001
692.2909	0.039254
692.5230	0.038853
692.7550	0.037523
692.9871	0.038748
693.2192	0.038452
693.4513	0.039064
693.6834	0.036257
693.9155	0.037312
694.1476	0.033766
694.3797	0.035096
694.6119	0.032647
694.8440	0.034167
695.0762	0.033998
695.3083	0.037165
695.5405	0.032288
695.7727	0.031444
696.0049	0.030389
696.2371	0.032352
696.4693	0.031085
696.7016	0.035560
696.9338	0.039212
697.1660	0.040605
697.3983	0.040057
697.6306	0.038896
697.8628	0.040120
698.0951	0.038853
698.3274	0.038579
698.5597	0.038220
698.7920	0.038811
699.0243	0.036341
699.2567	0.037523
699.4890	0.033238
699.7214	0.032879
699.9537	0.031233
700.1861	0.031824
700.4185	0.031317
700.6509	0.031528
700.8833	0.031951
701.1157	0.027053
701.3481	0.028320
701.5806	0.028172
701.8130	0.028763
702.0454	0.027475
702.2779	0.030283
702.5104	0.030832
702.7429	0.030705
702.9753	0.028805
703.2078	0.029713
703.4403	0.028615
703.6729	0.028953
703.9054	0.025702
704.1379	0.026441
704.3705	0.027644
704.6030	0.026378
704.8356	0.027391
705.0682	0.026230
705.3008	0.023190
705.5334	0.023106
705.7660	0.023169
705.9986	0.025069
706.2312	0.027771
706.4638	0.030811
706.6965	0.032225
706.9291	0.035223
707.1618	0.037207
707.3945	0.037523
707.6272	0.037756
707.8599	0.036679
708.0926	0.038832
708.3253	0.035961
708.5580	0.038473
708.7907	0.036637
709.0235	0.036890
709.2562	0.035117
709.4890	0.034167
709.7217	0.032837
709.9545	0.033365
710.1873	0.035117
710.4201	0.034716
710.6529	0.036742
710.8857	0.035413
711.1186	0.031338
711.3514	0.031022
711.5842	0.031360
711.8171	0.030410
712.0500	0.029375
712.2828	0.028826
712.5157	0.028700
712.7486	0.030325
712.9815	0.030431
713.2144	0.029650
713.4474	0.030642
713.6803	0.031740
713.9132	0.032457
714.1462	0.032626
714.3791	0.036088
714.6121	0.034336
714.8451	0.033872
715.0781	0.034758
715.3111	0.034399
715.5441	0.035096
715.7771	0.033597
716.0102	0.031951
716.2432	0.030283
716.4762	0.030684
716.7093	0.027475
716.9424	0.028446
717.1754	0.027750
717.4085	0.029460
717.6416	0.027497
717.8747	0.029333
718.1078	0.030346
718.3410	0.029460
718.5741	0.029650
718.8072	0.028024
719.0404	0.028573
719.2736	0.031001
719.5067	0.028172
719.7399	0.028932
719.9731	0.028573
720.2063	0.027687
720.4395	0.027665
720.6727	0.028784
720.9060	0.029840
721.1392	0.029396
721.3725	0.029861
721.6057	0.030325
721.8390	0.029460
722.0723	0.030262
722.3055	0.029903
722.5388	0.028932
722.7721	0.028404
723.0055	0.026906
723.2388	0.028088
723.4721	0.028468
723.7055	0.029291
723.9388	0.028172
724.1722	0.027813
724.4056	0.027391
724.6389	0.026082
724.8723	0.028109
725.1057	0.030135
725.3391	0.032225
725.5726	0.032668
725.8060	0.032711
726.0394	0.033829
726.2729	0.034906
726.5063	0.032943
726.7398	0.032478
726.9733	0.032014
727.2068	0.033998
727.4403	0.030916
727.6738	0.031824
727.9073	0.031866
728.1408	0.034526
728.3743	0.034040
728.6079	0.034273
728.8414	0.034125
729.0750	0.034547
729.3086	0.036151
729.5421	0.037967
729.7757	0.037439
730.0093	0.038283
730.2429	0.035518
730.4766	0.037587
730.7102	0.040985
730.9438	0.044363
731.1775	0.042526
731.4111	0.044025
731.6448	0.044490
731.8785	0.043793
732.1122	0.042695
732.3458	0.042210
732.5795	0.039698
732.8133	0.041661
733.0470	0.044701
733.2807	0.042695
733.5145	0.041661
733.7482	0.045355
733.9820	0.047867
734.2157	0.051413
734.4495	0.052089
734.6833	0.050843
734.9171	0.049218
735.1509	0.048648
735.3847	0.048606
735.6185	0.050316
735.8524	0.049450
736.0862	0.047761
736.3201	0.048163
736.5539	0.050252
736.7878	0.047128
737.0217	0.048817
737.2556	0.047909
737.4895	0.047951
737.7234	0.046094
737.9573	0.045503
738.1912	0.042906
738.4252	0.040795
738.6591	0.041133
738.8931	0.043540
739.1271	0.045608
739.3610	0.046854
739.5950	0.048310
739.8290	0.045418
740.0630	0.044743
740.2970	0.042252
740.5310	0.038748
740.7651	0.041112
740.9991	0.039001
741.2332	0.036510
741.4672	0.034209
741.7013	0.033597
741.9354	0.033724
742.1695	0.034779
742.4036	0.034315
742.6377	0.035919
742.8718	0.032352
743.1059	0.031212
743.3400	0.031212
743.5742	0.030304
743.8083	0.031317
744.0425	0.030832
744.2767	0.029755
744.5108	0.029038
744.7450	0.029291
744.9792	0.029080
745.2134	0.029228
745.4477	0.028362
745.6819	0.029819
745.9161	0.027771
746.1504	0.029903
746.3846	0.029460
746.6189	0.029270
746.8532	0.027138
747.0874	0.029016
747.3217	0.029607
747.5560	0.031507
747.7903	0.033555
748.0247	0.029375
748.2590	0.029671
748.4933	0.028024
748.7277	0.029861
748.9620	0.030093
749.1964	0.033428
749.4308	0.033133
749.6652	0.035265
749.8995	0.039254
750.1339	0.039043
750.3684	0.039803
750.6028	0.040901
750.8372	0.041978
751.0717	0.038579
751.3061	0.040774
751.5406	0.040964
751.7750	0.039233
752.0095	0.040838
752.2440	0.041365
752.4785	0.039128
752.7130	0.037840
752.9475	0.034843
753.1820	0.036257
753.4166	0.036975
753.6511	0.039592
753.8856	0.043181
754.1202	0.042632
754.3548	0.040331
754.5894	0.041450
754.8239	0.040183
755.0585	0.040732
755.2931	0.041619
755.5278	0.043202
755.7624	0.044321
755.9970	0.045883
756.2317	0.046157
756.4663	0.048141
756.7010	0.049260
756.9356	0.050442
757.1703	0.053524
757.4050	0.057915
757.6397	0.059773
757.8744	0.059730
758.1091	0.057303
758.3438	0.057683
758.5786	0.056078
758.8133	0.054601
759.0481	0.054158
759.2828	0.057936
759.5176	0.055741
759.7524	0.060723
759.9872	0.060216
760.2220	0.060195
760.4568	0.064459
760.6916	0.063319
760.9264	0.062833
761.1613	0.062306
761.3961	0.060913
761.6310	0.058274
761.8658	0.052152
762.1007	0.051603
762.3356	0.048289
762.5705	0.049028
762.8054	0.049767
763.0403	0.049872
763.2752	0.051181
763.5101	0.052152
763.7450	0.049492
763.9800	0.052110
764.2149	0.052954
764.4499	0.056015
764.6849	0.059055
764.9198	0.060638
765.1548	0.058337
765.3898	0.058422
765.6248	0.054432
765.8599	0.053419
766.0949	0.051709
766.3299	0.046959
766.5650	0.044553
766.8000	0.041386
767.0351	0.040437
767.2701	0.038452
767.5052	0.037608
767.7403	0.037165
767.9754	0.040268
768.2105	0.043687
768.4456	0.046410
768.6808	0.048331
768.9159	0.050421
769.1510	0.048986
769.3862	0.046136
769.6214	0.045672
769.8565	0.043687
770.0917	0.046748
770.3269	0.046875
770.5621	0.045482
770.7973	0.046263
771.0325	0.049070
771.2677	0.049535
771.5030	0.046474
771.7382	0.046263
771.9735	0.042674
772.2087	0.042041
772.4440	0.040373
772.6793	0.039761
772.9146	0.041935
773.1499	0.037967
773.3852	0.038917
773.6205	0.039107
773.8558	0.038326
774.0911	0.037460
774.3265	0.035096
774.5618	0.032816
774.7972	0.032098
775.0326	0.029924
775.2679	0.032267
775.5033	0.028531
775.7387	0.027433
775.9741	0.027834
776.2095	0.027328
776.4450	0.026969
776.6804	0.025238
776.9158	0.026230
777.1513	0.024351
777.3868	0.025048
777.6222	0.023528
777.8577	0.023528
778.0932	0.025322
778.3287	0.026230
778.5642	0.028826
778.7997	0.027750
779.0352	0.030536
779.2707	0.031782
779.5063	0.031106
779.7418	0.030473
779.9774	0.030579
780.2130	0.029987
780.4485	0.028446
780.6841	0.028130
780.9197	0.028805
781.1553	0.032837
781.3909	0.035054
781.6265	0.036194
781.8622	0.033808
782.0978	0.036130
782.3335	0.036510
782.5691	0.037059
782.8048	0.035877
783.0405	0.033112
783.2761	0.032689
783.5118	0.034188
783.7475	0.036848
783.9832	0.035033
784.2190	0.034378
784.4547	0.028151
784.6904	0.027623
784.9262	0.029206
785.1619	0.029333
785.3977	0.030980
785.6335	0.029755
785.8692	0.029565
786.1050	0.028721
786.3408	0.027919
786.5766	0.028151
786.8124	0.029882
787.0483	0.026652
787.2841	0.027750
787.5199	0.029249
787.7558	0.028763
787.9917	0.027581
788.2275	0.028531
788.4634	0.029565
788.6993	0.031740
788.9352	0.032077
789.1711	0.031655
789.4070	0.030980
789.6429	0.028489
789.8789	0.028214
790.1148	0.028510
790.3507	0.025723
790.5867	0.025090
790.8227	0.024689
791.0586	0.024077
791.2946	0.024689
791.5306	0.022937
791.7666	0.026420
792.0026	0.024985
792.2387	0.022409
792.4747	0.021037
792.7107	0.022979
792.9468	0.022578
793.1828	0.021818
793.4189	0.021966
793.6550	0.024119
793.8910	0.025428
794.1271	0.029502
794.3632	0.032858
794.5993	0.032014
794.8355	0.033365
795.0716	0.034125
795.3077	0.032331
795.5439	0.032162
795.7800	0.029291
796.0162	0.026167
796.2523	0.024710
796.4885	0.022831
796.7247	0.021016
796.9609	0.020235
797.1971	0.021734
797.4333	0.023781
797.6695	0.022283
797.9058	0.024457
798.1420	0.022599
798.3783	0.023465
798.6145	0.023317
798.8508	0.023254
799.0871	0.022325
799.3233	0.024372
799.5596	0.021523
799.7959	0.024985
800.0322	0.019939
800.2686	0.020467
800.5049	0.018610
800.7412	0.018842
800.9776	0.020066
801.2139	0.019370
801.4503	0.018757
801.6867	0.019327
801.9230	0.018821
802.1594	0.017343
802.3958	0.017955
802.6322	0.015675
802.8686	0.017913
803.1051	0.017470
803.3415	0.018757
803.5779	0.019327
803.8144	0.019771
804.0508	0.018314
804.2873	0.016794
804.5238	0.018652
804.7603	0.018525
804.9968	0.017871
805.2333	0.018124
805.4698	0.018103
805.7063	0.018631
805.9428	0.020129
806.1794	0.021649
806.4159	0.024963
806.6525	0.023845
806.8890	0.023444
807.1256	0.024689
807.3622	0.022008
807.5988	0.021354
807.8354	0.022578
808.0720	0.022304
808.3086	0.021818
808.5452	0.022325
808.7818	0.023950
809.0185	0.022430
809.2551	0.023486
809.4918	0.021058
809.7284	0.019813
809.9651	0.018567
810.2018	0.019961
810.4385	0.017237
810.6752	0.017765
810.9119	0.018842
811.1486	0.019939
811.3853	0.019707
811.6221	0.017913
811.8588	0.017554
812.0956	0.017829
812.3323	0.018082
812.5691	0.015274
812.8059	0.014367
813.0427	0.014367
813.2795	0.013944
813.5163	0.015781
813.7531	0.017512
813.9899	0.020509
814.2267	0.019074
814.4636	0.018398
814.7004	0.017153
814.9373	0.017174
815.1742	0.016689
815.4110	0.015380
815.6479	0.015401
815.8848	0.014557
816.1217	0.015274
816.3586	0.013987
816.5955	0.013966
816.8324	0.014894
817.0694	0.014092
817.3063	0.015886
817.5433	0.014937
817.7802	0.015105
818.0172	0.014219
818.2542	0.014092
818.4912	0.014599
818.7282	0.013016
818.9652	0.014725
819.2022	0.013269
819.4392	0.012277
819.6762	0.011158
819.9133	0.011833
820.1503	0.012467
820.3874	0.013839
820.6244	0.014219
820.8615	0.016119
821.0986	0.014915
821.3357	0.015675
821.5727	0.015739
821.8099	0.014134
822.0470	0.014789
822.2841	0.014071
822.5212	0.012678
822.7584	0.012868
822.9955	0.012298
823.2327	0.011749
823.4698	0.012762
823.7070	0.012826
823.9442	0.010588
824.1814	0.011052
824.4186	0.011707
824.6558	0.010419
824.8930	0.011390
825.1302	0.013184
825.3675	0.011833
825.6047	0.014535
825.8419	0.011137
826.0792	0.014008
826.3165	0.013037
826.5537	0.011812
826.7910	0.011644
827.0283	0.012150
827.2656	0.012066
827.5029	0.014620
827.7402	0.013944
827.9776	0.013543
828.2149	0.012108
828.4522	0.012593
828.6896	0.011897
828.9270	0.013543
829.1643	0.013290
829.4017	0.012678
829.6391	0.010968
829.8765	0.013227
830.1139	0.010609
830.3513	0.011665
830.5887	0.010715
830.8261	0.010609
831.0636	0.008963
831.3010	0.008899
831.5385	0.009005
831.7759	0.010271
832.0134	0.007591
832.2509	0.008963
832.4884	0.007548
832.7259	0.009849
832.9634	0.010060
833.2009	0.009258
833.4384	0.008287
833.6759	0.010461
833.9135	0.009807
834.1510	0.009047
834.3886	0.009026
834.6261	0.011179
834.8637	0.011179
835.1013	0.012361
835.3389	0.008942
835.5765	0.010672
835.8141	0.009258
836.0517	0.010546
836.2893	0.008013
836.5269	0.008688
836.7646	0.008646
837.0022	0.009469
837.2399	0.006936
837.4775	0.008435
837.7152	0.005501
837.9529	0.007232
838.1906	0.006598
838.4283	0.008055
838.6660	0.006176
838.9037	0.007591
839.1414	0.006028
839.3791	0.008773
839.6169	0.006915
839.8546	0.007401
840.0924	0.006683
840.3302	0.008899
840.5679	0.007147
840.8057	0.006873
841.0435	0.007147
841.2813	0.007422
841.5191	0.004656
841.7569	0.006936
841.9947	0.005838
842.2326	0.007274
842.4704	0.004741
842.7082	0.005269
842.9461	0.006430
843.1840	0.005965
843.4218	0.003918
843.6597	0.005205
843.8976	0.007042
844.1355	0.004994
844.3734	0.004931
844.6113	0.004889
844.8492	0.005627
845.0872	0.005881
845.3251	0.004720
845.5631	0.005986
845.8010	0.005691
846.0390	0.004382
846.2770	0.004825
846.5149	0.004720
846.7529	0.005036
846.9909	0.006050
847.2289	0.005817
847.4669	0.005057
847.7050	0.006387
847.9430	0.006134
848.1810	0.005142
848.4191	0.005395
848.6571	0.004656
848.8952	0.005881
849.1333	0.004656
849.3713	0.004762
849.6094	0.004530
849.8475	0.004973
850.0856	0.005437
850.3237	0.005205
850.5619	0.004002
850.8000	0.003348
851.0381	0.005374
851.2763	0.004129
851.5144	0.005522
851.7526	0.005627
851.9908	0.004699
852.2289	0.006598
852.4671	0.005881
852.7053	0.008182
852.9435	0.010440
853.1817	0.014050
853.4200	0.013839
853.6582	0.013860
853.8964	0.013417
854.1347	0.012108
854.3729	0.015380
854.6112	0.015063
854.8495	0.014831
855.0877	0.014852
855.3260	0.013564
855.5643	0.012192
855.8026	0.013184
856.0409	0.011390
856.2792	0.011242
856.5176	0.012425
856.7559	0.014261
856.9942	0.013206
857.2326	0.009701
857.4710	0.011432
857.7093	0.012235
857.9477	0.011411
858.1861	0.009511
858.4245	0.010567
858.6629	0.010567
858.9013	0.009870
859.1397	0.009364
859.3781	0.008752
859.6166	0.010672
859.8550	0.007506
860.0935	0.009237
860.3319	0.008097
860.5704	0.008942
860.8089	0.008203
861.0473	0.007696
861.2858	0.006873
861.5243	0.007738
861.7628	0.005247
862.0013	0.005501
862.2399	0.006324
862.4784	0.006472
862.7169	0.006240
862.9555	0.005965
863.1940	0.005902
863.4326	0.006788
863.6712	0.008266
863.9098	0.006556
864.1483	0.007168
864.3869	0.007358
864.6255	0.005986
864.8642	0.005944
865.1028	0.005036
865.3414	0.004276
865.5800	0.005057
865.8187	0.005585
866.0573	0.004466
866.2960	0.005585
866.5347	0.004340
866.7733	0.004614
867.0120	0.005775
867.2507	0.005986
867.4894	0.006620
867.7281	0.005902
867.9669	0.006767
868.2056	0.005733
868.4443	0.007295
868.6831	0.006430
868.9218	0.004889
869.1606	0.005395
869.3993	0.004129
869.6381	0.004867
869.8769	0.005057
870.1157	0.005775
870.3545	0.005670
870.5933	0.004551
870.8321	0.007063
871.0709	0.007168
871.3097	0.006662
871.5486	0.005205
871.7874	0.004762
872.0263	0.005100
872.2651	0.005353
872.5040	0.006071
872.7429	0.006345
872.9818	0.005269
873.2207	0.006345
873.4596	0.004910
873.6985	0.006430
873.9374	0.005374
874.1763	0.006092
874.4153	0.004466
874.6542	0.005269
874.8932	0.005332
875.1321	0.006155
875.3711	0.006366
875.6101	0.006261
875.8491	0.005965
876.0880	0.006387
876.3270	0.005775
876.5661	0.004255
876.8051	0.007907
877.0441	0.006303
877.2831	0.005184
877.5222	0.003981
877.7612	0.006746
878.0003	0.005944
878.2393	0.005902
878.4784	0.006999
878.7175	0.007274
878.9566	0.005860
879.1957	0.007358
879.4348	0.007717
879.6739	0.008160
879.9130	0.007844
880.1521	0.008477
880.3913	0.008646
880.6304	0.008118
880.8696	0.009427
881.1087	0.008034
881.3479	0.007591
881.5871	0.007168
881.8262	0.005881
882.0654	0.006071
882.3046	0.006134
882.5438	0.006514
882.7831	0.006451
883.0223	0.006514
883.2615	0.006092
883.5007	0.006978
883.7400	0.005311
883.9792	0.007759
884.2185	0.005184
884.4578	0.006957
884.6971	0.006176
884.9363	0.005712
885.1756	0.005247
885.4149	0.005944
885.6542	0.006303
885.8936	0.007401
886.1329	0.006915
886.3722	0.006598
886.6116	0.006514
886.8509	0.007189
887.0903	0.005163
887.3296	0.006683
887.5690	0.005480
887.8084	0.006197
888.0478	0.006577
888.2872	0.005311
888.5266	0.005733
888.7660	0.004720
889.0054	0.004889
889.2448	0.004973
889.4843	0.005691
889.7237	0.005775
889.9632	0.004783
890.2026	0.004762
890.4421	0.004699
890.6816	0.004656
890.9211	0.003453
891.1606	0.005100
891.4001	0.004762
891.6396	0.004910
891.8791	0.004825
892.1186	0.005269
892.3581	0.004699
892.5977	0.005902
892.8372	0.004340
893.0768	0.004656
893.3163	0.005269
893.5559	0.007147
893.7955	0.005247
894.0351	0.005860
894.2747	0.003580
894.5143	0.004614
894.7539	0.004234
894.9935	0.004466
895.2331	0.005142
895.4727	0.004846
895.7124	0.004635
895.9520	0.005691
896.1917	0.005332
896.4314	0.006620
896.6710	0.003918
896.9107	0.005247
897.1504	0.003643
897.3901	0.004509
897.6298	0.004656
897.8695	0.004466
898.1092	0.003284
898.3489	0.005480
898.5887	0.005670
898.8284	0.005247
899.0682	0.004699
899.3079	0.004593
899.5477	0.004572
899.7875	0.004044
900.0272	0.004213
900.2670	0.004614
900.5068	0.004044
900.7466	0.005079
900.9864	0.001849
901.2263	0.003031
901.4661	0.004572
901.7059	0.004720
901.9458	0.005480
902.1856	0.005416
902.4255	0.005501
902.6654	0.005965
902.9052	0.004361
903.1451	0.005100
903.3850	0.003432
903.6249	0.004530
903.8648	0.003643
904.1047	0.003833
904.3446	0.005142
904.5846	0.004867
904.8245	0.004593
905.0644	0.004783
905.3044	0.005247
905.5444	0.005585
905.7843	0.004677
906.0243	0.004487
906.2643	0.004973
906.5043	0.004635
906.7443	0.004867
906.9843	0.006176
907.2243	0.003643
907.4643	0.005775
907.7043	0.005902
907.9444	0.004867
908.1844	0.003685
908.4245	0.005057
908.6645	0.004361
908.9046	0.003960
909.1447	0.004867
909.3847	0.003474
909.6248	0.002693
909.8649	0.004129
910.1050	0.003728
910.3452	0.004297
910.5853	0.003833
910.8254	0.003158
911.0655	0.003875
911.3057	0.004825
911.5458	0.004867
911.7860	0.003305
912.0262	0.004846
912.2663	0.004023
912.5065	0.003981
912.7467	0.004108
912.9869	0.004340
913.2271	0.004065
913.4673	0.004635
913.7075	0.003854
913.9478	0.004551
914.1880	0.003432
914.4283	0.003348
914.6685	0.003622
914.9088	0.002292
915.1490	0.004297
915.3893	0.003305
915.6296	0.004192
915.8699	0.002735
916.1102	0.002187
916.3505	0.003073
916.5908	0.003918
916.8311	0.005036
917.0714	0.004593
917.3118	0.003242
917.5521	0.003664
917.7925	0.004741
918.0328	0.003221
918.2732	0.002968
918.5136	0.005311
918.7539	0.003242
918.9943	0.003453
919.2347	0.003474
919.4751	0.003221
919.7155	0.003221
919.9560	0.004382
920.1964	0.003580
920.4368	0.003706
920.6773	0.001891
920.9177	0.003284
921.1582	0.003559
921.3986	0.003369
921.6391	0.004466
921.8796	0.003136
922.1201	0.002229
922.3606	0.002735
922.6011	0.003115
922.8416	0.003348
923.0821	0.004445
923.3226	0.004382
923.5631	0.002651
923.8037	0.003305
924.0442	0.003791
924.2848	0.002820
924.5254	0.002208
924.7659	0.001638
925.0065	0.002904
925.2471	0.003516
925.4877	0.002714
925.7283	0.002545
925.9689	0.001194
926.2095	0.002820
926.4501	0.002018
926.6908	0.001954
926.9314	0.001004
927.1720	0.002440
927.4127	0.002567
927.6533	0.003115
927.8940	0.003960
928.1347	0.002925
928.3754	0.003432
928.6161	0.002229
928.8568	0.001997
929.0975	0.003200
929.3382	0.002947
929.5789	0.001997
929.8196	0.002313
930.0604	0.002799
930.3011	0.002588
930.5419	0.001617
930.7826	0.001764
931.0234	0.002567
931.2642	0.002271
931.5049	0.003115
931.7457	0.001764
931.9865	0.001068
932.2273	0.000899
932.4681	0.002904
932.7089	0.002609
932.9498	0.001743
933.1906	0.002883
933.4314	0.002588
933.6723	0.002672
933.9131	0.002841
934.1540	0.002630
934.3949	0.002398
934.6358	0.002693
934.8766	0.002799
935.1175	0.001448
935.3584	0.002165
935.5993	0.000624
935.8403	0.001300
936.0812	0.001237
936.3221	0.003136
936.5630	0.001131
936.8040	0.001891
937.0449	0.000772
937.2859	0.000688
937.5269	0.001194
937.7678	0.002377
938.0088	0.002630
938.2498	0.000962
938.4908	0.001532
938.7318	0.002102
938.9728	0.002292
939.2138	0.001216
939.4549	0.002271
939.6959	0.001764
939.9369	0.001448
940.1780	0.001617
940.4190	0.001004
940.6601	0.000667
940.9012	0.001469
941.1422	0.001300
941.3833	0.001638
941.6244	0.001574
941.8655	0.001764
942.1066	0.001617
942.3477	0.001363
942.5889	0.001258
942.8300	0.001511
943.0711	0.001279
943.3123	0.001617
943.5534	0.001237
943.7946	0.001954
944.0357	0.001152
944.2769	0.001828
944.5181	0.001722
944.7593	0.001807
945.0005	0.001427
945.2417	0.001638
945.4829	0.001384
945.7241	0.001933
945.9653	0.000688
946.2066	0.002165
946.4478	0.001321
946.6891	0.000688
946.9303	0.001089
947.1716	0.001258
947.4128	0.001701
947.6541	0.002250
947.8954	0.000667
948.1367	0.000709
948.3780	0.001469
948.6193	0.001047
948.8606	0.001110
949.1019	0.002524
949.3433	0.001849
949.5846	0.000941
949.8259	0.000266
950.0673	0.001047
950.3086	0.001722
950.5500	0.001975
950.7914	0.002208
951.0327	0.001975
951.2741	0.000308
951.5155	0.001047
951.7569	0.000097
951.9983	0.002081
952.2398	0.001068
952.4812	0.000308
952.7226	0.000920
952.9640	0.001237
953.2055	0.000329
953.4469	0.002883
953.6884	0.002355
953.9299	0.000772
954.1713	0.001870
954.4128	0.002187
954.6543	0.001321
954.8958	0.001216
955.1373	0.000561
955.3788	0.000434
955.6203	0.000350
955.8618	0.000836
956.1034	0.001406
956.3449	0.001849
956.5865	0.001807
956.8280	0.002018
957.0696	0.000498
957.3111	0.002482
957.5527	0.001532
957.7943	0.001659
958.0359	0.001406
958.2775	0.000730
958.5191	0.000624
958.7607	0.002018
959.0023	0.000709
959.2439	0.001764
959.4856	0.002208
959.7272	0.001279
959.9688	0.000076
960.2105	0.001785
960.4522	0.002060
960.6938	0.000561
960.9355	0.001490
961.1772	0.001743
961.4189	0.000540
961.6606	0.001237
961.9023	0.000012
962.1440	0.000160
962.3857	0.000329
962.6274	0.001068
962.8692	0.001596
963.1109	0.000477
963.3527	0.001216
963.5944	0.001912
963.8362	0.000392
964.0779	0.002820
964.3197	0.001954
964.5615	0.002018
964.8033	0.001975
965.0451	0.000603
965.2869	0.000793
965.5287	0.000962
965.7705	0.001469
966.0123	0.001574
966.2542	0.001764
966.4960	0.002862
966.7379	0.001173
966.9797	0.000456
967.2216	0.001237
967.4634	0.002208
967.7053	0.000709
967.9472	0.001701
968.1891	0.001342
968.4310	0.000413
968.6729	0.000266
968.9148	0.001237
969.1567	-0.000325
969.3987	0.000793
969.6406	-0.000579
969.8825	0.000836
970.1245	-0.000431
970.3664	0.001363
970.6084	-0.000621
970.8504	0.001764
971.0923	0.000118
971.3343	0.000878
971.5763	0.000519
971.8183	0.001068
972.0603	0.000371
972.3023	0.000223
972.5443	0.000413
972.7864	0.001469
973.0284	0.000139
973.2704	0.001574
973.5125	-0.000178
973.7545	0.000983
973.9966	0.001363
974.2387	0.001089
974.4807	0.000350
974.7228	0.000540
974.9649	0.000540
975.2070	0.000878
975.4491	0.001089
975.6912	0.000477
975.9333	-0.000347
976.1755	0.001300
976.4176	0.000793
976.6597	0.000751
976.9019	0.000392
977.1440	0.000962
977.3862	0.001511
977.6283	0.001363
977.8705	0.002820
978.1127	0.001511
978.3549	0.000667
978.5971	0.001152
978.8393	-0.000093
979.0815	0.000667
979.3237	0.000033
979.5659	0.000646
979.8082	0.001089
980.0504	0.001363
980.2926	-0.000072
980.5349	-0.000051
980.7771	0.001490
981.0194	-0.000030
981.2617	0.000983
981.5040	0.001237
981.7462	0.000266
981.9885	0.001026
982.2308	0.000582
982.4731	-0.000537
982.7155	0.000498
982.9578	0.001194
983.2001	0.000434
983.4424	0.001427
983.6848	0.000582
983.9271	0.001912
984.1695	0.000688
984.4118	0.000266
984.6542	0.001342
984.8966	0.001047
985.1390	-0.000705
985.3814	0.000456
985.6238	0.001997
985.8662	0.000624
986.1086	-0.000199
986.3510	0.000793
986.5934	0.000983
986.8358	0.000730
987.0783	0.000202
987.3207	0.000287
987.5632	0.000941
987.8056	0.000730
988.0481	0.000392
988.2906	0.000688
988.5331	-0.000642
988.7756	0.000012
989.0180	0.001279
989.2605	0.000498
989.5031	0.000413
989.7456	-0.000347
989.9881	-0.000304
990.2306	0.000413
990.4732	0.000097
990.7157	0.000667
990.9582	0.001617
991.2008	0.000118
991.4434	0.000329
991.6859	0.000603
991.9285	0.000413
992.1711	0.000519
992.4137	-0.000030
992.6563	0.000582
992.8989	0.001406
993.1415	0.000667
993.3841	-0.000220
993.6267	0.001152
993.8694	0.000519
994.1120	0.001004
994.3547	0.000857
994.5973	0.000434
994.8400	-0.000389
995.0826	0.001596
995.3253	-0.000410
995.5680	0.000413
995.8107	-0.000157
996.0534	0.000751
996.2961	-0.001233
996.5388	0.001596
996.7815	0.000603
997.0242	0.001110
997.2670	0.000202
997.5097	0.001258
997.7524	-0.000600
997.9952	0.002778
998.2379	-0.000515
998.4807	0.000772
998.7235	0.000308
998.9662	0.001933
999.2090	0.000223
999.4518	0.000646
999.6946	-0.000558
999.9374	0.000646
1000.1802	0.001891
1000.4230	0.000392
1000.6659	0.000667
1000.9087	-0.000262
1001.1515	0.000055
1001.3944	0.000287
1001.6372	0.000477
1001.8801	0.000160
1002.1230	0.001807
1002.3658	0.000772
1002.6087	0.000308
1002.8516	0.001237
1003.0945	-0.000304
1003.3374	0.000603
1003.5803	0.000667
1003.8232	0.000308
1004.0661	0.000709
1004.3091	-0.000304
1004.5520	0.001849
1004.7949	0.000983
1005.0379	0.000076
1005.2808	-0.000705
1005.5238	0.001258
1005.7667	0.000456
1006.0097	0.000498
1006.2527	0.001258
1006.4957	-0.000009
1006.7387	-0.000157
1006.9817	0.000308
1007.2247	0.001089
1007.4677	0.000519
1007.7107	0.001300
1007.9538	0.000878
1008.1968	0.001448
1008.4398	0.001363
1008.6829	-0.001128
1008.9259	0.000540
1009.1690	0.000350
1009.4121	0.001384
1009.6551	0.001026
1009.8982	0.000371
1010.1413	0.000434
1010.3844	0.000941
1010.6275	-0.000663
1010.8706	0.001047
1011.1137	0.000413
1011.3568	-0.000621
1011.6000	0.000076
1011.8431	0.000709
1012.0863	0.000434
1012.3294	0.001047
1012.5726	0.000857
1012.8157	0.000603
1013.0589	0.000667
1013.3021	0.001870
1013.5452	0.000730
1013.7884	0.000624
1014.0316	0.000772
1014.2748	0.000287
1014.5180	0.000793
1014.7613	-0.000157
1015.0045	-0.000135
1015.2477	-0.000621
1015.4909	0.000814
1015.7342	0.001258
1015.9774	0.001089
1016.2207	-0.001423
1016.4640	0.000350
1016.7072	0.000287
1016.9505	0.001427
1017.1938	0.001089
1017.4371	0.001004
1017.6804	0.000646
1017.9237	0.001511
1018.1670	0.000181
1018.4103	-0.000283
1018.6536	0.000920
1018.8969	0.001933
1019.1403	0.001406
1019.3836	0.000160
1019.6270	-0.000178
1019.8703	-0.000494
1020.1137	0.001448
1020.3571	-0.000537
1020.6004	0.000667
1020.8438	-0.000220
1021.0872	-0.000157
1021.3306	0.001659
1021.5740	0.000751
1021.8174	0.000223
1022.0608	0.000118
1022.3042	-0.000579
1022.5477	0.000202
1022.7911	-0.000114
1023.0345	-0.000790
