# Wavelength (nm)	Intensity (a.u.)
197.7802	0.000579
197.9842	0.001697
198.1882	0.000642
198.3922	0.001634
198.5963	0.000642
198.8003	-0.000223
199.0044	0.001085
199.2085	-0.000266
199.4126	0.002056
199.6168	0.000410
199.8209	0.000811
200.0251	0.000494
200.2292	0.000346
200.4334	-0.000561
200.6376	0.000663
200.8418	0.000769
201.0461	0.000072
201.2503	0.000072
201.4546	0.000283
201.6589	-0.000308
201.8631	0.000346
202.0674	-0.001448
202.2718	0.000980
202.4761	0.000410
202.6805	0.000346
202.8848	0.001170
203.0892	-0.000118
203.2936	0.000368
203.4980	0.000199
203.7024	0.000325
203.9069	0.000937
204.1113	0.000072
204.3158	0.000811
204.5203	0.000663
204.7248	0.001951
204.9293	0.000072
205.1338	0.001782
205.3384	0.000705
205.5430	0.001444
205.7475	0.000114
205.9521	-0.000139
206.1567	0.000220
206.3614	0.000895
206.5660	0.000959
206.7706	-0.000033
206.9753	-0.000857
207.1800	-0.000540
207.3847	0.000389
207.5894	0.001972
207.7941	-0.000097
207.9989	-0.000456
208.2036	0.000009
208.4084	0.000135
208.6132	0.002415
208.8180	0.000346
209.0228	0.000705
209.2276	0.000051
209.4325	0.000684
209.6373	0.001191
209.8422	0.001001
210.0471	0.000684
210.2520	-0.001215
210.4569	0.001296
210.6618	0.001296
210.8668	0.000389
211.0718	0.000114
211.2767	0.000959
211.4817	0.001740
211.6867	0.000346
211.8918	0.000072
212.0968	0.000410
212.3018	0.000790
212.5069	0.001592
212.7120	-0.000667
212.9171	0.002267
213.1222	0.000558
213.3273	-0.000434
213.5325	0.000431
213.7376	0.000536
213.9428	0.000600
214.1480	0.001338
214.3532	-0.000751
214.5584	0.001761
214.7636	0.001317
214.9689	0.000473
215.1741	0.000072
215.3794	-0.000012
215.5847	-0.000055
215.7900	0.001170
215.9953	-0.000456
216.2007	0.000726
216.4060	0.000748
216.6114	-0.000118
216.8168	-0.001532
217.0222	0.000283
217.2276	0.000325
217.4330	0.001085
217.6384	0.000726
217.8439	0.000558
218.0494	0.002183
218.2548	0.000494
218.4603	0.000663
218.6659	0.000705
218.8714	0.001613
219.0769	0.001444
219.2825	0.000135
219.4881	0.000769
219.6936	0.001317
219.8992	-0.000223
220.1049	-0.000202
220.3105	-0.000308
220.5161	0.000600
220.7218	0.001275
220.9275	0.000642
221.1332	-0.000540
221.3389	-0.000160
221.5446	0.000811
221.7503	0.000832
221.9561	0.001296
222.1618	-0.000266
222.3676	0.000536
222.5734	0.001127
222.7792	0.001149
222.9850	-0.000477
223.1909	0.000368
223.3967	0.000558
223.6026	-0.000287
223.8085	0.000030
224.0144	0.001423
224.2203	-0.000097
224.4262	0.000135
224.6322	0.001275
224.8381	-0.000329
225.0441	-0.000603
225.2501	0.001296
225.4561	0.000262
225.6621	-0.000076
225.8681	-0.000688
226.0742	0.000600
226.2802	0.000494
226.4863	0.001360
226.6924	0.001043
226.8985	0.000346
227.1046	0.001845
227.3107	0.000157
227.5169	0.000790
227.7230	0.001740
227.9292	0.000241
228.1354	0.001423
228.3416	0.000621
228.5478	0.000937
228.7541	0.000093
228.9603	0.000262
229.1666	0.000832
229.3729	0.000241
229.5791	0.000811
229.7855	0.001360
229.9918	0.000663
230.1981	0.000558
230.4045	0.000135
230.6108	0.000157
230.8172	-0.000983
231.0236	0.000579
231.2300	0.000579
231.4364	0.000874
231.6429	0.000621
231.8493	-0.000540
232.0558	0.000009
232.2623	0.000726
232.4688	0.001465
232.6753	0.000178
232.8818	-0.001025
233.0884	0.000114
233.2949	0.000558
233.5015	0.000558
233.7081	0.000199
233.9147	0.000030
234.1213	0.000494
234.3279	-0.000350
234.5346	-0.000392
234.7413	0.001296
234.9479	-0.000118
235.1546	0.000389
235.3613	0.000832
235.5680	0.000389
235.7748	-0.000645
235.9815	0.000748
236.1883	0.000452
236.3951	0.001106
236.6018	0.000114
236.8087	0.000051
237.0155	0.002162
237.2223	0.000241
237.4292	0.000832
237.6360	0.002204
237.8429	0.000600
238.0498	0.000030
238.2567	-0.000244
238.4636	0.000853
238.6706	-0.000371
238.8775	0.000135
239.0845	0.001106
239.2915	0.000705
239.4985	0.000916
239.7055	-0.000160
239.9125	0.000262
240.1195	0.000346
240.3266	0.000811
240.5337	0.001360
240.7407	-0.001025
240.9478	0.001634
241.1549	-0.000097
241.3621	0.000494
241.5692	-0.000097
241.7764	0.000937
241.9835	0.000895
242.1907	-0.000287
242.3979	0.000220
242.6051	0.000346
242.8124	-0.000667
243.0196	-0.000434
243.2269	0.001001
243.4341	0.000410
243.6414	-0.000561
243.8487	0.000389
244.0560	-0.000456
244.2634	0.002689
244.4707	0.000135
244.6781	0.001655
244.8854	-0.000033
245.0928	0.000895
245.3002	0.000157
245.5076	0.001275
245.7151	0.001275
245.9225	0.000304
246.1300	-0.000266
246.3375	0.001149
246.5449	-0.000667
246.7524	0.000114
246.9600	0.000410
247.1675	0.001043
247.3750	0.000811
247.5826	0.001106
247.7902	0.000684
247.9978	0.000009
248.2054	0.001127
248.4130	0.000389
248.6206	-0.001131
248.8283	0.001866
249.0359	0.000895
249.2436	0.001803
249.4513	0.000410
249.6590	0.000663
249.8667	-0.000582
250.0745	0.000684
250.2822	0.000452
250.4900	0.000579
250.6978	-0.000350
250.9056	0.000642
251.1134	0.001127
251.3212	0.000515
251.5290	0.000220
251.7369	0.000684
251.9447	0.001085
252.1526	0.000621
252.3605	0.000895
252.5684	0.000558
252.7763	0.000009
252.9843	0.000769
253.1922	0.000325
253.4002	0.000389
253.6082	0.000241
253.8162	0.000937
254.0242	0.000494
254.2322	0.002183
254.4402	0.000726
254.6483	0.000558
254.8564	-0.000434
255.0644	0.001592
255.2725	0.001191
255.4806	0.000579
255.6888	0.001254
255.8969	0.001697
256.1051	0.000515
256.3132	0.000515
256.5214	-0.000181
256.7296	0.000473
256.9378	-0.000709
257.1460	0.001043
257.3543	-0.000118
257.5625	-0.000097
257.7708	-0.000772
257.9791	0.000790
258.1874	0.001360
258.3957	-0.000329
258.6040	0.000051
258.8124	0.001592
259.0207	0.000832
259.2291	0.000684
259.4375	0.001170
259.6459	0.000874
259.8543	-0.000667
260.0627	0.000431
260.2711	0.000368
260.4796	0.000790
260.6881	0.000811
260.8965	-0.000139
261.1050	-0.000730
261.3135	0.000051
261.5221	-0.000456
261.7306	0.000473
261.9392	0.000684
262.1477	0.000030
262.3563	0.001212
262.5649	0.000304
262.7735	0.000346
262.9822	0.000684
263.1908	0.001085
263.3995	-0.000139
263.6081	0.000769
263.8168	0.000135
264.0255	0.001170
264.2342	0.000093
264.4429	-0.000097
264.6517	-0.000266
264.8604	0.000663
265.0692	0.001761
265.2780	0.001043
265.4868	-0.000202
265.6956	0.000009
265.9044	0.000705
266.1133	-0.000308
266.3221	0.000558
266.5310	-0.000287
266.7399	0.001233
266.9488	0.000705
267.1577	0.002162
267.3666	0.000157
267.5755	-0.000751
267.7845	-0.000202
267.9935	0.001212
268.2024	0.000959
268.4114	0.000832
268.6205	0.000811
268.8295	0.000325
269.0385	0.000431
269.2476	0.001550
269.4566	0.001106
269.6657	0.001423
269.8748	0.001170
270.0839	0.001317
270.2931	0.000705
270.5022	0.000114
270.7114	-0.000012
270.9205	0.001001
271.1297	0.001507
271.3389	-0.000624
271.5481	-0.001363
271.7573	0.000009
271.9666	-0.000962
272.1758	0.000980
272.3851	0.000199
272.5944	-0.000603
272.8037	-0.000118
273.0130	-0.000456
273.2223	0.000051
273.4316	0.002457
273.6410	0.000684
273.8504	0.001254
274.0597	-0.000118
274.2691	-0.000540
274.4785	0.000262
274.6880	0.001782
274.8974	0.000220
275.1069	0.000980
275.3163	0.000684
275.5258	0.000705
275.7353	0.001718
275.9448	0.001043
276.1543	0.000051
276.3639	-0.000160
276.5734	-0.000350
276.7830	0.001486
276.9926	-0.000223
277.2022	0.000705
277.4118	0.000009
277.6214	0.001212
277.8310	-0.000624
278.0407	0.001233
278.2503	-0.000835
278.4600	0.001149
278.6697	-0.000012
278.8794	0.000473
279.0891	0.000199
279.2989	0.000346
279.5086	-0.000160
279.7184	0.001212
279.9281	0.001275
280.1379	0.000579
280.3477	-0.000160
280.5576	0.000368
280.7674	0.001803
280.9772	0.000114
281.1871	-0.000582
281.3970	0.000241
281.6069	-0.000624
281.8168	-0.000223
282.0267	0.000811
282.2366	0.001402
282.4466	-0.000266
282.6565	0.000663
282.8665	0.000600
283.0765	-0.001173
283.2865	0.000283
283.4965	0.001149
283.7065	-0.001089
283.9166	0.000853
284.1266	-0.000097
284.3367	0.001740
284.5468	0.000726
284.7569	0.000853
284.9670	0.000389
285.1771	-0.000097
285.3873	-0.000160
285.5974	0.001571
285.8076	-0.000857
286.0178	0.000895
286.2280	-0.000160
286.4382	0.000980
286.6484	-0.000920
286.8587	0.000748
287.0689	0.000494
287.2792	0.000895
287.4895	0.001592
287.6998	0.000769
287.9101	0.000114
288.1204	0.000621
288.3308	0.001761
288.5411	0.000579
288.7515	-0.001342
288.9619	0.000980
289.1723	0.000494
289.3827	-0.000012
289.5931	0.000009
289.8035	0.000515
290.0140	-0.001870
290.2245	0.000959
290.4349	0.000199
290.6454	0.001423
290.8559	0.000853
291.0665	-0.000076
291.2770	0.001528
291.4875	0.000684
291.6981	0.000410
291.9087	-0.000139
292.1193	0.001486
292.3299	-0.000244
292.5405	-0.000519
292.7511	0.000790
292.9618	0.000579
293.1724	-0.000223
293.3831	0.000600
293.5938	0.001275
293.8045	-0.000371
294.0152	0.000600
294.2260	-0.000012
294.4367	0.000790
294.6475	0.000705
294.8582	0.001127
295.0690	0.000431
295.2798	0.000937
295.4906	0.000389
295.7015	0.001149
295.9123	0.001296
296.1232	-0.000223
296.3340	0.002035
296.5449	0.000452
296.7558	-0.000413
296.9667	-0.000139
297.1777	0.001592
297.3886	0.001191
297.5995	0.000515
297.8105	-0.000413
298.0215	0.001127
298.2325	0.000790
298.4435	0.000748
298.6545	0.000178
298.8656	-0.001110
299.0766	0.000473
299.2877	0.000684
299.4988	0.000304
299.7099	0.000157
299.9210	0.001528
300.1321	0.002098
300.3432	-0.001131
300.5544	0.001908
300.7655	-0.000097
300.9767	0.000241
301.1879	0.001571
301.3991	0.000178
301.6103	0.000621
301.8215	0.000220
302.0328	0.001043
302.2441	0.000346
302.4553	-0.000434
302.6666	0.001064
302.8779	0.000811
303.0892	0.000515
303.3006	0.000515
303.5119	0.000473
303.7233	0.000515
303.9346	0.000178
304.1460	0.001212
304.3574	-0.000244
304.5688	0.001507
304.7803	0.001571
304.9917	0.001507
305.2031	-0.000371
305.4146	0.000114
305.6261	-0.000350
305.8376	0.001127
306.0491	-0.000329
306.2606	0.000769
306.4722	0.001845
306.6837	0.000346
306.8953	0.001001
307.1069	0.000515
307.3184	0.000431
307.5301	0.001486
307.7417	0.000199
307.9533	0.000536
308.1650	0.001170
308.3766	0.000346
308.5883	0.001149
308.8000	0.001149
309.0117	-0.000244
309.2234	0.000748
309.4351	-0.000012
309.6469	0.000431
309.8586	-0.001469
310.0704	0.000959
310.2822	-0.000878
310.4940	0.000009
310.7058	-0.000371
310.9176	-0.000308
311.1295	0.000178
311.3413	-0.000540
311.5532	0.001296
311.7651	0.001465
311.9770	-0.000709
312.1889	0.000558
312.4008	-0.001089
312.6127	-0.000329
312.8247	0.000009
313.0366	0.000304
313.2486	0.000874
313.4606	0.001465
313.6726	-0.000941
313.8846	0.001655
314.0967	-0.000392
314.3087	0.000769
314.5208	-0.000012
314.7328	0.000684
314.9449	-0.000287
315.1570	0.000980
315.3692	0.000895
315.5813	0.000304
315.7934	0.000621
316.0056	0.000832
316.2177	0.002056
316.4299	0.000853
316.6421	-0.000582
316.8543	-0.000033
317.0666	0.001381
317.2788	-0.000540
317.4911	0.001296
317.7033	0.000748
317.9156	-0.000624
318.1279	0.001866
318.3402	-0.000371
318.5525	0.000811
318.7649	0.001972
318.9772	0.000093
319.1896	-0.000582
319.4019	0.000051
319.6143	-0.001448
319.8267	0.000811
320.0392	0.001064
320.2516	0.001170
320.4640	-0.000878
320.6765	0.000220
320.8890	0.000030
321.1014	0.000790
321.3139	-0.000223
321.5265	0.000621
321.7390	-0.001110
321.9515	0.001064
322.1641	-0.000456
322.3766	0.001191
322.5892	0.001465
322.8018	-0.000371
323.0144	0.000241
323.2270	-0.000413
323.4397	-0.000076
323.6523	-0.000118
323.8650	0.001022
324.0777	-0.000118
324.2904	0.000241
324.5031	0.001381
324.7158	-0.000076
324.9285	-0.000181
325.1412	0.000536
325.3540	0.000389
325.5668	-0.000899
325.7796	0.001402
325.9924	0.000431
326.2052	0.002056
326.4180	-0.000899
326.6308	-0.000667
326.8437	0.000220
327.0566	0.001212
327.2694	-0.001279
327.4823	0.002225
327.6952	-0.000392
327.9082	-0.000371
328.1211	0.001170
328.3340	0.000199
328.5470	0.000663
328.7600	-0.000266
328.9730	0.001022
329.1860	0.001381
329.3990	0.000368
329.6120	0.000368
329.8251	0.000114
330.0381	0.001507
330.2512	0.000790
330.4643	0.000135
330.6774	-0.000899
330.8905	-0.000519
331.1036	0.000515
331.3167	0.000769
331.5299	0.001317
331.7431	0.001064
331.9562	0.001423
332.1694	0.001338
332.3826	0.000030
332.5959	0.000895
332.8091	-0.000055
333.0223	0.001486
333.2356	0.000178
333.4489	0.000705
333.6622	0.000072
333.8755	0.001571
334.0888	0.000621
334.3021	0.001085
334.5154	-0.000983
334.7288	0.001191
334.9422	-0.000582
335.1555	0.001486
335.3689	0.001296
335.5823	0.001233
335.7958	0.000748
336.0092	0.001127
336.2227	0.000072
336.4361	0.000346
336.6496	-0.000033
336.8631	0.001444
337.0766	0.000135
337.2901	0.001064
337.5036	-0.000160
337.7172	0.000410
337.9307	-0.000434
338.1443	0.002162
338.3579	-0.000033
338.5715	0.000473
338.7851	0.002162
338.9987	0.001571
339.2124	0.000621
339.4260	-0.000033
339.6397	-0.000033
339.8533	0.000220
340.0670	0.001254
340.2807	0.001149
340.4945	-0.000076
340.7082	0.001275
340.9219	-0.000540
341.1357	0.000431
341.3495	0.000431
341.5633	0.001275
341.7771	0.001444
341.9909	0.001022
342.2047	0.000114
342.4185	0.001592
342.6324	0.000431
342.8463	-0.000287
343.0601	-0.000582
343.2740	0.000600
343.4879	0.001465
343.7019	0.000009
343.9158	0.001022
344.1297	0.000304
344.3437	0.001085
344.5577	0.000748
344.7717	0.000663
344.9857	0.000093
345.1997	-0.000371
345.4137	0.000009
345.6277	0.001423
345.8418	0.002267
346.0559	0.000959
346.2699	0.001064
346.4840	-0.001047
346.6981	0.000199
346.9123	0.000937
347.1264	0.001465
347.3406	-0.000456
347.5547	0.002499
347.7689	0.000368
347.9831	0.000769
348.1973	0.001127
348.4115	0.001613
348.6257	-0.000033
348.8400	0.001233
349.0542	0.001170
349.2685	-0.000244
349.4828	0.000494
349.6971	0.001929
349.9114	0.000558
350.1257	0.000600
350.3400	0.000494
350.5544	0.000114
350.7687	-0.000097
350.9831	0.000262
351.1975	0.000030
351.4119	-0.000160
351.6263	0.002373
351.8407	0.000642
352.0552	0.000157
352.2696	0.000726
352.4841	0.000093
352.6986	0.000072
352.9131	0.000241
353.1276	0.001571
353.3421	0.000769
353.5566	0.000389
353.7712	0.000072
353.9858	0.000769
354.2003	0.000114
354.4149	0.000178
354.6295	-0.000160
354.8441	-0.000498
355.0588	0.000853
355.2734	0.000515
355.4881	-0.000645
355.7027	0.001317
355.9174	-0.000603
356.1321	0.001149
356.3468	0.000663
356.5615	0.000769
356.7763	-0.000371
356.9910	0.002119
357.2058	0.000389
357.4206	0.001782
357.6353	0.000030
357.8501	0.001127
358.0650	0.000811
358.2798	-0.000962
358.4946	-0.000202
358.7095	0.002563
358.9243	-0.000012
359.1392	0.000853
359.3541	-0.000434
359.5690	0.001381
359.7839	0.000114
359.9989	0.000494
360.2138	0.000389
360.4288	0.000178
360.6438	0.000536
360.8587	0.000452
361.0737	0.000980
361.2888	-0.000055
361.5038	0.000283
361.7188	0.000093
361.9339	-0.000308
362.1489	0.001761
362.3640	0.001507
362.5791	0.001360
362.7942	0.000093
363.0093	0.000748
363.2245	0.000304
363.4396	0.001507
363.6548	0.000579
363.8699	-0.000371
364.0851	0.001824
364.3003	-0.000012
364.5155	-0.000118
364.7308	0.001845
364.9460	0.000621
365.1612	-0.001215
365.3765	0.000009
365.5918	-0.001110
365.8071	-0.000709
366.0224	0.001360
366.2377	0.000262
366.4530	0.001296
366.6684	0.000874
366.8837	0.000600
367.0991	-0.000097
367.3145	0.000452
367.5299	0.001486
367.7453	0.001761
367.9607	0.001191
368.1761	0.001296
368.3916	0.000536
368.6070	0.001360
368.8225	0.001085
369.0380	0.001170
369.2535	-0.000097
369.4690	0.001149
369.6845	0.001212
369.9001	0.000051
370.1156	0.000030
370.3312	0.001064
370.5468	-0.000540
370.7624	0.000093
370.9780	0.000811
371.1936	0.000389
371.4092	0.001275
371.6249	0.000895
371.8405	0.002077
372.0562	0.002499
372.2719	-0.000477
372.4876	0.000325
372.7033	0.000220
372.9190	0.001022
373.1348	-0.000118
373.3505	0.000072
373.5663	0.001170
373.7820	-0.000434
373.9978	-0.000266
374.2136	0.001254
374.4294	-0.000223
374.6453	0.000832
374.8611	0.000009
375.0770	0.001022
375.2928	0.000790
375.5087	0.000494
375.7246	0.000389
375.9405	0.001085
376.1564	-0.000308
376.3724	0.000494
376.5883	0.000220
376.8043	0.000959
377.0203	0.000832
377.2362	0.001317
377.4522	0.002014
377.6682	0.002879
377.8843	0.000832
378.1003	0.001254
378.3164	-0.000076
378.5324	0.001022
378.7485	0.000473
378.9646	0.001085
379.1807	0.000642
379.3968	0.001001
379.6129	-0.000519
379.8291	0.000536
380.0452	-0.000033
380.2614	0.000769
380.4776	-0.000434
380.6938	0.000009
380.9100	-0.001426
381.1262	0.001845
381.3424	0.000726
381.5587	0.002014
381.7749	-0.000033
381.9912	0.000705
382.2075	0.000937
382.4238	0.001022
382.6401	0.000304
382.8564	0.001550
383.0728	0.000072
383.2891	0.001803
383.5055	0.002077
383.7219	0.000410
383.9382	0.001824
384.1546	0.000916
384.3711	0.001824
384.5875	0.000937
384.8039	-0.000244
385.0204	0.001127
385.2368	0.001022
385.4533	-0.000097
385.6698	0.000579
385.8863	0.000811
386.1028	0.000874
386.3194	0.003175
386.5359	0.000452
386.7525	0.000937
386.9690	0.001254
387.1856	0.001043
387.4022	0.001381
387.6188	0.001761
387.8355	0.002563
388.0521	0.003344
388.2687	0.002267
388.4854	0.002542
388.7021	0.001043
388.9188	0.003428
389.1355	0.002858
389.3522	0.003491
389.5689	0.003977
389.7856	0.002457
390.0024	0.003808
390.2192	0.003301
390.4359	0.003660
390.6527	0.002542
390.8695	0.004504
391.0863	0.005391
391.3032	0.003027
391.5200	0.004399
391.7369	0.006277
391.9537	0.005201
392.1706	0.005940
392.3875	0.006151
392.6044	0.006932
392.8213	0.007607
393.0383	0.006889
393.2552	0.008409
393.4722	0.008325
393.6891	0.007987
393.9061	0.008747
394.1231	0.007607
394.3401	0.009359
394.5572	0.009211
394.7742	0.009464
394.9912	0.010224
395.2083	0.008240
395.4254	0.011301
395.6425	0.011216
395.8596	0.011723
396.0767	0.011301
396.2938	0.010942
396.5109	0.012229
396.7281	0.014066
396.9453	0.014129
397.1624	0.015184
397.3796	0.013538
397.5968	0.015100
397.8140	0.015437
398.0313	0.014994
398.2485	0.017379
398.4658	0.015775
398.6830	0.018920
398.9003	0.019342
399.1176	0.019638
399.3349	0.017569
399.5522	0.018519
399.7696	0.018371
399.9869	0.016007
400.2043	0.018456
400.4216	0.019068
400.6390	0.019659
400.8564	0.017379
401.0738	0.018329
401.2912	0.019194
401.5087	0.021432
401.7261	0.021389
401.9436	0.018899
402.1610	0.018308
402.3785	0.020440
402.5960	0.020334
402.8135	0.021537
403.0310	0.021495
403.2486	0.020798
403.4661	0.020693
403.6837	0.021980
403.9013	0.023226
404.1189	0.020503
404.3365	0.022086
404.5541	0.024070
404.7717	0.023648
404.9893	0.024302
405.2070	0.025125
405.4246	0.025336
405.6423	0.026180
405.8600	0.025864
406.0777	0.027426
406.2954	0.027194
406.5131	0.025695
406.7309	0.024154
406.9486	0.024534
407.1664	0.025442
407.3842	0.024935
407.6020	0.024830
407.8198	0.025864
408.0376	0.027172
408.2554	0.024513
408.4733	0.027088
408.6911	0.027848
408.9090	0.027890
409.1269	0.025801
409.3448	0.026877
409.5627	0.027658
409.7806	0.027595
409.9985	0.027595
410.2165	0.029030
410.4344	0.025463
410.6524	0.027975
410.8704	0.027489
411.0884	0.026392
411.3064	0.026117
411.5244	0.026961
411.7424	0.027088
411.9605	0.028692
412.1785	0.028270
412.3966	0.029178
412.6147	0.029515
412.8328	0.028861
413.0509	0.030360
413.2690	0.028967
413.4871	0.030275
413.7053	0.027341
413.9234	0.029410
414.1416	0.030191
414.3598	0.030402
414.5780	0.028354
414.7962	0.030043
415.0144	0.029325
415.2326	0.030360
415.4509	0.030486
415.6692	0.028164
415.8874	0.028840
416.1057	0.030887
416.3240	0.027975
416.5423	0.031352
416.7606	0.030613
416.9790	0.030001
417.1973	0.028777
417.4157	0.030993
417.6341	0.029283
417.8524	0.028777
418.0708	0.028967
418.2893	0.028861
418.5077	0.029368
418.7261	0.029874
418.9446	0.026497
419.1630	0.030782
419.3815	0.029684
419.6000	0.030528
419.8185	0.030528
420.0370	0.033568
420.2555	0.032850
420.4741	0.033314
420.6926	0.032259
420.9112	0.034539
421.1298	0.034560
421.3483	0.036459
421.5669	0.036311
421.7856	0.036734
422.0042	0.037135
422.2228	0.036945
422.4415	0.035573
422.6601	0.035467
422.8788	0.032512
423.0975	0.034750
423.3162	0.034264
423.5349	0.033040
423.7536	0.035531
423.9724	0.034222
424.1911	0.034623
424.4099	0.033462
424.6287	0.034391
424.8475	0.033293
425.0663	0.032365
425.2851	0.032892
425.5039	0.033441
425.7228	0.031837
425.9416	0.030866
426.1605	0.030233
426.3793	0.028755
426.5982	0.030782
426.8171	0.029346
427.0361	0.031626
427.2550	0.032280
427.4739	0.034074
427.6929	0.034243
427.9118	0.032407
428.1308	0.030402
428.3498	0.030592
428.5688	0.030254
428.7878	0.031246
429.0068	0.031288
429.2259	0.031330
429.4449	0.031900
429.6640	0.036544
429.8831	0.034201
430.1022	0.036122
430.3213	0.036396
430.5404	0.036523
430.7595	0.036248
430.9787	0.035341
431.1978	0.034792
431.4170	0.032892
431.6362	0.031246
431.8553	0.032344
432.0745	0.029304
432.2938	0.030233
432.5130	0.029199
432.7322	0.029199
432.9515	0.028038
433.1707	0.029304
433.3900	0.030592
433.6093	0.030549
433.8286	0.035763
434.0479	0.035172
434.2673	0.033357
434.4866	0.032639
434.7059	0.030212
434.9253	0.031710
435.1447	0.030064
435.3641	0.029916
435.5835	0.030824
435.8029	0.030549
436.0223	0.028967
436.2418	0.030402
436.4612	0.031647
436.6807	0.032154
436.9001	0.031584
437.1196	0.031098
437.3391	0.030423
437.5586	0.031753
437.7782	0.029747
437.9977	0.031183
438.2173	0.028228
438.4368	0.031584
438.6564	0.031119
438.8760	0.031774
439.0956	0.030676
439.3152	0.030571
439.5348	0.030486
439.7545	0.032407
439.9741	0.031689
440.1938	0.030908
440.4135	0.030571
440.6331	0.029515
440.8528	0.027637
441.0725	0.032723
441.2923	0.035868
441.5120	0.033715
441.7318	0.033990
441.9515	0.034475
442.1713	0.034412
442.3911	0.034391
442.6109	0.032491
442.8307	0.032322
443.0505	0.031584
443.2703	0.034285
443.4902	0.033251
443.7101	0.034306
443.9299	0.033779
444.1498	0.035045
444.3697	0.031816
444.5896	0.031541
444.8095	0.032090
445.0295	0.030634
445.2494	0.033040
445.4694	0.031900
445.6894	0.030972
445.9093	0.029705
446.1293	0.031563
446.3493	0.031098
446.5694	0.033525
446.7894	0.030423
447.0094	0.031985
447.2295	0.031014
447.4496	0.028692
447.6696	0.031014
447.8897	0.029283
448.1098	0.027763
448.3300	0.028397
448.5501	0.028608
448.7702	0.028080
448.9904	0.028122
449.2106	0.029579
449.4307	0.030613
449.6509	0.028777
449.8711	0.027595
450.0914	0.028481
450.3116	0.026370
450.5318	0.027151
450.7521	0.026223
450.9724	0.025611
451.1926	0.027975
451.4129	0.025273
451.6332	0.024935
451.8535	0.025526
452.0739	0.024534
452.2942	0.024429
452.5146	0.023838
452.7349	0.027362
452.9553	0.025083
453.1757	0.023817
453.3961	0.022149
453.6165	0.022445
453.8369	0.021537
454.0574	0.021769
454.2778	0.021052
454.4983	0.020102
454.7188	0.022719
454.9393	0.022698
455.1597	0.021305
455.3803	0.022761
455.6008	0.021833
455.8213	0.020988
456.0419	0.021284
456.2624	0.018519
456.4830	0.020524
456.7036	0.021748
456.9242	0.021115
457.1448	0.018730
457.3654	0.022255
457.5860	0.019068
457.8067	0.019574
458.0274	0.023120
458.2480	0.022972
458.4687	0.020862
458.6894	0.020967
458.9101	0.021727
459.1308	0.021094
459.3516	0.020672
459.5723	0.023099
459.7931	0.021980
460.0138	0.021284
460.2346	0.019638
460.4554	0.020482
460.6762	0.020482
460.8970	0.019680
461.1178	0.021052
461.3387	0.021009
461.5595	0.019131
461.7804	0.018899
462.0013	0.018561
462.2222	0.018308
462.4431	0.016535
462.6640	0.016936
462.8849	0.017042
463.1059	0.015015
463.3268	0.017189
463.5478	0.017147
463.7687	0.018941
463.9897	0.015648
464.2107	0.017970
464.4317	0.017801
464.6528	0.018287
464.8738	0.018730
465.0948	0.017569
465.3159	0.018878
465.5370	0.016366
465.7581	0.018920
465.9792	0.019785
466.2003	0.018962
466.4214	0.018012
466.6425	0.014931
466.8637	0.016134
467.0848	0.016028
467.3060	0.013876
467.5272	0.013749
467.7484	0.013707
467.9696	0.014572
468.1908	0.014488
468.4120	0.012314
468.6333	0.013411
468.8545	0.011090
469.0758	0.013074
469.2970	0.012314
469.5183	0.012862
469.7396	0.011512
469.9610	0.009654
470.1823	0.010921
470.4036	0.011617
470.6250	0.011301
470.8463	0.011849
471.0677	0.008895
471.2891	0.011280
471.5105	0.010098
471.7319	0.010140
471.9533	0.009865
472.1748	0.010140
472.3962	0.007987
472.6177	0.010815
472.8391	0.008662
473.0606	0.010393
473.2821	0.011195
473.5036	0.011153
473.7251	0.010773
473.9467	0.011195
474.1682	0.008747
474.3898	0.009401
474.6113	0.009443
474.8329	0.009000
475.0545	0.009865
475.2761	0.010182
475.4977	0.008937
475.7193	0.010625
475.9410	0.009190
476.1626	0.009359
476.3843	0.010245
476.6060	0.009401
476.8277	0.009929
477.0494	0.009485
477.2711	0.009760
477.4928	0.010646
477.7145	0.007459
477.9363	0.009908
478.1580	0.010013
478.3798	0.010034
478.6016	0.008852
478.8234	0.008367
479.0452	0.007860
479.2670	0.008304
479.4888	0.006636
479.7107	0.008916
479.9325	0.007354
480.1544	0.007903
480.3763	0.007143
480.5982	0.007755
480.8201	0.008662
481.0420	0.009063
481.2639	0.009253
481.4859	0.006341
481.7078	0.006467
481.9298	0.007143
482.1517	0.009190
482.3737	0.008325
482.5957	0.007565
482.8177	0.006488
483.0398	0.007417
483.2618	0.007860
483.4838	0.007924
483.7059	0.006995
483.9280	0.006805
484.1501	0.007185
484.3721	0.007185
484.5943	0.007396
484.8164	0.007945
485.0385	0.008114
485.2606	0.006383
485.4828	0.010815
485.7050	0.015754
485.9271	0.019321
486.1493	0.022086
486.3715	0.016366
486.5937	0.014657
486.8160	0.012208
487.0382	0.011934
487.2605	0.011596
487.4827	0.009697
487.7050	0.008219
487.9273	0.006467
488.1496	0.005855
488.3719	0.005011
488.5942	0.005560
488.8165	0.005159
489.0389	0.005306
489.2612	0.006277
489.4836	0.005982
489.7060	0.004652
489.9284	0.006763
490.1508	0.005264
490.3732	0.004990
490.5956	0.005074
490.8180	0.004504
491.0405	0.005412
491.2630	0.006467
491.4854	0.006298
491.7079	0.004737
491.9304	0.003956
492.1529	0.004568
492.3755	0.005243
492.5980	0.004082
492.8205	0.005433
493.0431	0.005961
493.2657	0.003386
493.4882	0.004779
493.7108	0.003935
493.9334	0.004293
494.1561	0.004019
494.3787	0.005222
494.6013	0.005074
494.8240	0.004146
495.0466	0.004927
495.2693	0.004673
495.4920	0.004652
495.7147	0.004694
495.9374	0.004336
496.1601	0.004526
496.3829	0.003512
496.6056	0.002774
496.8284	0.005328
497.0511	0.003998
497.2739	0.004547
497.4967	0.004758
497.7195	0.004652
497.9423	0.002943
498.1652	0.003702
498.3880	0.003196
498.6109	0.003154
498.8337	0.003217
499.0566	0.004230
499.2795	0.003935
499.5024	0.002795
499.7253	0.004082
499.9482	0.004652
500.1712	0.004462
500.3941	0.003618
500.6171	0.003217
500.8400	0.003892
501.0630	0.004082
501.2860	0.004040
501.5090	0.004146
501.7320	0.002246
501.9551	0.003048
502.1781	0.003597
502.4012	0.002837
502.6242	0.004040
502.8473	0.003301
503.0704	0.003702
503.2935	0.004779
503.5166	0.003196
503.7397	0.005095
503.9628	0.002753
504.1860	0.003534
504.4092	0.003386
504.6323	0.003196
504.8555	0.004293
505.0787	0.002520
505.3019	0.001761
505.5251	0.002985
505.7483	0.002689
505.9716	0.003111
506.1948	0.003069
506.4181	0.003956
506.6414	0.003280
506.8647	0.004146
507.0880	0.004504
507.3113	0.001951
507.5346	0.002436
507.7579	0.004673
507.9813	0.002288
508.2046	0.003259
508.4280	0.004251
508.6514	0.004040
508.8748	0.001951
509.0982	0.004336
509.3216	0.003322
509.5450	0.002689
509.7685	0.003217
509.9919	0.003069
510.2154	0.002542
510.4388	0.002183
510.6623	0.002921
510.8858	0.004610
511.1093	0.003597
511.3329	0.002985
511.5564	0.004547
511.7799	0.004526
512.0035	0.003534
512.2270	0.002774
512.4506	0.003555
512.6742	0.002879
512.8978	0.004146
513.1214	0.003808
513.3451	0.003259
513.5687	0.004188
513.7923	0.003280
514.0160	0.003449
514.2397	0.003449
514.4634	0.003639
514.6871	0.003745
514.9108	0.003259
515.1345	0.002837
515.3582	0.004969
515.5819	0.002478
515.8057	0.004019
516.0295	0.002457
516.2532	0.005032
516.4770	0.003111
516.7008	0.003217
516.9246	0.002098
517.1485	0.002774
517.3723	0.002014
517.5961	0.002985
517.8200	0.004462
518.0439	0.002753
518.2677	0.004082
518.4916	0.002900
518.7155	0.003322
518.9395	0.003681
519.1634	0.003618
519.3873	0.004209
519.6113	0.003238
519.8352	0.004040
520.0592	0.004969
520.2832	0.004357
520.5072	0.003913
520.7312	0.003449
520.9552	0.005243
521.1792	0.003681
521.4033	0.004631
521.6273	0.002584
521.8514	0.003534
522.0755	0.003723
522.2996	0.003512
522.5237	0.003681
522.7478	0.004251
522.9719	0.002584
523.1960	0.004188
523.4202	0.002900
523.6443	0.004019
523.8685	0.003111
524.0927	0.003428
524.3169	0.003808
524.5411	0.004863
524.7653	0.003977
524.9895	0.005243
525.2138	0.003090
525.4380	0.004800
525.6623	0.003196
525.8865	0.005644
526.1108	0.003935
526.3351	0.004209
526.5594	0.005116
526.7837	0.004652
527.0081	0.003660
527.2324	0.004568
527.4568	0.004146
527.6811	0.005116
527.9055	0.005306
528.1299	0.004441
528.3543	0.004969
528.5787	0.006636
528.8031	0.005306
529.0276	0.006594
529.2520	0.006130
529.4765	0.004863
529.7009	0.003998
529.9254	0.003913
530.1499	0.005243
530.3744	0.006488
530.5989	0.005306
530.8234	0.006636
531.0480	0.006235
531.2725	0.004779
531.4971	0.004504
531.7217	0.005349
531.9462	0.006425
532.1708	0.006721
532.3954	0.004969
532.6200	0.006805
532.8447	0.005982
533.0693	0.006531
533.2940	0.005961
533.5186	0.006742
533.7433	0.007459
533.9680	0.008873
534.1927	0.006636
534.4174	0.006932
534.6421	0.007058
534.8668	0.007544
535.0916	0.006573
535.3163	0.008726
535.5411	0.007565
535.7659	0.008747
535.9907	0.008071
536.2155	0.008852
536.4403	0.007290
536.6651	0.009127
536.8899	0.008599
537.1148	0.009908
537.3396	0.007100
537.5645	0.007839
537.7894	0.008557
538.0143	0.009401
538.2392	0.007839
538.4641	0.010477
538.6890	0.010013
538.9139	0.008451
539.1389	0.009021
539.3638	0.011469
539.5888	0.011617
539.8138	0.010414
540.0388	0.009865
540.2638	0.011744
540.4888	0.011195
540.7138	0.011406
540.9389	0.011491
541.1639	0.010689
541.3890	0.011469
541.6140	0.011512
541.8391	0.012440
542.0642	0.012461
542.2893	0.011575
542.5144	0.014234
542.7396	0.014234
542.9647	0.012398
543.1899	0.012989
543.4150	0.013242
543.6402	0.013200
543.8654	0.014129
544.0906	0.014678
544.3158	0.015121
544.5410	0.013918
544.7662	0.016767
544.9915	0.016915
545.2167	0.015986
545.4420	0.016472
545.6673	0.015079
545.8926	0.015058
546.1179	0.016092
546.3432	0.014129
546.5685	0.015986
546.7938	0.014255
547.0192	0.014635
547.2445	0.017443
547.4699	0.016704
547.6953	0.016261
547.9206	0.019595
548.1460	0.020292
548.3715	0.019405
548.5969	0.019131
548.8223	0.020904
549.0478	0.020482
549.2732	0.019616
549.4987	0.018519
549.7242	0.017759
549.9496	0.017865
550.1751	0.019427
550.4007	0.018962
550.6262	0.019722
550.8517	0.019237
551.0773	0.019300
551.3028	0.018793
551.5284	0.018308
551.7540	0.019722
551.9796	0.023500
552.2052	0.022086
552.4308	0.021938
552.6564	0.022846
552.8820	0.023753
553.1077	0.022804
553.3333	0.024872
553.5590	0.022930
553.7847	0.021326
554.0104	0.024007
554.2361	0.024197
554.4618	0.024724
554.6875	0.020841
554.9132	0.023606
555.1390	0.023057
555.3648	0.023120
555.5905	0.025991
555.8163	0.025779
556.0421	0.028692
556.2679	0.027447
556.4937	0.026159
556.7195	0.025885
556.9454	0.026286
557.1712	0.024070
557.3971	0.026075
557.6230	0.025948
557.8488	0.029241
558.0747	0.027932
558.3006	0.027616
558.5266	0.025273
558.7525	0.023922
558.9784	0.025189
559.2044	0.027088
559.4303	0.026054
559.6563	0.027679
559.8823	0.029452
560.1083	0.029325
560.3343	0.030676
560.5603	0.031352
560.7863	0.033631
561.0124	0.035552
561.2384	0.036586
561.4645	0.035995
561.6905	0.036396
561.9166	0.037747
562.1427	0.035763
562.3688	0.033842
562.5949	0.035235
562.8211	0.033146
563.0472	0.033525
563.2733	0.036501
563.4995	0.036185
563.7257	0.035298
563.9519	0.037472
564.1781	0.037303
564.4043	0.039330
564.6305	0.041039
564.8567	0.039984
565.0829	0.040174
565.3092	0.040870
565.5355	0.042263
565.7617	0.040153
565.9880	0.041546
566.2143	0.042411
566.4406	0.042095
566.6669	0.043910
566.8932	0.044691
567.1196	0.047244
567.3459	0.052394
567.5723	0.056151
567.7987	0.055180
568.0250	0.058114
568.2514	0.059929
568.4778	0.062758
568.7043	0.065565
568.9307	0.069955
569.1571	0.072889
569.3836	0.077975
569.6100	0.086207
569.8365	0.095324
570.0630	0.101614
570.2895	0.106764
570.5160	0.104506
570.7425	0.105371
570.9690	0.114215
571.1956	0.123248
571.4221	0.125274
571.6487	0.129706
571.8752	0.140534
572.1018	0.140027
572.3284	0.139859
572.5550	0.134540
572.7816	0.119174
573.0082	0.117676
573.2349	0.125422
573.4615	0.140808
573.6882	0.150454
573.9149	0.157883
574.1415	0.158137
574.3682	0.170188
574.5949	0.174768
574.8216	0.171687
575.0484	0.173903
575.2751	0.176668
575.5018	0.175697
575.7286	0.169492
575.9554	0.163498
576.1821	0.158179
576.4089	0.165270
576.6357	0.174916
576.8626	0.180340
577.0894	0.186250
577.3162	0.191189
577.5431	0.201278
577.7699	0.217023
577.9968	0.251426
578.2237	0.243596
578.4505	0.233422
578.6774	0.218543
578.9044	0.206470
579.1313	0.192497
579.3582	0.194692
579.5851	0.207377
579.8121	0.208074
580.0391	0.210860
580.2660	0.207567
580.4930	0.210670
580.7200	0.207905
580.9470	0.208158
581.1741	0.241675
581.4011	0.290050
581.6281	0.320296
581.8552	0.324242
582.0822	0.319599
582.3093	0.306809
582.5364	0.288045
582.7635	0.268438
582.9906	0.240831
583.2177	0.227829
583.4449	0.215271
583.6720	0.202164
583.8991	0.195051
584.1263	0.198133
584.3535	0.199336
584.5807	0.203726
584.8079	0.211683
585.0351	0.229644
585.2623	0.235449
585.4895	0.240620
585.7167	0.237200
585.9440	0.233655
586.1713	0.214089
586.3985	0.211071
586.6258	0.201594
586.8531	0.202143
587.0804	0.216770
587.3077	0.227238
587.5350	0.233570
587.7624	0.231016
587.9897	0.215820
588.2171	0.208580
588.4445	0.207082
588.6718	0.199146
588.8992	0.193067
589.1266	0.175971
589.3540	0.168563
589.5815	0.166579
589.8089	0.165102
590.0363	0.163329
590.2638	0.159445
590.4913	0.154211
590.7187	0.145958
590.9462	0.139922
591.1737	0.132999
591.4012	0.129749
591.6288	0.133780
591.8563	0.131902
592.0838	0.134012
592.3114	0.132725
592.5389	0.154380
592.7665	0.183126
592.9941	0.196719
593.2217	0.202333
593.4493	0.199209
593.6769	0.203008
593.9046	0.195874
594.1322	0.184941
594.3598	0.174536
594.5875	0.174874
594.8152	0.183823
595.0429	0.197542
595.2705	0.205837
595.4983	0.196782
595.7260	0.190471
595.9537	0.173966
596.1814	0.163983
596.4092	0.156026
596.6369	0.147098
596.8647	0.144502
597.0925	0.145642
597.3203	0.152016
597.5481	0.153198
597.7759	0.154000
598.0037	0.151361
598.2315	0.142729
598.4594	0.144016
598.6872	0.157862
598.9151	0.177512
599.1430	0.188044
599.3709	0.190134
599.5988	0.181839
599.8267	0.179707
600.0546	0.185047
600.2825	0.190302
600.5105	0.184773
600.7384	0.186250
600.9664	0.185849
601.1944	0.191906
601.4223	0.188445
601.6503	0.184372
601.8783	0.170441
602.1064	0.170610
602.3344	0.168014
602.5624	0.169407
602.7905	0.172763
603.0185	0.178757
603.2466	0.181248
603.4747	0.190767
603.7028	0.193152
603.9309	0.184160
604.1590	0.174620
604.3871	0.173523
604.6152	0.165798
604.8434	0.160965
605.0715	0.155076
605.2997	0.158854
605.5279	0.165967
605.7561	0.177533
605.9843	0.174916
606.2125	0.172911
606.4407	0.166495
606.6689	0.160163
606.8972	0.156469
607.1254	0.159361
607.3537	0.162843
607.5819	0.164278
607.8102	0.162316
608.0385	0.154823
608.2668	0.149694
608.4951	0.153556
608.7235	0.145621
608.9518	0.145557
609.1801	0.141062
609.4085	0.136102
609.6369	0.133020
609.8653	0.140682
610.0936	0.150517
610.3220	0.155351
610.5505	0.145599
610.7789	0.144629
611.0073	0.139880
611.2357	0.139880
611.4642	0.139225
611.6927	0.138170
611.9211	0.139415
612.1496	0.135004
612.3781	0.131205
612.6066	0.131289
612.8351	0.132577
613.0637	0.130804
613.2922	0.131564
613.5208	0.131268
613.7493	0.128588
613.9779	0.129094
614.2065	0.131247
614.4351	0.133105
614.6637	0.128904
614.8923	0.127870
615.1209	0.126287
615.3495	0.131690
615.5782	0.133928
615.8068	0.133168
616.0355	0.126688
616.2642	0.122573
616.4929	0.115439
616.7216	0.113645
616.9503	0.113434
617.1790	0.111112
617.4077	0.110922
617.6365	0.111492
617.8652	0.111977
618.0940	0.112399
618.3227	0.114003
618.5515	0.105244
618.7803	0.099672
619.0091	0.093045
619.2379	0.093636
619.4667	0.094185
619.6956	0.093256
619.9244	0.095599
620.1533	0.095451
620.3821	0.100390
620.6110	0.096992
620.8399	0.089921
621.0688	0.083484
621.2977	0.078144
621.5266	0.074324
621.7556	0.078228
621.9845	0.082133
622.2135	0.085742
622.4424	0.082386
622.6714	0.088866
622.9004	0.087663
623.1294	0.089710
623.3584	0.089942
623.5874	0.091694
623.8164	0.090576
624.0454	0.087114
624.2745	0.087874
624.5035	0.090111
624.7326	0.094121
624.9617	0.090048
625.1908	0.087389
625.4199	0.084497
625.6490	0.083737
625.8781	0.079368
626.1072	0.077511
626.3364	0.075231
626.5655	0.072213
626.7947	0.071137
627.0238	0.070208
627.2530	0.071685
627.4822	0.070715
627.7114	0.072065
627.9406	0.069490
628.1698	0.062969
628.3991	0.062462
628.6283	0.058156
628.8576	0.060816
629.0868	0.060204
629.3161	0.063707
629.5454	0.066325
629.7747	0.062990
630.0040	0.061808
630.2333	0.061280
630.4626	0.060225
630.6920	0.058156
630.9213	0.057798
631.1507	0.056573
631.3801	0.054758
631.6094	0.053091
631.8388	0.053049
632.0682	0.054779
632.2976	0.053365
632.5271	0.051487
632.7565	0.048996
632.9859	0.045007
633.2154	0.046970
633.4448	0.046717
633.6743	0.048785
633.9038	0.045092
634.1333	0.045936
634.3628	0.043551
634.5923	0.043699
634.8218	0.043044
635.0514	0.043889
635.2809	0.040638
635.5105	0.041166
635.7400	0.041715
635.9696	0.042664
636.1992	0.044627
636.4288	0.046421
636.6584	0.046105
636.8880	0.044775
637.1177	0.047667
637.3473	0.041757
637.5770	0.040512
637.8066	0.043678
638.0363	0.042158
638.2660	0.043509
638.4957	0.044395
638.7254	0.043277
638.9551	0.043656
639.1848	0.042812
639.4145	0.039942
639.6443	0.038976
639.8740	0.039146
640.1038	0.037559
640.3336	0.038673
640.5633	0.037773
640.7931	0.038523
641.0229	0.034977
641.2528	0.034678
641.4826	0.034069
641.7124	0.033427
641.9423	0.031996
642.1721	0.033482
642.4020	0.031505
642.6319	0.031924
642.8617	0.030580
643.0916	0.029647
643.3216	0.031399
643.5515	0.031962
643.7814	0.028941
644.0113	0.031751
644.2413	0.028404
644.4712	0.029402
644.7012	0.028842
644.9312	0.027168
645.1612	0.029612
645.3912	0.026500
645.6212	0.026527
645.8512	0.027622
646.0812	0.024766
646.3113	0.026799
646.5413	0.025991
646.7714	0.026206
647.0015	0.024464
647.2316	0.024824
647.4616	0.024176
647.6918	0.025645
647.9219	0.028035
648.1520	0.030658
648.3821	0.031237
648.6123	0.033526
648.8424	0.033480
649.0726	0.034987
649.3028	0.036091
649.5329	0.033710
649.7631	0.031778
649.9933	0.032341
650.2236	0.031714
650.4538	0.030866
650.6840	0.028208
650.9143	0.029964
651.1445	0.029056
651.3748	0.029201
651.6051	0.027881
651.8354	0.030649
652.0657	0.029934
652.2960	0.032496
652.5263	0.032730
652.7566	0.033302
652.9870	0.031374
653.2173	0.034165
653.4477	0.034430
653.6780	0.034354
653.9084	0.033185
654.1388	0.034384
654.3692	0.034269
654.5996	0.036220
654.8300	0.041781
655.0605	0.069503
655.2909	0.192176
655.5213	0.530959
655.7518	0.964509
655.9823	1.000000
656.2128	1.000000
656.4433	1.000000
656.6738	1.000000
656.9043	1.000000
657.1348	0.871618
657.3653	0.719025
657.5959	0.614655
657.8264	0.530976
658.0570	0.491472
658.2875	0.451919
658.5181	0.413008
658.7487	0.379576
658.9793	0.369044
659.2099	0.331542
659.4406	0.256221
659.6712	0.170923
659.9018	0.097686
660.1325	0.061359
660.3632	0.040647
660.5938	0.032219
660.8245	0.026300
661.0552	0.025458
661.2859	0.024355
661.5166	0.026183
661.7474	0.023956
661.9781	0.022956
662.2088	0.023496
662.4396	0.023754
662.6704	0.022300
662.9011	0.022067
663.1319	0.022362
663.3627	0.023353
663.5935	0.021046
663.8243	0.022722
664.0552	0.020631
664.2860	0.022632
664.5168	0.023208
664.7477	0.024503
664.9786	0.024784
665.2094	0.024040
665.4403	0.024717
665.6712	0.023718
665.9021	0.023381
666.1330	0.023188
666.3640	0.022885
666.5949	0.021998
666.8259	0.020639
667.0568	0.021150
667.2878	0.022185
667.5188	0.022381
667.7497	0.021936
667.9807	0.021676
668.2117	0.020233
668.4428	0.021600
668.6738	0.021685
668.9048	0.021790
669.1359	0.022804
669.3669	0.020735
669.5980	0.021326
669.8291	0.021368
670.0602	0.022128
670.2913	0.022846
670.5224	0.022740
670.7535	0.021812
670.9846	0.020630
671.2157	0.023943
671.4469	0.026497
671.6781	0.030718
671.9092	0.031436
672.1404	0.034750
672.3716	0.035172
672.6028	0.033378
672.8340	0.035953
673.0652	0.033610
673.2964	0.031035
673.5277	0.031731
673.7589	0.030148
673.9902	0.029832
674.2214	0.028291
674.4527	0.029663
674.6840	0.028228
674.9153	0.025484
675.1466	0.026096
675.3779	0.027679
675.6093	0.026603
675.8406	0.028502
676.0719	0.027362
676.3033	0.025948
676.5347	0.026497
676.7661	0.025463
676.9974	0.024703
677.2288	0.025568
677.4602	0.024745
677.6917	0.027109
677.9231	0.028164
678.1545	0.029093
678.3860	0.028439
678.6174	0.031204
678.8489	0.029684
679.0804	0.033399
679.3119	0.030824
679.5434	0.035636
679.7749	0.033948
680.0064	0.036670
680.2379	0.036122
680.4694	0.036016
680.7010	0.038127
680.9325	0.035193
681.1641	0.033884
681.3957	0.035932
681.6273	0.034412
681.8589	0.036544
682.0905	0.034644
682.3221	0.034370
682.5537	0.031373
682.7854	0.032365
683.0170	0.030465
683.2487	0.033209
683.4803	0.033061
683.7120	0.033694
683.9437	0.033800
684.1754	0.033547
684.4071	0.034496
684.6388	0.039055
684.8705	0.039857
685.1023	0.041672
685.3340	0.043509
685.5658	0.044269
685.7975	0.045450
686.0293	0.044965
686.2611	0.045725
686.4929	0.045830
686.7247	0.042411
686.9565	0.042095
687.1883	0.044163
687.4202	0.046105
687.6520	0.043065
687.8838	0.042390
688.1157	0.041841
688.3476	0.041250
688.5795	0.039541
688.8114	0.036734
689.0433	0.038232
689.2752	0.036945
689.5071	0.037641
689.7390	0.035721
689.9710	0.037367
690.2029	0.033884
690.4349	0.034032
690.6669	0.035214
690.8988	0.035003
691.1308	0.035974
691.3628	0.039815
691.5948	0.036881
691.8269	0.038781
692.0589	0.038148
692.2909	0.037451
692.5230	0.037958
692.7550	0.038950
692.9871	0.039456
693.2192	0.040680
693.4513	0.040723
693.6834	0.040870
693.9155	0.038401
694.1476	0.035974
694.3797	0.034327
694.6119	0.032977
694.8440	0.033821
695.0762	0.033926
695.3083	0.036881
695.5405	0.033631
695.7727	0.031626
696.0049	0.029220
696.2371	0.030676
696.4693	0.033399
696.7016	0.037831
696.9338	0.039477
697.1660	0.038633
697.3983	0.039076
697.6306	0.037303
697.8628	0.038021
698.0951	0.038042
698.3274	0.041483
698.5597	0.037346
698.7920	0.039140
699.0243	0.035636
699.2567	0.036818
699.4890	0.034159
699.7214	0.034961
699.9537	0.034264
700.1861	0.029579
700.4185	0.031900
700.6509	0.031795
700.8833	0.030908
701.1157	0.031014
701.3481	0.027109
701.5806	0.026539
701.8130	0.028544
702.0454	0.028798
702.2779	0.028354
702.5104	0.031626
702.7429	0.032512
702.9753	0.029811
703.2078	0.029135
703.4403	0.028671
703.6729	0.029283
703.9054	0.028291
704.1379	0.027320
704.3705	0.028819
704.6030	0.027405
704.8356	0.025189
705.0682	0.025991
705.3008	0.026518
705.5334	0.024112
705.7660	0.026265
705.9986	0.025146
706.2312	0.029980
706.4638	0.031098
706.6965	0.033737
706.9291	0.036058
707.1618	0.037916
707.3945	0.039034
707.6272	0.037831
707.8599	0.038507
708.0926	0.040026
708.3253	0.040870
708.5580	0.037599
708.7907	0.036839
709.0235	0.037219
709.2562	0.037852
709.4890	0.034813
709.7217	0.032723
709.9545	0.033779
710.1873	0.033378
710.4201	0.035594
710.6529	0.035193
710.8857	0.035108
711.1186	0.033441
711.3514	0.032491
711.5842	0.033568
711.8171	0.029895
712.0500	0.027552
712.2828	0.029684
712.5157	0.029030
712.7486	0.030444
712.9815	0.029093
713.2144	0.030022
713.4474	0.032512
713.6803	0.033167
713.9132	0.033547
714.1462	0.034032
714.3791	0.036206
714.6121	0.035742
714.8451	0.032871
715.0781	0.036079
715.3111	0.036206
715.5441	0.036143
715.7771	0.034454
716.0102	0.034454
716.2432	0.031626
716.4762	0.030866
716.7093	0.028988
716.9424	0.028418
717.1754	0.027320
717.4085	0.029557
717.6416	0.027025
717.8747	0.029853
718.1078	0.030402
718.3410	0.030148
718.5741	0.028692
718.8072	0.028988
719.0404	0.028734
719.2736	0.030106
719.5067	0.031373
719.7399	0.030739
719.9731	0.028882
720.2063	0.029072
720.4395	0.027616
720.6727	0.031204
720.9060	0.030993
721.1392	0.030212
721.3725	0.030739
721.6057	0.032491
721.8390	0.031077
722.0723	0.030613
722.3055	0.028291
722.5388	0.028439
722.7721	0.027194
723.0055	0.028777
723.2388	0.027151
723.4721	0.028565
723.7055	0.028249
723.9388	0.027763
724.1722	0.028819
724.4056	0.028629
724.6389	0.029769
724.8723	0.028460
725.1057	0.030908
725.3391	0.034011
725.5726	0.033251
725.8060	0.033779
726.0394	0.031710
726.2729	0.032238
726.5063	0.033715
726.7398	0.034433
726.9733	0.034623
727.2068	0.032850
727.4403	0.031921
727.6738	0.034813
727.9073	0.033779
728.1408	0.035657
728.3743	0.035953
728.6079	0.035467
728.8414	0.036523
729.0750	0.033652
729.3086	0.034665
729.5421	0.036396
729.7757	0.037916
730.0093	0.037177
730.2429	0.034454
730.4766	0.036797
730.7102	0.040469
730.9438	0.043171
731.1775	0.043108
731.4111	0.043192
731.6448	0.043108
731.8785	0.044944
732.1122	0.042200
732.3458	0.041483
732.5795	0.043656
732.8133	0.043593
733.0470	0.045936
733.2807	0.043298
733.5145	0.043614
733.7482	0.045261
733.9820	0.050706
734.2157	0.051424
734.4495	0.051360
734.6833	0.051508
734.9171	0.049355
735.1509	0.048384
735.3847	0.048912
735.6185	0.050052
735.8524	0.050136
736.0862	0.046780
736.3201	0.048680
736.5539	0.047835
736.7878	0.048954
737.0217	0.050685
737.2556	0.049524
737.4895	0.049397
737.7234	0.045830
737.9573	0.043213
738.1912	0.041905
738.4252	0.040976
738.6591	0.040934
738.8931	0.043361
739.1271	0.044501
739.3610	0.047667
739.5950	0.049292
739.8290	0.046569
740.0630	0.043044
740.2970	0.042939
740.5310	0.040913
740.7651	0.041504
740.9991	0.040512
741.2332	0.035953
741.4672	0.033800
741.7013	0.034095
741.9354	0.034750
742.1695	0.033694
742.4036	0.035277
742.6377	0.036649
742.8718	0.036311
743.1059	0.035298
743.3400	0.032470
743.5742	0.032322
743.8083	0.029726
744.0425	0.031373
744.2767	0.030254
744.5108	0.029705
744.7450	0.029473
744.9792	0.030233
745.2134	0.029220
745.4477	0.031352
745.6819	0.029093
745.9161	0.029030
746.1504	0.030022
746.3846	0.029726
746.6189	0.027932
746.8532	0.027531
747.0874	0.030170
747.3217	0.029832
747.5560	0.032913
747.7903	0.031520
748.0247	0.030148
748.2590	0.030064
748.4933	0.029895
748.7277	0.029262
748.9620	0.029937
749.1964	0.030908
749.4308	0.031563
749.6652	0.035847
749.8995	0.037282
750.1339	0.038169
750.3684	0.039161
750.6028	0.043466
750.8372	0.040617
751.0717	0.037557
751.3061	0.039013
751.5406	0.042707
751.7750	0.038781
752.0095	0.040364
752.2440	0.038549
752.4785	0.038633
752.7130	0.038971
752.9475	0.037156
753.1820	0.037451
753.4166	0.039583
753.6511	0.042010
753.8856	0.041356
754.1202	0.041250
754.3548	0.040533
754.5894	0.041694
754.8239	0.040533
755.0585	0.038317
755.2931	0.040786
755.5278	0.044754
755.7624	0.043445
755.9970	0.045873
756.2317	0.045788
756.4663	0.048342
756.7010	0.050242
756.9356	0.051276
757.1703	0.053260
757.4050	0.057397
757.6397	0.058790
757.8744	0.061048
758.1091	0.060605
758.3438	0.055961
758.5786	0.055096
758.8133	0.054167
759.0481	0.053196
759.2828	0.057207
759.5176	0.061069
759.7524	0.059444
759.9872	0.060520
760.2220	0.064151
760.4568	0.062800
760.6916	0.064362
760.9264	0.064889
761.1613	0.063750
761.3961	0.059929
761.6310	0.056932
761.8658	0.051635
762.1007	0.050811
762.3356	0.049967
762.5705	0.050073
762.8054	0.047962
763.0403	0.050157
763.2752	0.049798
763.5101	0.049461
763.7450	0.050410
763.9800	0.052458
764.2149	0.053133
764.4499	0.055286
764.6849	0.061090
764.9198	0.058557
765.1548	0.058768
765.3898	0.056806
765.6248	0.054210
765.8599	0.051782
766.0949	0.051044
766.3299	0.047878
766.5650	0.045788
766.8000	0.042538
767.0351	0.040828
767.2701	0.038232
767.5052	0.039119
767.7403	0.039055
767.9754	0.040934
768.2105	0.044796
768.4456	0.046379
768.6808	0.048849
768.9159	0.050811
769.1510	0.048342
769.3862	0.046696
769.6214	0.047561
769.8565	0.047582
770.0917	0.045134
770.3269	0.044859
770.5621	0.047688
770.7973	0.048342
771.0325	0.047688
771.2677	0.050980
771.5030	0.048300
771.7382	0.045704
771.9735	0.043656
772.2087	0.041989
772.4440	0.040680
772.6793	0.040870
772.9146	0.041461
773.1499	0.040469
773.3852	0.039393
773.6205	0.038675
773.8558	0.037747
774.0911	0.038211
774.3265	0.035910
774.5618	0.034665
774.7972	0.031985
775.0326	0.031436
775.2679	0.030887
775.5033	0.028544
775.7387	0.028945
775.9741	0.026476
776.2095	0.027911
776.4450	0.025758
776.6804	0.025611
776.9158	0.026729
777.1513	0.027384
777.3868	0.026434
777.6222	0.025421
777.8577	0.024450
778.0932	0.024070
778.3287	0.027004
778.5642	0.027004
778.7997	0.028249
779.0352	0.029684
779.2707	0.032280
779.5063	0.031964
779.7418	0.031668
779.9774	0.030929
780.2130	0.030106
780.4485	0.027827
780.6841	0.030423
780.9197	0.030887
781.1553	0.033146
781.3909	0.035404
781.6265	0.035193
781.8622	0.035573
782.0978	0.035678
782.3335	0.036185
782.5691	0.036860
782.8048	0.035742
783.0405	0.032449
783.2761	0.033525
783.5118	0.034771
783.7475	0.036691
783.9832	0.033737
784.2190	0.032723
784.4547	0.030296
784.6904	0.033167
784.9262	0.030866
785.1619	0.031288
785.3977	0.030127
785.6335	0.029600
785.8692	0.029368
786.1050	0.029895
786.3408	0.025210
786.5766	0.028713
786.8124	0.028945
787.0483	0.025294
787.2841	0.030001
787.5199	0.031457
787.7558	0.029853
787.9917	0.030402
788.2275	0.032132
788.4634	0.031964
788.6993	0.031584
788.9352	0.032175
789.1711	0.034116
789.4070	0.030360
789.6429	0.027616
789.8789	0.029452
790.1148	0.025189
790.3507	0.026518
790.5867	0.026054
790.8227	0.024260
791.0586	0.024049
791.2946	0.026560
791.5306	0.026033
791.7666	0.024555
792.0026	0.023817
792.2387	0.022972
792.4747	0.023141
792.7107	0.023120
792.9468	0.022592
793.1828	0.022635
793.4189	0.022023
793.6550	0.024935
793.8910	0.027616
794.1271	0.029220
794.3632	0.031162
794.5993	0.032259
794.8355	0.031584
795.0716	0.033314
795.3077	0.032597
795.5439	0.033167
795.7800	0.031900
796.0162	0.029325
796.2523	0.025336
796.4885	0.023690
796.7247	0.021516
796.9609	0.021664
797.1971	0.021115
797.4333	0.022402
797.6695	0.024281
797.9058	0.024260
798.1420	0.023162
798.3783	0.021812
798.6145	0.023120
798.8508	0.022339
799.0871	0.024197
799.3233	0.022318
799.5596	0.022719
799.7959	0.021410
800.0322	0.020503
800.2686	0.020651
800.5049	0.021157
800.7412	0.021474
800.9776	0.018941
801.2139	0.020440
801.4503	0.018814
801.6867	0.019511
801.9230	0.018582
802.1594	0.019004
802.3958	0.017020
802.6322	0.017907
802.8686	0.016704
803.1051	0.018582
803.3415	0.018519
803.5779	0.019152
803.8144	0.018308
804.0508	0.018308
804.2873	0.017717
804.5238	0.018350
804.7603	0.018962
804.9968	0.018012
805.2333	0.017611
805.4698	0.017042
805.7063	0.018709
805.9428	0.020756
806.1794	0.021980
806.4159	0.024133
806.6525	0.023943
806.8890	0.024070
807.1256	0.023310
807.3622	0.022951
807.5988	0.021305
807.8354	0.020946
808.0720	0.022972
808.3086	0.023817
808.5452	0.023795
808.7818	0.023500
809.0185	0.022297
809.2551	0.024218
809.4918	0.022065
809.7284	0.022571
809.9651	0.020165
810.2018	0.018498
810.4385	0.019680
810.6752	0.020017
810.9119	0.016767
811.1486	0.018519
811.3853	0.020630
811.6221	0.017569
811.8588	0.018350
812.0956	0.017210
812.3323	0.015079
812.5691	0.015459
812.8059	0.014382
813.0427	0.013854
813.2795	0.016640
813.5163	0.017949
813.7531	0.018730
813.9899	0.019616
814.2267	0.017611
814.4636	0.018245
814.7004	0.017527
814.9373	0.016725
815.1742	0.017210
815.4110	0.017231
815.6479	0.014023
815.8848	0.016176
816.1217	0.015902
816.3586	0.014171
816.5955	0.014994
816.8324	0.013475
817.0694	0.014910
817.3063	0.014804
817.5433	0.016429
817.7802	0.016155
818.0172	0.015585
818.2542	0.012820
818.4912	0.014403
818.7282	0.013517
818.9652	0.014234
819.2022	0.013221
819.4392	0.014255
819.6762	0.013538
819.9133	0.011870
820.1503	0.011638
820.3874	0.014910
820.6244	0.016303
820.8615	0.016535
821.0986	0.015965
821.3357	0.015480
821.5727	0.014910
821.8099	0.013960
822.0470	0.015100
822.2841	0.014530
822.5212	0.012799
822.7584	0.013327
822.9955	0.011765
823.2327	0.012208
823.4698	0.014171
823.7070	0.011849
823.9442	0.011448
824.1814	0.011237
824.4186	0.011554
824.6558	0.008958
824.8930	0.011364
825.1302	0.012419
825.3675	0.013559
825.6047	0.014614
825.8419	0.013517
826.0792	0.012356
826.3165	0.011786
826.5537	0.013179
826.7910	0.014340
827.0283	0.013074
827.2656	0.015184
827.5029	0.014530
827.7402	0.014635
827.9776	0.012546
828.2149	0.012124
828.4522	0.011807
828.6896	0.014593
828.9270	0.013643
829.1643	0.012884
829.4017	0.015501
829.6391	0.012778
829.8765	0.013242
830.1139	0.012968
830.3513	0.010182
830.5887	0.010942
830.8261	0.011153
831.0636	0.009950
831.3010	0.008557
831.5385	0.009697
831.7759	0.008768
832.0134	0.007734
832.2509	0.008493
832.4884	0.009591
832.7259	0.008768
832.9634	0.008916
833.2009	0.009528
833.4384	0.010076
833.6759	0.012229
833.9135	0.010604
834.1510	0.011153
834.3886	0.009760
834.6261	0.011068
834.8637	0.010161
835.1013	0.010689
835.3389	0.012124
835.5765	0.010773
835.8141	0.010520
836.0517	0.010435
836.2893	0.008451
836.5269	0.009697
836.7646	0.008092
837.0022	0.007776
837.2399	0.007544
837.4775	0.007143
837.7152	0.008557
837.9529	0.007354
838.1906	0.007480
838.4283	0.006763
838.6660	0.007248
838.9037	0.006932
839.1414	0.006552
839.3791	0.006889
839.6169	0.008430
839.8546	0.008156
840.0924	0.007016
840.3302	0.007818
840.5679	0.006953
840.8057	0.008536
841.0435	0.007248
841.2813	0.008008
841.5191	0.006383
841.7569	0.007417
841.9947	0.005623
842.2326	0.006488
842.4704	0.004441
842.7082	0.007438
842.9461	0.005011
843.1840	0.006805
843.4218	0.005539
843.6597	0.004863
843.8976	0.006341
844.1355	0.006425
844.3734	0.006235
844.6113	0.006995
844.8492	0.004230
845.0872	0.006573
845.3251	0.005412
845.5631	0.007185
845.8010	0.005560
846.0390	0.006932
846.2770	0.005116
846.5149	0.005707
846.7529	0.006045
846.9909	0.005370
847.2289	0.004167
847.4669	0.005623
847.7050	0.005475
847.9430	0.005771
848.1810	0.006552
848.4191	0.005644
848.6571	0.004990
848.8952	0.005433
849.1333	0.005560
849.3713	0.004272
849.6094	0.006362
849.8475	0.005201
850.0856	0.006172
850.3237	0.005560
850.5619	0.003766
850.8000	0.006172
851.0381	0.005454
851.2763	0.004336
851.5144	0.004842
851.7526	0.006383
851.9908	0.006657
852.2289	0.006320
852.4671	0.006214
852.7053	0.010140
852.9435	0.009718
853.1817	0.014213
853.4200	0.013327
853.6582	0.015311
853.8964	0.014066
854.1347	0.014002
854.3729	0.014255
854.6112	0.016472
854.8495	0.012778
855.0877	0.014298
855.3260	0.015374
855.5643	0.011491
855.8026	0.011828
856.0409	0.013242
856.2792	0.012609
856.5176	0.013453
856.7559	0.011554
856.9942	0.013876
857.2326	0.013390
857.4710	0.010773
857.7093	0.011870
857.9477	0.011385
858.1861	0.013285
858.4245	0.010203
858.6629	0.011132
858.9013	0.011153
859.1397	0.008536
859.3781	0.010625
859.6166	0.009464
859.8550	0.009760
860.0935	0.008620
860.3319	0.008916
860.5704	0.006235
860.8089	0.007417
861.0473	0.007713
861.2858	0.005032
861.5243	0.005475
861.7628	0.007058
862.0013	0.006087
862.2399	0.007501
862.4784	0.005982
862.7169	0.005412
862.9555	0.005370
863.1940	0.006868
863.4326	0.006742
863.6712	0.006995
863.9098	0.006214
864.1483	0.006467
864.3869	0.006847
864.6255	0.006003
864.8642	0.006974
865.1028	0.007122
865.3414	0.007016
865.5800	0.004293
865.8187	0.004462
866.0573	0.005623
866.2960	0.004715
866.5347	0.006699
866.7733	0.004758
867.0120	0.004969
867.2507	0.005961
867.4894	0.006298
867.7281	0.004948
867.9669	0.005285
868.2056	0.006573
868.4443	0.004905
868.6831	0.005771
868.9218	0.006045
869.1606	0.006087
869.3993	0.004927
869.6381	0.005919
869.8769	0.005454
870.1157	0.006108
870.3545	0.004483
870.5933	0.006320
870.8321	0.006763
871.0709	0.004905
871.3097	0.007501
871.5486	0.005306
871.7874	0.005328
872.0263	0.004019
872.2651	0.004547
872.5040	0.005729
872.7429	0.006488
872.9818	0.005876
873.2207	0.005496
873.4596	0.005370
873.6985	0.003660
873.9374	0.005159
874.1763	0.005897
874.4153	0.004146
874.6542	0.007016
874.8932	0.005306
875.1321	0.006510
875.3711	0.005201
875.6101	0.007248
875.8491	0.006172
876.0880	0.006298
876.3270	0.007375
876.5661	0.005201
876.8051	0.006341
877.0441	0.004040
877.2831	0.006151
877.5222	0.008219
877.7612	0.006995
878.0003	0.006552
878.2393	0.007206
878.4784	0.007058
878.7175	0.007143
878.9566	0.006995
879.1957	0.008156
879.4348	0.008177
879.6739	0.006889
879.9130	0.007354
880.1521	0.009127
880.3913	0.009591
880.6304	0.009528
880.8696	0.007459
881.1087	0.008472
881.3479	0.008705
881.5871	0.008282
881.8262	0.007607
882.0654	0.005750
882.3046	0.006425
882.5438	0.007312
882.7831	0.007628
883.0223	0.006003
883.2615	0.005813
883.5007	0.006488
883.7400	0.007269
883.9792	0.005518
884.2185	0.006298
884.4578	0.007628
884.6971	0.005560
884.9363	0.005074
885.1756	0.006615
885.4149	0.005855
885.6542	0.007016
885.8936	0.008114
886.1329	0.007100
886.3722	0.007903
886.6116	0.007122
886.8509	0.006003
887.0903	0.005644
887.3296	0.006193
887.5690	0.007058
887.8084	0.005116
888.0478	0.006277
888.2872	0.005370
888.5266	0.005855
888.7660	0.004800
889.0054	0.004526
889.2448	0.005961
889.4843	0.006130
889.7237	0.003576
889.9632	0.005665
890.2026	0.003681
890.4421	0.005876
890.6816	0.004462
890.9211	0.005412
891.1606	0.005074
891.4001	0.005581
891.6396	0.004230
891.8791	0.005707
892.1186	0.006510
892.3581	0.005222
892.5977	0.004863
892.8372	0.006087
893.0768	0.006573
893.3163	0.005750
893.5559	0.005328
893.7955	0.004357
894.0351	0.004251
894.2747	0.004694
894.5143	0.005201
894.7539	0.004821
894.9935	0.005707
895.2331	0.004905
895.4727	0.006214
895.7124	0.004251
895.9520	0.005644
896.1917	0.006193
896.4314	0.006615
896.6710	0.004758
896.9107	0.005328
897.1504	0.006805
897.3901	0.005876
897.6298	0.005370
897.8695	0.005644
898.1092	0.005560
898.3489	0.006805
898.5887	0.006277
898.8284	0.005686
899.0682	0.005285
899.3079	0.005623
899.5477	0.005053
899.7875	0.005159
900.0272	0.004842
900.2670	0.005032
900.5068	0.004504
900.7466	0.005138
900.9864	0.004568
901.2263	0.005349
901.4661	0.005285
901.7059	0.005454
901.9458	0.004694
902.1856	0.005813
902.4255	0.004905
902.6654	0.004758
902.9052	0.005138
903.1451	0.003217
903.3850	0.005581
903.6249	0.004082
903.8648	0.006214
904.1047	0.006108
904.3446	0.005391
904.5846	0.006467
904.8245	0.003555
905.0644	0.006024
905.3044	0.004927
905.5444	0.006045
905.7843	0.006214
906.0243	0.006193
906.2643	0.004040
906.5043	0.004336
906.7443	0.005053
906.9843	0.004800
907.2243	0.004082
907.4643	0.004462
907.7043	0.004441
907.9444	0.005053
908.1844	0.005285
908.4245	0.005074
908.6645	0.003745
908.9046	0.003702
909.1447	0.002964
909.3847	0.003935
909.6248	0.004378
909.8649	0.004061
910.1050	0.002520
910.3452	0.005623
910.5853	0.003111
910.8254	0.004589
911.0655	0.003977
911.3057	0.004188
911.5458	0.003787
911.7860	0.005138
912.0262	0.004082
912.2663	0.003871
912.5065	0.003470
912.7467	0.006087
912.9869	0.003322
913.2271	0.003534
913.4673	0.004990
913.7075	0.004715
913.9478	0.003745
914.1880	0.003576
914.4283	0.003597
914.6685	0.004420
914.9088	0.004188
915.1490	0.003006
915.3893	0.003069
915.6296	0.004040
915.8699	0.003491
916.1102	0.003407
916.3505	0.004146
916.5908	0.004272
916.8311	0.003175
917.0714	0.004673
917.3118	0.002879
917.5521	0.005707
917.7925	0.003681
918.0328	0.006045
918.2732	0.004715
918.5136	0.003555
918.7539	0.003470
918.9943	0.004483
919.2347	0.004399
919.4751	0.003808
919.7155	0.004336
919.9560	0.003660
920.1964	0.005095
920.4368	0.004652
920.6773	0.003766
920.9177	0.003470
921.1582	0.002415
921.3986	0.002668
921.6391	0.003449
921.8796	0.003217
922.1201	0.003491
922.3606	0.005138
922.6011	0.003702
922.8416	0.003133
923.0821	0.003449
923.3226	0.004631
923.5631	0.002605
923.8037	0.005095
924.0442	0.003723
924.2848	0.002689
924.5254	0.002774
924.7659	0.003344
925.0065	0.001824
925.2471	0.003512
925.4877	0.003766
925.7283	0.002837
925.9689	0.001908
926.2095	0.002542
926.4501	0.002542
926.6908	0.002964
926.9314	0.002246
927.1720	0.002921
927.4127	0.002668
927.6533	0.002499
927.8940	0.002605
928.1347	0.001381
928.3754	0.002879
928.6161	0.003154
928.8568	0.002964
929.0975	0.003787
929.3382	0.002204
929.5789	0.003111
929.8196	0.002077
930.0604	0.003154
930.3011	0.001233
930.5419	0.002225
930.7826	0.002119
931.0234	0.002330
931.2642	0.002964
931.5049	0.002415
931.7457	0.004610
931.9865	0.001634
932.2273	0.002710
932.4681	0.003344
932.7089	0.002288
932.9498	0.003386
933.1906	0.002288
933.4314	0.002098
933.6723	0.003702
933.9131	0.001740
934.1540	0.001782
934.3949	0.002605
934.6358	0.001064
934.8766	0.000916
935.1175	0.003723
935.3584	0.001486
935.5993	0.001338
935.8403	0.001740
936.0812	0.002056
936.3221	0.002710
936.5630	0.003745
936.8040	0.002921
937.0449	0.001782
937.2859	0.002077
937.5269	0.002309
937.7678	0.001972
938.0088	0.002605
938.2498	0.002605
938.4908	0.002647
938.7318	0.000748
938.9728	0.002499
939.2138	0.001233
939.4549	0.001972
939.6959	0.001634
939.9369	0.001887
940.1780	0.001191
940.4190	0.000790
940.6601	0.002352
940.9012	0.002035
941.1422	0.001782
941.3833	0.002077
941.6244	0.001718
941.8655	0.002879
942.1066	0.000769
942.3477	0.003111
942.5889	0.001191
942.8300	0.001402
943.0711	0.000262
943.3123	0.000262
943.5534	0.001233
943.7946	0.001402
944.0357	0.001972
944.2769	0.002288
944.5181	0.001001
944.7593	0.000895
945.0005	-0.000202
945.2417	0.000937
945.4829	0.000895
945.7241	0.000811
945.9653	0.000874
946.2066	0.001149
946.4478	0.001676
946.6891	0.000241
946.9303	0.002605
947.1716	0.001655
947.4128	0.000473
947.6541	0.001001
947.8954	0.000241
948.1367	0.002394
948.3780	0.001338
948.6193	0.001507
948.8606	0.001043
949.1019	-0.000139
949.3433	0.002077
949.5846	0.001043
949.8259	0.001507
950.0673	-0.000097
950.3086	0.001212
950.5500	0.001972
950.7914	0.001486
951.0327	0.001613
951.2741	0.002921
951.5155	0.001254
951.7569	0.001212
951.9983	0.000072
952.2398	0.000916
952.4812	0.001929
952.7226	0.002141
952.9640	0.003090
953.2055	0.001908
953.4469	0.002774
953.6884	0.000558
953.9299	0.000262
954.1713	0.002647
954.4128	0.000748
954.6543	0.000959
954.8958	0.001106
955.1373	0.000642
955.3788	0.002330
955.6203	0.002098
955.8618	0.000030
956.1034	0.001170
956.3449	0.001634
956.5865	0.000684
956.8280	0.002542
957.0696	0.001571
957.3111	0.001381
957.5527	0.000473
957.7943	0.001191
958.0359	-0.000688
958.2775	0.002119
958.5191	0.001338
958.7607	0.001592
959.0023	0.000959
959.2439	0.000980
959.4856	0.000621
959.7272	0.000748
959.9688	0.000494
960.2105	0.001528
960.4522	0.001381
960.6938	0.000769
960.9355	0.002056
961.1772	0.000389
961.4189	0.000558
961.6606	0.000600
961.9023	0.001613
962.1440	0.001064
962.3857	0.000135
962.6274	0.000346
962.8692	0.000114
963.1109	0.002373
963.3527	-0.000012
963.5944	0.000009
963.8362	0.000515
964.0779	0.001550
964.3197	-0.001068
964.5615	0.001338
964.8033	0.001212
965.0451	0.000705
965.2869	0.000600
965.5287	0.001782
965.7705	0.000853
966.0123	0.001296
966.2542	0.001444
966.4960	0.001001
966.7379	0.000811
966.9797	0.003259
967.2216	0.000346
967.4634	0.001908
967.7053	0.001212
967.9472	0.001317
968.1891	0.001444
968.4310	0.001233
968.6729	0.000769
968.9148	0.001613
969.1567	0.001212
969.3987	0.001106
969.6406	0.001106
969.8825	-0.001004
970.1245	-0.000076
970.3664	0.001106
970.6084	0.001022
970.8504	0.000114
971.0923	0.002014
971.3343	0.001001
971.5763	0.000515
971.8183	0.000769
972.0603	0.002457
972.3023	0.001149
972.5443	0.000536
972.7864	0.000536
973.0284	-0.000371
973.2704	0.001360
973.5125	0.000157
973.7545	0.001233
973.9966	0.000642
974.2387	0.001634
974.4807	-0.000962
974.7228	0.001212
974.9649	-0.000202
975.2070	0.001803
975.4491	0.000790
975.6912	0.001782
975.9333	0.001001
976.1755	0.001908
976.4176	0.000304
976.6597	0.002077
976.9019	0.000452
977.1440	0.000748
977.3862	0.001149
977.6283	0.000325
977.8705	-0.000371
978.1127	0.002183
978.3549	0.001782
978.5971	0.001951
978.8393	0.001043
979.0815	0.001360
979.3237	0.000558
979.5659	0.001423
979.8082	0.000199
980.0504	0.001360
980.2926	-0.000118
980.5349	0.002162
980.7771	0.001191
981.0194	0.000853
981.2617	0.000916
981.5040	0.001317
981.7462	0.001233
981.9885	0.001170
982.2308	0.000135
982.4731	0.001149
982.7155	-0.000181
982.9578	0.000748
983.2001	0.000980
983.4424	0.001592
983.6848	0.001697
983.9271	0.000346
984.1695	0.001338
984.4118	0.000368
984.6542	-0.000519
984.8966	0.001381
985.1390	0.001212
985.3814	0.000853
985.6238	-0.000329
985.8662	0.000811
986.1086	-0.000329
986.3510	0.001233
986.5934	-0.000456
986.8358	-0.000223
987.0783	0.000494
987.3207	0.000726
987.5632	0.000874
987.8056	0.000304
988.0481	0.000895
988.2906	0.000410
988.5331	0.000726
988.7756	0.002098
989.0180	0.000494
989.2605	0.001170
989.5031	-0.000814
989.7456	0.000157
989.9881	-0.000561
990.2306	0.002162
990.4732	0.000790
990.7157	0.000832
990.9582	0.001043
991.2008	0.001001
991.4434	0.000030
991.6859	0.001106
991.9285	0.000262
992.1711	0.000705
992.4137	0.001507
992.6563	0.000051
992.8989	0.001191
993.1415	0.000726
993.3841	0.001022
993.6267	0.000368
993.8694	-0.000751
994.1120	0.000009
994.3547	-0.000160
994.5973	0.000431
994.8400	0.000114
995.0826	0.001317
995.3253	0.000811
995.5680	0.001338
995.8107	0.000072
996.0534	0.000684
996.2961	-0.000118
996.5388	0.001296
996.7815	0.001592
997.0242	-0.000582
997.2670	-0.000076
997.5097	0.000558
997.7524	0.000811
997.9952	0.001402
998.2379	-0.000287
998.4807	0.002647
998.7235	0.000748
998.9662	0.000579
999.2090	-0.000835
999.4518	0.001423
999.6946	0.001064
999.9374	0.000220
1000.1802	0.000663
1000.4230	0.000283
1000.6659	0.001085
1000.9087	0.000748
1001.1515	0.000304
1001.3944	0.000494
1001.6372	0.000431
1001.8801	0.001402
1002.1230	0.001655
1002.3658	0.000832
1002.6087	0.000937
1002.8516	-0.000540
1003.0945	0.000410
1003.3374	-0.000160
1003.5803	0.001064
1003.8232	-0.000160
1004.0661	0.000980
1004.3091	-0.000624
1004.5520	0.000157
1004.7949	0.001106
1005.0379	0.000241
1005.2808	0.001127
1005.5238	0.000937
1005.7667	0.000748
1006.0097	0.000600
1006.2527	0.001212
1006.4957	0.000916
1006.7387	0.000325
1006.9817	0.001360
1007.2247	0.000705
1007.4677	0.000558
1007.7107	0.000093
1007.9538	0.001022
1008.1968	0.000980
1008.4398	0.001592
1008.6829	0.001043
1008.9259	0.001254
1009.1690	0.000895
1009.4121	0.000874
1009.6551	0.000874
1009.8982	0.001951
1010.1413	-0.000667
1010.3844	0.001528
1010.6275	0.000579
1010.8706	-0.000392
1011.1137	0.000473
1011.3568	0.000515
1011.6000	0.000030
1011.8431	0.001043
1012.0863	-0.000899
1012.3294	0.000072
1012.5726	-0.000920
1012.8157	0.000726
1013.0589	0.001001
1013.3021	0.001887
1013.5452	0.000705
1013.7884	0.001085
1014.0316	0.000790
1014.2748	-0.000223
1014.5180	-0.000582
1014.7613	0.000072
1015.0045	0.000621
1015.2477	0.000663
1015.4909	0.001106
1015.7342	-0.001089
1015.9774	0.000431
1016.2207	0.001317
1016.4640	0.000135
1016.7072	-0.000561
1016.9505	0.000431
1017.1938	0.000262
1017.4371	-0.000878
1017.6804	0.000178
1017.9237	0.000009
1018.1670	0.002014
1018.4103	0.000431
1018.6536	0.000262
1018.8969	-0.000055
1019.1403	0.001423
1019.3836	0.000093
1019.6270	0.000114
1019.8703	0.000579
1020.1137	0.000790
1020.3571	-0.000561
1020.6004	-0.000392
1020.8438	0.000072
1021.0872	0.000304
1021.3306	0.001697
1021.5740	-0.000350
1021.8174	0.000135
1022.0608	-0.000350
1022.3042	-0.000498
1022.5477	0.000072
1022.7911	-0.000012
1023.0345	-0.000941
