# Wavelength (nm)	Intensity (a.u.)
197.7802	0.000237
197.9842	0.001018
198.1882	-0.000100
198.3922	0.000871
198.5963	0.000850
198.8003	-0.001557
199.0044	0.001398
199.2085	0.001187
199.4126	0.000512
199.6168	0.000069
199.8209	0.000047
200.0251	-0.002296
200.2292	0.000596
200.4334	-0.000480
200.6376	0.000343
200.8418	-0.000206
201.0461	0.000470
201.2503	-0.000712
201.4546	-0.000058
201.6589	0.000617
201.8631	0.000427
202.0674	0.001926
202.2718	0.000132
202.4761	0.000512
202.6805	-0.000776
202.8848	0.000364
203.0892	0.000554
203.2936	0.000069
203.4980	0.001166
203.7024	-0.000100
203.9069	0.000111
204.1113	-0.001050
204.3158	-0.000269
204.5203	0.000364
204.7248	-0.000459
204.9293	0.000427
205.1338	-0.000354
205.3384	0.000216
205.5430	-0.000100
205.7475	0.000259
205.9521	-0.000459
206.1567	-0.000607
206.3614	-0.001451
206.5660	-0.001198
206.7706	-0.000311
206.9753	0.000829
207.1800	0.000047
207.3847	0.000343
207.5894	0.001208
207.7941	-0.000734
207.9989	0.000765
208.2036	-0.000375
208.4084	0.000702
208.6132	0.000153
208.8180	0.000195
209.0228	0.000575
209.2276	-0.000142
209.4325	-0.000776
209.6373	-0.000058
209.8422	-0.001641
210.0471	0.000216
210.2520	0.000343
210.4569	0.000364
210.6618	-0.000565
210.8668	0.000491
211.0718	0.001187
211.2767	-0.000269
211.4817	-0.000227
211.6867	0.001483
211.8918	-0.001536
212.0968	0.000470
212.3018	0.000617
212.5069	-0.000142
212.7120	-0.000332
212.9171	-0.000354
213.1222	-0.001177
213.3273	0.000575
213.5325	0.000554
213.7376	0.000765
213.9428	-0.001325
214.1480	-0.001768
214.3532	-0.000586
214.5584	0.001251
214.7636	-0.001557
214.9689	0.000596
215.1741	0.000047
215.3794	0.000786
215.5847	0.000322
215.7900	0.001061
215.9953	0.000871
216.2007	0.000237
216.4060	-0.000881
216.6114	-0.000649
216.8168	-0.000206
217.0222	0.000047
217.2276	0.000090
217.4330	-0.000121
217.6384	0.000449
217.8439	0.000533
218.0494	0.000449
218.2548	0.001694
218.4603	0.000575
218.6659	-0.000628
218.8714	-0.000586
219.0769	0.000069
219.2825	-0.000058
219.4881	0.000765
219.6936	-0.000544
219.8992	-0.000902
220.1049	0.001124
220.3105	-0.000860
220.5161	-0.000670
220.7218	0.000406
220.9275	-0.000396
221.1332	-0.000227
221.3389	0.000470
221.5446	0.000660
221.7503	-0.000375
221.9561	-0.000016
222.1618	0.001187
222.3676	0.000871
222.5734	0.000406
222.7792	0.000702
222.9850	0.000301
223.1909	0.001208
223.3967	-0.000164
223.6026	-0.000396
223.8085	-0.000311
224.0144	-0.000670
224.2203	0.000322
224.4262	0.001884
224.6322	0.000575
224.8381	0.000195
225.0441	0.000639
225.2501	-0.000818
225.4561	0.000364
225.6621	0.001018
225.8681	-0.000396
226.0742	0.000385
226.2802	-0.000037
226.4863	-0.000480
226.6924	-0.000544
226.8985	0.000554
227.1046	-0.001113
227.3107	-0.000501
227.5169	0.001863
227.7230	-0.000375
227.9292	-0.000501
228.1354	0.000617
228.3416	-0.000332
228.5478	0.000195
228.7541	-0.000311
228.9603	0.001420
229.1666	0.000512
229.3729	-0.000522
229.5791	0.000259
229.7855	0.001652
229.9918	-0.000459
230.1981	0.001082
230.4045	0.000723
230.6108	0.000132
230.8172	-0.000776
231.0236	0.002391
231.2300	-0.000544
231.4364	-0.000016
231.6429	-0.000206
231.8493	0.000913
232.0558	-0.000712
232.2623	0.000871
232.4688	0.000533
232.6753	0.000575
232.8818	-0.000121
233.0884	0.001251
233.2949	0.000280
233.5015	0.000090
233.7081	-0.000734
233.9147	0.001124
234.1213	-0.000860
234.3279	0.001567
234.5346	0.000533
234.7413	0.000554
234.9479	-0.000037
235.1546	0.000301
235.3613	-0.000121
235.5680	0.000892
235.7748	0.000153
235.9815	-0.000501
236.1883	0.001061
236.3951	0.001652
236.6018	0.000237
236.8087	0.000174
237.0155	-0.000164
237.2223	0.000702
237.4292	-0.000269
237.6360	-0.000121
237.8429	-0.000459
238.0498	-0.000100
238.2567	0.001251
238.4636	-0.000121
238.6706	0.000005
238.8775	-0.000164
239.0845	0.000470
239.2915	0.000596
239.4985	-0.001050
239.7055	0.000765
239.9125	-0.000311
240.1195	-0.000206
240.3266	-0.000417
240.5337	0.001293
240.7407	-0.000016
240.9478	0.000090
241.1549	-0.001303
241.3621	-0.000185
241.5692	-0.000544
241.7764	0.000090
241.9835	-0.000459
242.1907	-0.000100
242.3979	-0.000734
242.6051	0.001061
242.8124	0.001652
243.0196	0.000850
243.2269	-0.001303
243.4341	0.001483
243.6414	-0.000881
243.8487	0.001040
244.0560	-0.000375
244.2634	0.001842
244.4707	0.000449
244.6781	0.000237
244.8854	-0.000206
245.0928	0.000871
245.3002	-0.000607
245.5076	0.000533
245.7151	-0.000311
245.9225	0.000364
246.1300	-0.000311
246.3375	-0.000839
246.5449	0.000153
246.7524	0.000470
246.9600	-0.000142
247.1675	0.000174
247.3750	0.000047
247.5826	0.000449
247.7902	0.000216
247.9978	-0.000058
248.2054	0.000892
248.4130	0.001082
248.6206	-0.000248
248.8283	-0.000037
249.0359	0.000786
249.2436	0.000047
249.4513	-0.000311
249.6590	0.001673
249.8667	-0.000100
250.0745	0.000026
250.2822	-0.000206
250.4900	0.001757
250.6978	0.000343
250.9056	-0.000227
251.1134	0.000111
251.3212	0.000069
251.5290	-0.000142
251.7369	-0.000248
251.9447	-0.002169
252.1526	0.000449
252.3605	0.000047
252.5684	0.000216
252.7763	0.001103
252.9843	0.000723
253.1922	-0.000037
253.4002	0.000829
253.6082	-0.000079
253.8162	-0.000881
254.0242	-0.000016
254.2322	-0.000142
254.4402	-0.000058
254.6483	0.000301
254.8564	-0.000797
255.0644	-0.000079
255.2725	-0.000375
255.4806	0.000596
255.6888	-0.000185
255.8969	0.001588
256.1051	-0.000670
256.3132	0.000449
256.5214	0.000512
256.7296	0.000681
256.9378	-0.000100
257.1460	0.000491
257.3543	-0.000586
257.5625	0.000470
257.7708	0.000892
257.9791	0.000533
258.1874	0.001166
258.3957	-0.000079
258.6040	0.000427
258.8124	0.001124
259.0207	-0.000142
259.2291	0.000216
259.4375	-0.001029
259.6459	-0.000459
259.8543	0.000871
260.0627	-0.000776
260.2711	0.000364
260.4796	0.000406
260.6881	-0.001662
260.8965	0.000786
261.1050	0.000385
261.3135	0.000069
261.5221	0.000174
261.7306	0.001166
261.9392	0.000449
262.1477	0.000660
262.3563	-0.000691
262.5649	0.001166
262.7735	0.000237
262.9822	-0.000079
263.1908	0.000385
263.3995	-0.000185
263.6081	0.000237
263.8168	0.000681
264.0255	-0.001050
264.2342	0.000807
264.4429	0.000723
264.6517	0.000997
264.8604	0.000976
265.0692	0.000639
265.2780	-0.000206
265.4868	0.000533
265.6956	0.000829
265.9044	0.000617
266.1133	-0.000839
266.3221	0.000681
266.5310	0.001208
266.7399	-0.000691
266.9488	-0.000016
267.1577	-0.000945
267.3666	0.000090
267.5755	0.000871
267.7845	-0.000206
267.9935	0.000111
268.2024	0.000491
268.4114	-0.000227
268.6205	-0.000755
268.8295	0.000702
269.0385	0.000427
269.2476	0.000385
269.4566	-0.000945
269.6657	0.000047
269.8748	0.001166
270.0839	-0.000923
270.2931	0.000259
270.5022	-0.000375
270.7114	-0.000058
270.9205	0.001335
271.1297	-0.000797
271.3389	0.000364
271.5481	-0.000945
271.7573	-0.000058
271.9666	0.000259
272.1758	0.000892
272.3851	-0.000670
272.5944	0.000237
272.8037	-0.000712
273.0130	-0.000016
273.2223	0.001715
273.4316	0.000132
273.6410	0.000026
273.8504	0.000343
274.0597	-0.001831
274.2691	0.001673
274.4785	0.000449
274.6880	0.000470
274.8974	0.001251
275.1069	0.000343
275.3163	-0.000290
275.5258	0.001631
275.7353	-0.000100
275.9448	-0.000776
276.1543	-0.000860
276.3639	0.000449
276.5734	-0.000649
276.7830	-0.000586
276.9926	0.000280
277.2022	0.000364
277.4118	0.000639
277.6214	0.001145
277.8310	-0.001029
278.0407	-0.000016
278.2503	0.000153
278.4600	0.000533
278.6697	-0.000501
278.8794	-0.000142
279.0891	-0.000776
279.2989	0.000765
279.5086	-0.000522
279.7184	0.001208
279.9281	-0.000607
280.1379	0.001947
280.3477	-0.000142
280.5576	0.000132
280.7674	0.001166
280.9772	0.000575
281.1871	-0.001536
281.3970	0.000385
281.6069	0.002179
281.8168	0.000892
282.0267	0.000153
282.2366	-0.000649
282.4466	0.000216
282.6565	0.001208
282.8665	0.000069
283.0765	0.000575
283.2865	0.000723
283.4965	0.000554
283.7065	-0.000269
283.9166	0.000322
284.1266	-0.000438
284.3367	-0.000037
284.5468	0.000364
284.7569	0.000364
284.9670	0.000617
285.1771	0.000237
285.3873	0.000322
285.5974	0.001420
285.8076	-0.000332
286.0178	-0.000438
286.2280	0.000596
286.4382	0.000047
286.6484	0.000850
286.8587	0.001631
287.0689	0.000575
287.2792	0.000153
287.4895	-0.000037
287.6998	0.001525
287.9101	0.000090
288.1204	0.000554
288.3308	-0.000142
288.5411	0.000005
288.7515	0.000702
288.9619	-0.000037
289.1723	0.000449
289.3827	0.001588
289.5931	0.000216
289.8035	0.000702
290.0140	0.000427
290.2245	0.000132
290.4349	-0.001303
290.6454	0.000934
290.8559	-0.000923
291.0665	0.001631
291.2770	0.000069
291.4875	0.001778
291.6981	0.000512
291.9087	0.000047
292.1193	-0.000142
292.3299	0.000786
292.5405	-0.000121
292.7511	-0.000142
292.9618	-0.002148
293.1724	0.000343
293.3831	-0.000311
293.5938	0.001504
293.8045	0.000385
294.0152	0.000237
294.2260	0.000090
294.4367	0.000955
294.6475	-0.000902
294.8582	0.000786
295.0690	-0.000797
295.2798	0.000934
295.4906	0.000639
295.7015	-0.000100
295.9123	0.000385
296.1232	0.000976
296.3340	-0.000311
296.5449	0.000829
296.7558	0.000069
296.9667	0.001040
297.1777	0.000301
297.3886	-0.000185
297.5995	0.000364
297.8105	0.002137
298.0215	-0.000227
298.2325	0.000596
298.4435	0.000385
298.6545	0.001462
298.8656	-0.000776
299.0766	0.001208
299.2877	0.000406
299.4988	0.000491
299.7099	-0.001113
299.9210	0.000660
300.1321	-0.000016
300.3432	0.001546
300.5544	-0.000544
300.7655	0.000406
300.9767	-0.000818
301.1879	0.000934
301.3991	-0.000649
301.6103	0.000449
301.8215	0.001082
302.0328	0.001546
302.2441	-0.000185
302.4553	0.001124
302.6666	-0.001472
302.8779	0.000005
303.0892	0.000491
303.3006	0.000069
303.5119	0.000026
303.7233	-0.000544
303.9346	0.000301
304.1460	-0.000607
304.3574	-0.000544
304.5688	-0.000206
304.7803	0.000406
304.9917	0.001525
305.2031	0.000512
305.4146	0.000934
305.6261	-0.000966
305.8376	0.000871
306.0491	0.000195
306.2606	0.000470
306.4722	-0.000966
306.6837	-0.000354
306.8953	-0.000206
307.1069	-0.000248
307.3184	0.000153
307.5301	0.000617
307.7417	0.000639
307.9533	-0.000290
308.1650	0.000575
308.3766	0.001208
308.5883	0.000554
308.8000	0.000111
309.0117	0.001208
309.2234	-0.000016
309.4351	0.000385
309.6469	0.001145
309.8586	-0.000501
310.0704	-0.000586
310.2822	-0.000142
310.4940	0.001082
310.7058	-0.000227
310.9176	-0.000332
311.1295	0.000132
311.3413	0.000195
311.5532	0.000111
311.7651	0.001441
311.9770	-0.000881
312.1889	0.000807
312.4008	0.000364
312.6127	0.000259
312.8247	0.000892
313.0366	-0.000522
313.2486	-0.000100
313.4606	0.000533
313.6726	-0.000417
313.8846	0.000449
314.0967	0.000427
314.3087	-0.000248
314.5208	0.000364
314.7328	0.000850
314.9449	0.000639
315.1570	-0.000100
315.3692	0.000005
315.5813	-0.000544
315.7934	-0.000164
316.0056	0.001462
316.2177	-0.000755
316.4299	0.000069
316.6421	-0.000311
316.8543	0.000259
317.0666	0.000132
317.2788	0.000322
317.4911	-0.000649
317.7033	0.000786
317.9156	0.000427
318.1279	0.000069
318.3402	0.000554
318.5525	-0.000206
318.7649	0.001567
318.9772	-0.001050
319.1896	0.000976
319.4019	-0.000923
319.6143	0.001082
319.8267	0.001335
320.0392	-0.001156
320.2516	0.000343
320.4640	0.000322
320.6765	-0.000501
320.8890	0.001462
321.1014	0.000976
321.3139	0.000090
321.5265	0.000765
321.7390	0.002074
321.9515	0.000364
322.1641	0.001166
322.3766	-0.000607
322.5892	0.000449
322.8018	0.000850
323.0144	-0.000712
323.2270	0.000533
323.4397	-0.000164
323.6523	0.000280
323.8650	-0.000501
324.0777	-0.000586
324.2904	0.000807
324.5031	0.001356
324.7158	-0.000016
324.9285	0.000069
325.1412	0.000280
325.3540	0.000596
325.5668	0.001335
325.7796	0.000829
325.9924	-0.001346
326.2052	0.000807
326.4180	0.000639
326.6308	0.000660
326.8437	-0.000459
327.0566	-0.000311
327.2694	-0.000375
327.4823	-0.000375
327.6952	-0.000501
327.9082	-0.000480
328.1211	0.000195
328.3340	0.001462
328.5470	0.000259
328.7600	0.001145
328.9730	-0.000227
329.1860	-0.000100
329.3990	-0.000142
329.6120	0.000322
329.8251	0.001018
330.0381	0.000617
330.2512	-0.001641
330.4643	0.000681
330.6774	0.000280
330.8905	0.000807
331.1036	0.000364
331.3167	-0.000269
331.5299	0.000364
331.7431	0.000807
331.9562	-0.000945
332.1694	0.002264
332.3826	-0.001156
332.5959	0.000913
332.8091	-0.001071
333.0223	-0.000269
333.2356	-0.000480
333.4489	0.001377
333.6622	0.000639
333.8755	0.000829
334.0888	-0.000480
334.3021	-0.000354
334.5154	-0.000945
334.7288	-0.000332
334.9422	-0.000459
335.1555	0.002095
335.3689	0.001040
335.5823	0.001715
335.7958	-0.000248
336.0092	-0.000206
336.2227	-0.000565
336.4361	-0.000100
336.6496	0.001335
336.8631	0.000807
337.0766	0.000237
337.2901	0.000153
337.5036	0.000195
337.7172	0.000322
337.9307	-0.000121
338.1443	-0.000269
338.3579	0.000617
338.5715	0.000259
338.7851	-0.000332
338.9987	0.000913
339.2124	0.001483
339.4260	-0.000966
339.6397	-0.000121
339.8533	0.001124
340.0670	0.000005
340.2807	-0.000544
340.4945	0.001208
340.7082	0.000427
340.9219	0.000639
341.1357	-0.000058
341.3495	0.000132
341.5633	-0.000586
341.7771	0.000997
341.9909	0.000280
342.2047	-0.000417
342.4185	0.000237
342.6324	-0.000628
342.8463	0.000047
343.0601	0.001018
343.2740	-0.000586
343.4879	-0.000565
343.7019	0.001377
343.9158	0.000850
344.1297	0.002074
344.3437	0.000554
344.5577	0.001778
344.7717	-0.000185
344.9857	0.001040
345.1997	0.000702
345.4137	0.000280
345.6277	-0.000311
345.8418	0.000934
346.0559	-0.000058
346.2699	-0.000860
346.4840	-0.000649
346.6981	-0.000227
346.9123	-0.000227
347.1264	0.000639
347.3406	0.000195
347.5547	0.001272
347.7689	-0.000375
347.9831	0.000913
348.1973	-0.000860
348.4115	-0.000290
348.6257	0.000850
348.8400	0.000301
349.0542	-0.000945
349.2685	-0.000628
349.4828	-0.000691
349.6971	0.000617
349.9114	-0.000311
350.1257	0.000660
350.3400	-0.000586
350.5544	-0.000227
350.7687	0.000069
350.9831	-0.000037
351.1975	0.000913
351.4119	-0.000248
351.6263	0.000111
351.8407	0.000174
352.0552	0.000132
352.2696	0.000280
352.4841	-0.000501
352.6986	-0.000248
352.9131	0.000005
353.1276	0.000047
353.3421	-0.000164
353.5566	0.001968
353.7712	-0.000037
353.9858	0.000807
354.2003	0.000280
354.4149	-0.000480
354.6295	0.000829
354.8441	0.000280
355.0588	0.000533
355.2734	0.000153
355.4881	-0.001156
355.7027	0.000301
355.9174	0.000892
356.1321	0.000449
356.3468	0.001082
356.5615	0.000533
356.7763	0.001040
356.9910	0.000153
357.2058	0.000364
357.4206	0.000512
357.6353	0.000786
357.8501	-0.000016
358.0650	0.000026
358.2798	-0.000269
358.4946	0.000280
358.7095	-0.000121
358.9243	-0.000164
359.1392	-0.000332
359.3541	0.001082
359.5690	0.001187
359.7839	0.000575
359.9989	0.002116
360.2138	0.001018
360.4288	-0.000100
360.6438	-0.000966
360.8587	0.001567
361.0737	0.001715
361.2888	0.000554
361.5038	-0.000417
361.7188	0.000744
361.9339	0.000026
362.1489	0.000702
362.3640	0.000491
362.5791	0.000026
362.7942	-0.000037
363.0093	0.000807
363.2245	0.000786
363.4396	0.000744
363.6548	-0.001325
363.8699	0.000617
364.0851	-0.000565
364.3003	0.002264
364.5155	0.000174
364.7308	0.000533
364.9460	-0.000332
365.1612	0.000449
365.3765	-0.000607
365.5918	-0.000354
365.8071	0.000026
366.0224	0.001800
366.2377	-0.000185
366.4530	-0.000142
366.6684	-0.000227
366.8837	0.000997
367.0991	0.000153
367.3145	0.000850
367.5299	0.000807
367.7453	0.000702
367.9607	-0.001409
368.1761	0.001293
368.3916	-0.000480
368.6070	0.000427
368.8225	0.001293
369.0380	0.000596
369.2535	-0.000459
369.4690	0.000702
369.6845	-0.000248
369.9001	0.001145
370.1156	0.001040
370.3312	0.000301
370.5468	-0.000438
370.7624	0.000997
370.9780	0.001652
371.1936	0.001525
371.4092	0.000406
371.6249	0.000005
371.8405	-0.001493
372.0562	0.002327
372.2719	-0.000290
372.4876	0.000554
372.7033	0.000111
372.9190	-0.000037
373.1348	-0.000480
373.3505	-0.000079
373.5663	-0.000037
373.7820	-0.000185
373.9978	0.000385
374.2136	0.000765
374.4294	0.000554
374.6453	0.000047
374.8611	0.000427
375.0770	0.000047
375.2928	0.000807
375.5087	-0.000016
375.7246	-0.000396
375.9405	-0.000206
376.1564	-0.000501
376.3724	0.001187
376.5883	-0.000438
376.8043	-0.000079
377.0203	0.000554
377.2362	0.001377
377.4522	0.000723
377.6682	0.001272
377.8843	-0.000417
378.1003	-0.000987
378.3164	0.000744
378.5324	0.000934
378.7485	0.000934
378.9646	0.001821
379.1807	0.001082
379.3968	0.000301
379.6129	0.000132
379.8291	0.000786
380.0452	-0.000670
380.2614	0.000596
380.4776	0.000005
380.6938	-0.000142
380.9100	0.000807
381.1262	0.002306
381.3424	0.000364
381.5587	-0.000206
381.7749	0.000322
381.9912	0.001821
382.2075	0.000026
382.4238	0.002011
382.6401	0.000026
382.8564	0.000301
383.0728	0.000807
383.2891	0.001145
383.5055	0.001230
383.7219	0.001230
383.9382	0.002264
384.1546	0.000491
384.3711	0.000322
384.5875	0.000406
384.8039	0.000512
385.0204	0.001588
385.2368	0.000829
385.4533	0.000491
385.6698	0.000364
385.8863	0.002707
386.1028	0.001567
386.3194	0.000512
386.5359	-0.000142
386.7525	0.000069
386.9690	0.002095
387.1856	0.000829
387.4022	0.002369
387.6188	0.001588
387.8355	0.001673
388.0521	0.002243
388.2687	0.002348
388.4854	0.004079
388.7021	0.001884
388.9188	0.003763
389.1355	0.001251
389.3522	0.002116
389.5689	0.001377
389.7856	0.002454
390.0024	0.002391
390.2192	0.004143
390.4359	0.002939
390.6527	0.003446
390.8695	0.002834
391.0863	0.005536
391.3032	0.003552
391.5200	0.005852
391.7369	0.005261
391.9537	0.005515
392.1706	0.004375
392.3875	0.005304
392.6044	0.006021
392.8213	0.007562
393.0383	0.006443
393.2552	0.007351
393.4722	0.006612
393.6891	0.008005
393.9061	0.007435
394.1231	0.008702
394.3401	0.007583
394.5572	0.010665
394.7742	0.009061
394.9912	0.010433
395.2083	0.009905
395.4254	0.010686
395.6425	0.010201
395.8596	0.012459
396.0767	0.010180
396.2938	0.012058
396.5109	0.011805
396.7281	0.013346
396.9453	0.011531
397.1624	0.013515
397.3796	0.012037
397.5968	0.014296
397.8140	0.014296
398.0313	0.015309
398.2485	0.015436
398.4658	0.016871
398.6830	0.019130
398.9003	0.017926
399.1176	0.015393
399.3349	0.016470
399.5522	0.015309
399.7696	0.019151
399.9869	0.019531
400.2043	0.017103
400.4216	0.017673
400.6390	0.019151
400.8564	0.017568
401.0738	0.017842
401.2912	0.019700
401.5087	0.018644
401.7261	0.020016
401.9436	0.020607
402.1610	0.019911
402.3785	0.020755
402.5960	0.019889
402.8135	0.019911
403.0310	0.020797
403.2486	0.021008
403.4661	0.019953
403.6837	0.022359
403.9013	0.021050
404.1189	0.023583
404.3365	0.022444
404.5541	0.025124
404.7717	0.024217
404.9893	0.023415
405.2070	0.024428
405.4246	0.026391
405.6423	0.024956
405.8600	0.026264
406.0777	0.024238
406.2954	0.025357
406.5131	0.024829
406.7309	0.025547
406.9486	0.023626
407.1664	0.024153
407.3842	0.026391
407.6020	0.023879
407.8198	0.022929
408.0376	0.023351
408.2554	0.024913
408.4733	0.025441
408.6911	0.026433
408.9090	0.026285
409.1269	0.027088
409.3448	0.026602
409.5627	0.025758
409.7806	0.024787
409.9985	0.028565
410.2165	0.027847
410.4344	0.027404
410.6524	0.026095
410.8704	0.024723
411.0884	0.025589
411.3064	0.026686
411.5244	0.028016
411.7424	0.027826
411.9605	0.027045
412.1785	0.026750
412.3966	0.028016
412.6147	0.029599
412.8328	0.027109
413.0509	0.030697
413.2690	0.029874
413.4871	0.029219
413.7053	0.029642
413.9234	0.028417
414.1416	0.028818
414.3598	0.029979
414.5780	0.029388
414.7962	0.030254
415.0144	0.029768
415.2326	0.027172
415.4509	0.028333
415.6692	0.028755
415.8874	0.027151
416.1057	0.027995
416.3240	0.029262
416.5423	0.029409
416.7606	0.027299
416.9790	0.030465
417.1973	0.027003
417.4157	0.029346
417.6341	0.027172
417.8524	0.026876
418.0708	0.029325
418.2893	0.030634
418.5077	0.031098
418.7261	0.029156
418.9446	0.030507
419.1630	0.028502
419.3815	0.030929
419.6000	0.030824
419.8185	0.029241
420.0370	0.029663
420.2555	0.032365
420.4741	0.032111
420.6926	0.031309
420.9112	0.033526
421.1298	0.032132
421.3483	0.035510
421.5669	0.036629
421.7856	0.037621
422.0042	0.036038
422.2228	0.036924
422.4415	0.035826
422.6601	0.033504
422.8788	0.035700
423.0975	0.036523
423.3162	0.032006
423.5349	0.033082
423.7536	0.032428
423.9724	0.034159
424.1911	0.031942
424.4099	0.032322
424.6287	0.032259
424.8475	0.033462
425.0663	0.032322
425.2851	0.031689
425.5039	0.031267
425.7228	0.031267
425.9416	0.030739
426.1605	0.029874
426.3793	0.029705
426.5982	0.031225
426.8171	0.031246
427.0361	0.031014
427.2550	0.031964
427.4739	0.032322
427.6929	0.033884
427.9118	0.029346
428.1308	0.031161
428.3498	0.033399
428.5688	0.030845
428.7878	0.030169
429.0068	0.030402
429.2259	0.030866
429.4449	0.031731
429.6640	0.033652
429.8831	0.035151
430.1022	0.036185
430.3213	0.036354
430.5404	0.036038
430.7595	0.036333
430.9787	0.035235
431.1978	0.032829
431.4170	0.033716
431.6362	0.032048
431.8553	0.030296
432.0745	0.028755
432.2938	0.029979
432.5130	0.029916
432.7322	0.029409
432.9515	0.028460
433.1707	0.027573
433.3900	0.028734
433.6093	0.031584
433.8286	0.034708
434.0479	0.034665
434.2673	0.031077
434.4866	0.030338
434.7059	0.029874
434.9253	0.029346
435.1447	0.028755
435.3641	0.030887
435.5835	0.030760
435.8029	0.029578
436.0223	0.030106
436.2418	0.031183
436.4612	0.029642
436.6807	0.031499
436.9001	0.029409
437.1196	0.029388
437.3391	0.030043
437.5586	0.032027
437.7782	0.028396
437.9977	0.029916
438.2173	0.030064
438.4368	0.032048
438.6564	0.030338
438.8760	0.029853
439.0956	0.029768
439.3152	0.029346
439.5348	0.029409
439.7545	0.031014
439.9741	0.029599
440.1938	0.028248
440.4135	0.028291
440.6331	0.029346
440.8528	0.032090
441.0725	0.030275
441.2923	0.032027
441.5120	0.034328
441.7318	0.035700
441.9515	0.035067
442.1713	0.034687
442.3911	0.033589
442.6109	0.032449
442.8307	0.033504
443.0505	0.030634
443.2703	0.033631
443.4902	0.034475
443.7101	0.033230
443.9299	0.033504
444.1498	0.032217
444.3697	0.033230
444.5896	0.031478
444.8095	0.030929
445.0295	0.032449
445.2494	0.032069
445.4694	0.030359
445.6894	0.030190
445.9093	0.030824
446.1293	0.030000
446.3493	0.030190
446.5694	0.034032
446.7894	0.029874
447.0094	0.030718
447.2295	0.031351
447.4496	0.027362
447.6696	0.029283
447.8897	0.029684
448.1098	0.028143
448.3300	0.028143
448.5501	0.026876
448.7702	0.026117
448.9904	0.028058
449.2106	0.028460
449.4307	0.028037
449.6509	0.027742
449.8711	0.028460
450.0914	0.025715
450.3116	0.026412
450.5318	0.028080
450.7521	0.027214
450.9724	0.026053
451.1926	0.023858
451.4129	0.024196
451.6332	0.026834
451.8535	0.023858
452.0739	0.025589
452.2942	0.024280
452.5146	0.024808
452.7349	0.023816
452.9553	0.024322
453.1757	0.022528
453.3961	0.022317
453.6165	0.023246
453.8369	0.021367
454.0574	0.022697
454.2778	0.022233
454.4983	0.020987
454.7188	0.022591
454.9393	0.022275
455.1597	0.022528
455.3803	0.020586
455.6008	0.021937
455.8213	0.020502
456.0419	0.023900
456.2624	0.021135
456.4830	0.019404
456.7036	0.021050
456.9242	0.019636
457.1448	0.018940
457.3654	0.019108
457.5860	0.019932
457.8067	0.019700
458.0274	0.019193
458.2480	0.022760
458.4687	0.021599
458.6894	0.021494
458.9101	0.021283
459.1308	0.020755
459.3516	0.022169
459.5723	0.020544
459.7931	0.020227
460.0138	0.019510
460.2346	0.020016
460.4554	0.020438
460.6762	0.017715
460.8970	0.019045
461.1178	0.017990
461.3387	0.017842
461.5595	0.020312
461.7804	0.019130
462.0013	0.016681
462.2222	0.016343
462.4431	0.015246
462.6640	0.017399
462.8849	0.015731
463.1059	0.013979
463.3268	0.016385
463.5478	0.015668
463.7687	0.018391
463.9897	0.015752
464.2107	0.017631
464.4317	0.015963
464.6528	0.020058
464.8738	0.018665
465.0948	0.017251
465.3159	0.017124
465.5370	0.017546
465.7581	0.017610
465.9792	0.018813
466.2003	0.017926
466.4214	0.016238
466.6425	0.014021
466.8637	0.013684
467.0848	0.012797
467.3060	0.013409
467.5272	0.015499
467.7484	0.012734
467.9696	0.012987
468.1908	0.014465
468.4120	0.012818
468.6333	0.012691
468.8545	0.012860
469.0758	0.012058
469.2970	0.011087
469.5183	0.013050
469.7396	0.010158
469.9610	0.011488
470.1823	0.009884
470.4036	0.010623
470.6250	0.010750
470.8463	0.012565
471.0677	0.009483
471.2891	0.011383
471.5105	0.007984
471.7319	0.012206
471.9533	0.009821
472.1748	0.010053
472.3962	0.009652
472.6177	0.011045
472.8391	0.009926
473.0606	0.011151
473.2821	0.009990
473.5036	0.009124
473.7251	0.010686
473.9467	0.009251
474.1682	0.008301
474.3898	0.010074
474.6113	0.008892
474.8329	0.008976
475.0545	0.009694
475.2761	0.010728
475.4977	0.010011
475.7193	0.008702
475.9410	0.007583
476.1626	0.008470
476.3843	0.008449
476.6060	0.010264
476.8277	0.008132
477.0494	0.009335
477.2711	0.007963
477.4928	0.007921
477.7145	0.008681
477.9363	0.006866
478.1580	0.008491
478.3798	0.008406
478.6016	0.008069
478.8234	0.007858
479.0452	0.006296
479.2670	0.008322
479.4888	0.006760
479.7107	0.007520
479.9325	0.007393
480.1544	0.007034
480.3763	0.008786
480.5982	0.007224
480.8201	0.007372
481.0420	0.008153
481.2639	0.007182
481.4859	0.008364
481.7078	0.008322
481.9298	0.006887
482.1517	0.007056
482.3737	0.008069
482.5957	0.004987
482.8177	0.008259
483.0398	0.006823
483.2618	0.007224
483.4838	0.005430
483.7059	0.007900
483.9280	0.006106
484.1501	0.006317
484.3721	0.006866
484.5943	0.007288
484.8164	0.007963
485.0385	0.007224
485.2606	0.007942
485.4828	0.008406
485.7050	0.013114
485.9271	0.021473
486.1493	0.022000
486.3715	0.018095
486.5937	0.013430
486.8160	0.011404
487.0382	0.010939
487.2605	0.011214
487.4827	0.009483
487.7050	0.008639
487.9273	0.006464
488.1496	0.006464
488.3719	0.005768
488.5942	0.004712
488.8165	0.005937
489.0389	0.005620
489.2612	0.005325
489.4836	0.005662
489.7060	0.004143
489.9284	0.004438
490.1508	0.005641
490.3732	0.004206
490.5956	0.005747
490.8180	0.005367
491.0405	0.005451
491.2630	0.004839
491.4854	0.004206
491.7079	0.006253
491.9304	0.004902
492.1529	0.006085
492.3755	0.003214
492.5980	0.004522
492.8205	0.004333
493.0431	0.003805
493.2657	0.005451
493.4882	0.004016
493.7108	0.003910
493.9334	0.003847
494.1561	0.003467
494.3787	0.005409
494.6013	0.003995
494.8240	0.003953
495.0466	0.003193
495.2693	0.004164
495.4920	0.003108
495.7147	0.003404
495.9374	0.003235
496.1601	0.004206
496.3829	0.005536
496.6056	0.004206
496.8284	0.003868
497.0511	0.003509
497.2739	0.002264
497.4967	0.003594
497.7195	0.002222
497.9423	0.003910
498.1652	0.003340
498.3880	0.003446
498.6109	0.003425
498.8337	0.004776
499.0566	0.003003
499.2795	0.004121
499.5024	0.003446
499.7253	0.002158
499.9482	0.004206
500.1712	0.004206
500.3941	0.003404
500.6171	0.004839
500.8400	0.002475
501.0630	0.003467
501.2860	0.003868
501.5090	0.003404
501.7320	0.003319
501.9551	0.002665
502.1781	0.002939
502.4012	0.004628
502.6242	0.003805
502.8473	0.004544
503.0704	0.004058
503.2935	0.002369
503.5166	0.002158
503.7397	0.003277
503.9628	0.002728
504.1860	0.002897
504.4092	0.002264
504.6323	0.003066
504.8555	0.003425
505.0787	0.002306
505.3019	0.002665
505.5251	0.002602
505.7483	0.002348
505.9716	0.003024
506.1948	0.002644
506.4181	0.003699
506.6414	0.003953
506.8647	0.003974
507.0880	0.002538
507.3113	0.003784
507.5346	0.003129
507.7579	0.003594
507.9813	0.001377
508.2046	0.003129
508.4280	0.002749
508.6514	0.002665
508.8748	0.002412
509.0982	0.003931
509.3216	0.003214
509.5450	0.002855
509.7685	0.002454
509.9919	0.004311
510.2154	0.004565
510.4388	0.003404
510.6623	0.003150
510.8858	0.003784
511.1093	0.003636
511.3329	0.003868
511.5564	0.001778
511.7799	0.003889
512.0035	0.002792
512.2270	0.001968
512.4506	0.001610
512.6742	0.002855
512.8978	0.003024
513.1214	0.003784
513.3451	0.004121
513.5687	0.003340
513.7923	0.002665
514.0160	0.002918
514.2397	0.001884
514.4634	0.002939
514.6871	0.002960
514.9108	0.003678
515.1345	0.002686
515.3582	0.003150
515.5819	0.002623
515.8057	0.003277
516.0295	0.000997
516.2532	0.002918
516.4770	0.002264
516.7008	0.003784
516.9246	0.001736
517.1485	0.002559
517.3723	0.003277
517.5961	0.003277
517.8200	0.003150
518.0439	0.002982
518.2677	0.003003
518.4916	0.001757
518.7155	0.003657
518.9395	0.004417
519.1634	0.002559
519.3873	0.002538
519.6113	0.003150
519.8352	0.003741
520.0592	0.003699
520.2832	0.001462
520.5072	0.003953
520.7312	0.002074
520.9552	0.002707
521.1792	0.002454
521.4033	0.003319
521.6273	0.003298
521.8514	0.003974
522.0755	0.001736
522.2996	0.002876
522.5237	0.002897
522.7478	0.003024
522.9719	0.003847
523.1960	0.003362
523.4202	0.003256
523.6443	0.004396
523.8685	0.004248
524.0927	0.002665
524.3169	0.003214
524.5411	0.003404
524.7653	0.003594
524.9895	0.004121
525.2138	0.003298
525.4380	0.003594
525.6623	0.003340
525.8865	0.003298
526.1108	0.002792
526.3351	0.003045
526.5594	0.002496
526.7837	0.003615
527.0081	0.004311
527.2324	0.005135
527.4568	0.004185
527.6811	0.003784
527.9055	0.004206
528.1299	0.002939
528.3543	0.004058
528.5787	0.004565
528.8031	0.004480
529.0276	0.006549
529.2520	0.003995
529.4765	0.005705
529.7009	0.006844
529.9254	0.005599
530.1499	0.004037
530.3744	0.004121
530.5989	0.004185
530.8234	0.004586
531.0480	0.004079
531.2725	0.005873
531.4971	0.004058
531.7217	0.004143
531.9462	0.003763
532.1708	0.004881
532.3954	0.006866
532.6200	0.005050
532.8447	0.005008
533.0693	0.005367
533.2940	0.007013
533.5186	0.008998
533.7433	0.006359
533.9680	0.006633
534.1927	0.007372
534.4174	0.006950
534.6421	0.008681
534.8668	0.008596
535.0916	0.008660
535.3163	0.006676
535.5411	0.007900
535.7659	0.007351
535.9907	0.007351
536.2155	0.009272
536.4403	0.007900
536.6651	0.009145
536.8899	0.006211
537.1148	0.008596
537.3396	0.006633
537.5645	0.008976
537.7894	0.008871
538.0143	0.008491
538.2392	0.009040
538.4641	0.009293
538.6890	0.009715
538.9139	0.008934
539.1389	0.010897
539.3638	0.010370
539.5888	0.009103
539.8138	0.011425
540.0388	0.009040
540.2638	0.010581
540.4888	0.010180
540.7138	0.011953
540.9389	0.009504
541.1639	0.010011
541.3890	0.011341
541.6140	0.010285
541.8391	0.011615
542.0642	0.011847
542.2893	0.011699
542.5144	0.013093
542.7396	0.013114
542.9647	0.013114
543.1899	0.012713
543.4150	0.010496
543.6402	0.013409
543.8654	0.013705
544.0906	0.013177
544.3158	0.013114
544.5410	0.012670
544.7662	0.014823
544.9915	0.015541
545.2167	0.016850
545.4420	0.014612
545.6673	0.017124
545.8926	0.013831
546.1179	0.016111
546.3432	0.015393
546.5685	0.015309
546.7938	0.015077
547.0192	0.015140
547.2445	0.016322
547.4699	0.016449
547.6953	0.017926
547.9206	0.019974
548.1460	0.019488
548.3715	0.019066
548.5969	0.019425
548.8223	0.020185
549.0478	0.019298
549.2732	0.020079
549.4987	0.018496
549.7242	0.018116
549.9496	0.018433
550.1751	0.018180
550.4007	0.017926
550.6262	0.019467
550.8517	0.017272
551.0773	0.018454
551.3028	0.019108
551.5284	0.018834
551.7540	0.018919
551.9796	0.018729
552.2052	0.021325
552.4308	0.021198
552.6564	0.024407
552.8820	0.023499
553.1077	0.021747
553.3333	0.022085
553.5590	0.023436
553.7847	0.023520
554.0104	0.021620
554.2361	0.024956
554.4618	0.022676
554.6875	0.021093
554.9132	0.023288
555.1390	0.022401
555.3648	0.023921
555.5905	0.026412
555.8163	0.025568
556.0421	0.027151
556.2679	0.026475
556.4937	0.027657
556.7195	0.026496
556.9454	0.026180
557.1712	0.027235
557.3971	0.027890
557.6230	0.026560
557.8488	0.028755
558.0747	0.025863
558.3006	0.028776
558.5266	0.025547
558.7525	0.025568
558.9784	0.025525
559.2044	0.024829
559.4303	0.026961
559.6563	0.025948
559.8823	0.026264
560.1083	0.026919
560.3343	0.028797
560.5603	0.031056
560.7863	0.032766
561.0124	0.033652
561.2384	0.034771
561.4645	0.034412
561.6905	0.032491
561.9166	0.033737
562.1427	0.032745
562.3688	0.034602
562.5949	0.034898
562.8211	0.034074
563.0472	0.034159
563.2733	0.035320
563.4995	0.034792
563.7257	0.036417
563.9519	0.037367
564.1781	0.038001
564.4043	0.039436
564.6305	0.040027
564.8567	0.039457
565.0829	0.039626
565.3092	0.041146
565.5355	0.039795
565.7617	0.040829
565.9880	0.042370
566.2143	0.042032
566.4406	0.040829
566.6669	0.041906
566.8932	0.043805
567.1196	0.047309
567.3459	0.050771
567.5723	0.055331
567.7987	0.055732
568.0250	0.056618
568.2514	0.059806
568.4778	0.061811
568.7043	0.067468
568.9307	0.068460
569.1571	0.073400
569.3836	0.080112
569.6100	0.085727
569.8365	0.095922
570.0630	0.101622
570.2895	0.103479
570.5160	0.106118
570.7425	0.104598
570.9690	0.112239
571.1956	0.121738
571.4221	0.127817
571.6487	0.129358
571.8752	0.128915
572.1018	0.138350
572.3284	0.140567
572.5550	0.130604
572.7816	0.121654
573.0082	0.117749
573.2349	0.127670
573.4615	0.141158
573.6882	0.151607
573.9149	0.154752
574.1415	0.161317
574.3682	0.166235
574.5949	0.173918
574.8216	0.175839
575.0484	0.176198
575.2751	0.178520
575.5018	0.178436
575.7286	0.170647
575.9554	0.158509
576.1821	0.161338
576.4089	0.163828
576.6357	0.173264
576.8626	0.182404
577.0894	0.189032
577.3162	0.189665
577.5431	0.195090
577.7699	0.219576
577.9968	0.251007
578.2237	0.239904
578.4505	0.234352
578.6774	0.212441
578.9044	0.207164
579.1313	0.193950
579.3582	0.193613
579.5851	0.201866
579.8121	0.210141
580.0391	0.212610
580.2660	0.212631
580.4930	0.212441
580.7200	0.206974
580.9470	0.207734
581.1741	0.243724
581.4011	0.292506
581.6281	0.319926
581.8552	0.324675
582.0822	0.321045
582.3093	0.308295
582.5364	0.285202
582.7635	0.266817
582.9906	0.243914
583.2177	0.230679
583.4449	0.212547
583.6720	0.198847
583.8991	0.194731
584.1263	0.196969
584.3535	0.200832
584.5807	0.202246
584.8079	0.214426
585.0351	0.231967
585.2623	0.241149
585.4895	0.240220
585.7167	0.240558
585.9440	0.227428
586.1713	0.221581
586.3985	0.209254
586.6258	0.201676
586.8531	0.201064
587.0804	0.215502
587.3077	0.229645
587.5350	0.229307
587.7624	0.231376
587.9897	0.222004
588.2171	0.206869
588.4445	0.204272
588.6718	0.203618
588.8992	0.192473
589.1266	0.181243
589.3540	0.170541
589.5815	0.166953
589.8089	0.168346
590.0363	0.161084
590.2638	0.157158
590.4913	0.153675
590.7187	0.146393
590.9462	0.139976
591.1737	0.135163
591.4012	0.133643
591.6288	0.130435
591.8563	0.133664
592.0838	0.135606
592.3114	0.136387
592.5389	0.156504
592.7665	0.181327
592.9941	0.199080
593.2217	0.205433
593.4493	0.202140
593.6769	0.201592
593.9046	0.195027
594.1322	0.181728
594.3598	0.180800
594.5875	0.175586
594.8152	0.186583
595.0429	0.195069
595.2705	0.200789
595.4983	0.193465
595.7260	0.188547
595.9537	0.177486
596.1814	0.167142
596.4092	0.156187
596.6369	0.146161
596.8647	0.144282
597.0925	0.146182
597.3203	0.152810
597.5481	0.153316
597.7759	0.152113
598.0037	0.148841
598.2315	0.138329
598.4594	0.141854
598.6872	0.159628
598.9151	0.176768
599.1430	0.185528
599.3709	0.184747
599.5988	0.176494
599.8267	0.180525
600.0546	0.184494
600.2825	0.186393
600.5105	0.183945
600.7384	0.182615
600.9664	0.186710
601.1944	0.191565
601.4223	0.190573
601.6503	0.176599
601.8783	0.171554
602.1064	0.165264
602.3344	0.169760
602.5624	0.170435
602.7905	0.174172
603.0185	0.179069
603.2466	0.184853
603.4747	0.188694
603.7028	0.192494
603.9309	0.186710
604.1590	0.173327
604.3871	0.170773
604.6152	0.166573
604.8434	0.160493
605.0715	0.154287
605.2997	0.163491
605.5279	0.166467
605.7561	0.171765
605.9843	0.177253
606.2125	0.175164
606.4407	0.168029
606.6689	0.157158
606.8972	0.155153
607.1254	0.159607
607.3537	0.159375
607.5819	0.160008
607.8102	0.158636
608.0385	0.154583
608.2668	0.153021
608.4951	0.147638
608.7235	0.143374
608.9518	0.143395
609.1801	0.141981
609.4085	0.133707
609.6369	0.136451
609.8653	0.139723
610.0936	0.152198
610.3220	0.152620
610.5505	0.147828
610.7789	0.145802
611.0073	0.138752
611.2357	0.138963
611.4642	0.137612
611.6927	0.139279
611.9211	0.136240
612.1496	0.132926
612.3781	0.132356
612.6066	0.133242
612.8351	0.129105
613.0637	0.134002
613.2922	0.131152
613.5208	0.129210
613.7493	0.130561
613.9779	0.130245
614.2065	0.130350
614.4351	0.130350
614.6637	0.129253
614.8923	0.127754
615.1209	0.126614
615.3495	0.130836
615.5782	0.129548
615.8068	0.132503
616.0355	0.127606
616.2642	0.121020
616.4929	0.117221
616.7216	0.115807
616.9503	0.109010
617.1790	0.109432
617.4077	0.109960
617.6365	0.112007
617.8652	0.112176
618.0940	0.108587
618.3227	0.107870
618.5515	0.101537
618.7803	0.095859
619.0091	0.091996
619.2379	0.090307
619.4667	0.087437
619.6956	0.091468
619.9244	0.094086
620.1533	0.096893
620.3821	0.100545
620.6110	0.098793
620.8399	0.089147
621.0688	0.083785
621.2977	0.076946
621.5266	0.075299
621.7556	0.078402
621.9845	0.081864
622.2135	0.083511
622.4424	0.082920
622.6714	0.087627
622.9004	0.086234
623.1294	0.091384
623.3584	0.089906
623.5874	0.091553
623.8164	0.088197
624.0454	0.086740
624.2745	0.086086
624.5035	0.090265
624.7326	0.089400
624.9617	0.089442
625.1908	0.085811
625.4199	0.082645
625.6490	0.081949
625.8781	0.081273
626.1072	0.080386
626.3364	0.075278
626.5655	0.072724
626.7947	0.069811
627.0238	0.071310
627.2530	0.072175
627.4822	0.069896
627.7114	0.072872
627.9406	0.068692
628.1698	0.066750
628.3991	0.063289
628.6283	0.061727
628.8576	0.057463
629.0868	0.062149
629.3161	0.062592
629.5454	0.062423
629.7747	0.061410
630.0040	0.062909
630.2333	0.059996
630.4626	0.059405
630.6920	0.057336
630.9213	0.056259
631.1507	0.055732
631.3801	0.053811
631.6094	0.053157
631.8388	0.053895
632.0682	0.054719
632.2976	0.053346
632.5271	0.050054
632.7565	0.047943
632.9859	0.044671
633.2154	0.045156
633.4448	0.045832
633.6743	0.046528
633.9038	0.046718
634.1333	0.045536
634.3628	0.041821
634.5923	0.044481
634.8218	0.041568
635.0514	0.042265
635.2809	0.041082
635.5105	0.041019
635.7400	0.042476
635.9696	0.044354
636.1992	0.044418
636.4288	0.047225
636.6584	0.046634
636.8880	0.044692
637.1177	0.045325
637.3473	0.041990
637.5770	0.041821
637.8066	0.039309
638.0363	0.040576
638.2660	0.042286
638.4957	0.044586
638.7254	0.043932
638.9551	0.041378
639.1848	0.041209
639.4145	0.038317
639.6443	0.039272
639.8740	0.038402
640.1038	0.035782
640.3336	0.038566
640.5633	0.038072
640.7931	0.037991
641.0229	0.036447
641.2528	0.036200
641.4826	0.033920
641.7124	0.031833
641.9423	0.031041
642.1721	0.029757
642.4020	0.031845
642.6319	0.030239
642.8617	0.030137
643.0916	0.032448
643.3216	0.031572
643.5515	0.030762
643.7814	0.030769
644.0113	0.028515
644.2413	0.029110
644.4712	0.026928
644.7012	0.025605
644.9312	0.025451
645.1612	0.026763
645.3912	0.026365
645.6212	0.024613
645.8512	0.027801
646.0812	0.024810
646.3113	0.027355
646.5413	0.026610
646.7714	0.026139
647.0015	0.024930
647.2316	0.023384
647.4616	0.025085
647.6918	0.025555
647.9219	0.026686
648.1520	0.029692
648.3821	0.030645
648.6123	0.029745
648.8424	0.033284
649.0726	0.035786
649.3028	0.033624
649.5329	0.032555
649.7631	0.032013
649.9933	0.032363
650.2236	0.032681
650.4538	0.029058
650.6840	0.027593
650.9143	0.029348
651.1445	0.031334
651.3748	0.028924
651.6051	0.030825
651.8354	0.029842
652.0657	0.029955
652.2960	0.031207
652.5263	0.031277
652.7566	0.032064
652.9870	0.031651
653.2173	0.032163
653.4477	0.030475
653.6780	0.030409
653.9084	0.030934
654.1388	0.032785
654.3692	0.035010
654.5996	0.037309
654.8300	0.041932
655.0605	0.064494
655.2909	0.188081
655.5213	0.528734
655.7518	0.964654
655.9823	1.000000
656.2128	1.000000
656.4433	1.000000
656.6738	1.000000
656.9043	1.000000
657.1348	0.885218
657.3653	0.712169
657.5959	0.620009
657.8264	0.538416
658.0570	0.490385
658.2875	0.451986
658.5181	0.415723
658.7487	0.386115
658.9793	0.374912
659.2099	0.333593
659.4406	0.254884
659.6712	0.169588
659.9018	0.099364
660.1325	0.061320
660.3632	0.039248
660.5938	0.031607
660.8245	0.026914
661.0552	0.025351
661.2859	0.024460
661.5166	0.022939
661.7474	0.021797
661.9781	0.024182
662.2088	0.023644
662.4396	0.022709
662.6704	0.020876
662.9011	0.021897
663.1319	0.022276
663.3627	0.021454
663.5935	0.020710
663.8243	0.022071
664.0552	0.021560
664.2860	0.021905
664.5168	0.021456
664.7477	0.023012
664.9786	0.021913
665.2094	0.024313
665.4403	0.022673
665.6712	0.024136
665.9021	0.023630
666.1330	0.022725
666.3640	0.023010
666.5949	0.022166
666.8259	0.020470
667.0568	0.021191
667.2878	0.021848
667.5188	0.022317
667.7497	0.020776
667.9807	0.021781
668.2117	0.019834
668.4428	0.021494
668.6738	0.020396
668.9048	0.021008
669.1359	0.021388
669.3669	0.020776
669.5980	0.020839
669.8291	0.022401
670.0602	0.022655
670.2913	0.021958
670.5224	0.021831
670.7535	0.021388
670.9846	0.021726
671.2157	0.024470
671.4469	0.026074
671.6781	0.027320
671.9092	0.028692
672.1404	0.032470
672.3716	0.033146
672.6028	0.034813
672.8340	0.034687
673.0652	0.033779
673.2964	0.032048
673.5277	0.030697
673.7589	0.029262
673.9902	0.029621
674.2214	0.027995
674.4527	0.027847
674.6840	0.026349
674.9153	0.026222
675.1466	0.026243
675.3779	0.028080
675.6093	0.026475
675.8406	0.027172
676.0719	0.024934
676.3033	0.023372
676.5347	0.024808
676.7661	0.024027
676.9974	0.022549
677.2288	0.023816
677.4602	0.025821
677.6917	0.027446
677.9231	0.028396
678.1545	0.029663
678.3860	0.028312
678.6174	0.029937
678.8489	0.030148
679.0804	0.030423
679.3119	0.031309
679.5434	0.034053
679.7749	0.034433
680.0064	0.033863
680.2379	0.033737
680.4694	0.035953
680.7010	0.033863
680.9325	0.031816
681.1641	0.034687
681.3957	0.035826
681.6273	0.035784
681.8589	0.036713
682.0905	0.033019
682.3221	0.034222
682.5537	0.031119
682.7854	0.032175
683.0170	0.027235
683.2487	0.031288
683.4803	0.030718
683.7120	0.030423
683.9437	0.030803
684.1754	0.034982
684.4071	0.034834
684.6388	0.037536
684.8705	0.038254
685.1023	0.040048
685.3340	0.043341
685.5658	0.044059
685.7975	0.043067
686.0293	0.044101
686.2611	0.044038
686.4929	0.044734
686.7247	0.041969
686.9565	0.044460
687.1883	0.045199
687.4202	0.045726
687.6520	0.044608
687.8838	0.041589
688.1157	0.038064
688.3476	0.039204
688.5795	0.038929
688.8114	0.037410
689.0433	0.036882
689.2752	0.038634
689.5071	0.037431
689.7390	0.038233
689.9710	0.034813
690.2029	0.035446
690.4349	0.035636
690.6669	0.036776
690.8988	0.035700
691.1308	0.037663
691.3628	0.038402
691.5948	0.039183
691.8269	0.037431
692.0589	0.039879
692.2909	0.037051
692.5230	0.038381
692.7550	0.035848
692.9871	0.038148
693.2192	0.040048
693.4513	0.039584
693.6834	0.040027
693.9155	0.038465
694.1476	0.034855
694.3797	0.034982
694.6119	0.032871
694.8440	0.033357
695.0762	0.033568
695.3083	0.033737
695.5405	0.031605
695.7727	0.030718
696.0049	0.030233
696.2371	0.030634
696.4693	0.030929
696.7016	0.033526
696.9338	0.039499
697.1660	0.039415
697.3983	0.039753
697.6306	0.039753
697.8628	0.038254
698.0951	0.038803
698.3274	0.037473
698.5597	0.038528
698.7920	0.036650
699.0243	0.036523
699.2567	0.037684
699.4890	0.035341
699.7214	0.035468
699.9537	0.032111
700.1861	0.029747
700.4185	0.032491
700.6509	0.032344
700.8833	0.032217
701.1157	0.030971
701.3481	0.027911
701.5806	0.029072
701.8130	0.029283
702.0454	0.029262
702.2779	0.029198
702.5104	0.029874
702.7429	0.029768
702.9753	0.030169
703.2078	0.031668
703.4403	0.027024
703.6729	0.029768
703.9054	0.028502
704.1379	0.028037
704.3705	0.028312
704.6030	0.026961
704.8356	0.025462
705.0682	0.023963
705.3008	0.024175
705.5334	0.024892
705.7660	0.024196
705.9986	0.024808
706.2312	0.028987
706.4638	0.031119
706.6965	0.034919
706.9291	0.034412
707.1618	0.035594
707.3945	0.037790
707.6272	0.038212
707.8599	0.039710
708.0926	0.036924
708.3253	0.035995
708.5580	0.037114
708.7907	0.037473
709.0235	0.033716
709.2562	0.032449
709.4890	0.033990
709.7217	0.034623
709.9545	0.033568
710.1873	0.034961
710.4201	0.035805
710.6529	0.035784
710.8857	0.034665
711.1186	0.032977
711.3514	0.031119
711.5842	0.031288
711.8171	0.028945
712.0500	0.028692
712.2828	0.027636
712.5157	0.027805
712.7486	0.030824
712.9815	0.027742
713.2144	0.032344
713.4474	0.031921
713.6803	0.034370
713.9132	0.035404
714.1462	0.033631
714.3791	0.035869
714.6121	0.034412
714.8451	0.033462
715.0781	0.034898
715.3111	0.037304
715.5441	0.033927
715.7771	0.032533
716.0102	0.032787
716.2432	0.032322
716.4762	0.030528
716.7093	0.029768
716.9424	0.027826
717.1754	0.028354
717.4085	0.027341
717.6416	0.026750
717.8747	0.028945
718.1078	0.028227
718.3410	0.030359
718.5741	0.027235
718.8072	0.028565
719.0404	0.030338
719.2736	0.031394
719.5067	0.029051
719.7399	0.028101
719.9731	0.028818
720.2063	0.028164
720.4395	0.028396
720.6727	0.028650
720.9060	0.030676
721.1392	0.029958
721.3725	0.029832
721.6057	0.030169
721.8390	0.029536
722.0723	0.029388
722.3055	0.027763
722.5388	0.027383
722.7721	0.027383
723.0055	0.027657
723.2388	0.028248
723.4721	0.027531
723.7055	0.029262
723.9388	0.027615
724.1722	0.027847
724.4056	0.026919
724.6389	0.024238
724.8723	0.028840
725.1057	0.031647
725.3391	0.031415
725.5726	0.033694
725.8060	0.033842
726.0394	0.032428
726.2729	0.032745
726.5063	0.035552
726.7398	0.032702
726.9733	0.031668
727.2068	0.032913
727.4403	0.032280
727.6738	0.032154
727.9073	0.033589
728.1408	0.033800
728.3743	0.033821
728.6079	0.036270
728.8414	0.034623
729.0750	0.033884
729.3086	0.035235
729.5421	0.036333
729.7757	0.038148
730.0093	0.037283
730.2429	0.036227
730.4766	0.037747
730.7102	0.039731
730.9438	0.045621
731.1775	0.041505
731.4111	0.042729
731.6448	0.042687
731.8785	0.045220
732.1122	0.041378
732.3458	0.040702
732.5795	0.042011
732.8133	0.040871
733.0470	0.045304
733.2807	0.042370
733.5145	0.042265
733.7482	0.045241
733.9820	0.046170
734.2157	0.050391
734.4495	0.051489
734.6833	0.052354
734.9171	0.048534
735.1509	0.046951
735.3847	0.045325
735.6185	0.049378
735.8524	0.048365
736.0862	0.048534
736.3201	0.050518
736.5539	0.048534
736.7878	0.046951
737.0217	0.048302
737.2556	0.049589
737.4895	0.046908
737.7234	0.044903
737.9573	0.042750
738.1912	0.040787
738.4252	0.041336
738.6591	0.041230
738.8931	0.041167
739.1271	0.044650
739.3610	0.049716
739.5950	0.045811
739.8290	0.046528
740.0630	0.043003
740.2970	0.045009
740.5310	0.039647
740.7651	0.040048
740.9991	0.037283
741.2332	0.037979
741.4672	0.034708
741.7013	0.035573
741.9354	0.035130
742.1695	0.033188
742.4036	0.033209
742.6377	0.035489
742.8718	0.036164
743.1059	0.033420
743.3400	0.031098
743.5742	0.029494
743.8083	0.029578
744.0425	0.031668
744.2767	0.030634
744.5108	0.030971
744.7450	0.030781
744.9792	0.029705
745.2134	0.027341
745.4477	0.027932
745.6819	0.028861
745.9161	0.029241
746.1504	0.028523
746.3846	0.028080
746.6189	0.026475
746.8532	0.028270
747.0874	0.028818
747.3217	0.033821
747.5560	0.032618
747.7903	0.032280
748.0247	0.030148
748.2590	0.030739
748.4933	0.028101
748.7277	0.030380
748.9620	0.030106
749.1964	0.030465
749.4308	0.032850
749.6652	0.034412
749.8995	0.036692
750.1339	0.037452
750.3684	0.039900
750.6028	0.039077
750.8372	0.039985
751.0717	0.038887
751.3061	0.038233
751.5406	0.041315
751.7750	0.040407
752.0095	0.040365
752.2440	0.038001
752.4785	0.036586
752.7130	0.037325
752.9475	0.036375
753.1820	0.035953
753.4166	0.038085
753.6511	0.041378
753.8856	0.043383
754.1202	0.041568
754.3548	0.041315
754.5894	0.039943
754.8239	0.040365
755.0585	0.040935
755.2931	0.041737
755.5278	0.041716
755.7624	0.041040
755.9970	0.044312
756.2317	0.044270
756.4663	0.049568
756.7010	0.049631
756.9356	0.051025
757.1703	0.053135
757.4050	0.056027
757.6397	0.057948
757.8744	0.058729
758.1091	0.057526
758.3438	0.056576
758.5786	0.054845
758.8133	0.052755
759.0481	0.055014
759.2828	0.055880
759.5176	0.060798
759.7524	0.060439
759.9872	0.061178
760.2220	0.060713
760.4568	0.061748
760.6916	0.063901
760.9264	0.060101
761.1613	0.061980
761.3961	0.060165
761.6310	0.056808
761.8658	0.052587
762.1007	0.050201
762.3356	0.048597
762.5705	0.048871
762.8054	0.048365
763.0403	0.049167
763.2752	0.049653
763.5101	0.050919
763.7450	0.050307
763.9800	0.050581
764.2149	0.050117
764.4499	0.056196
764.6849	0.056555
764.9198	0.060143
765.1548	0.057125
765.3898	0.057737
765.6248	0.056323
765.8599	0.051827
766.0949	0.049568
766.3299	0.046697
766.5650	0.042180
766.8000	0.040069
767.0351	0.040787
767.2701	0.038296
767.5052	0.038296
767.7403	0.040513
767.9754	0.041441
768.2105	0.042792
768.4456	0.047478
768.6808	0.046655
768.9159	0.050856
769.1510	0.047225
769.3862	0.048090
769.6214	0.048259
769.8565	0.045325
770.0917	0.043362
770.3269	0.043341
770.5621	0.045156
770.7973	0.046170
771.0325	0.047373
771.2677	0.046761
771.5030	0.048935
771.7382	0.046317
771.9735	0.041420
772.2087	0.040956
772.4440	0.042011
772.6793	0.041399
772.9146	0.041315
773.1499	0.038845
773.3852	0.040576
773.6205	0.038423
773.8558	0.038866
774.0911	0.035763
774.3265	0.037367
774.5618	0.031879
774.7972	0.031014
775.0326	0.029853
775.2679	0.031605
775.5033	0.028481
775.7387	0.028248
775.9741	0.026518
776.2095	0.028671
776.4450	0.025610
776.6804	0.025483
776.9158	0.025610
777.1513	0.024998
777.3868	0.024175
777.6222	0.023457
777.8577	0.023689
778.0932	0.025821
778.3287	0.026095
778.5642	0.027805
778.7997	0.028101
779.0352	0.029705
779.2707	0.029768
779.5063	0.032956
779.7418	0.030212
779.9774	0.032555
780.2130	0.029304
780.4485	0.028481
780.6841	0.030127
780.9197	0.029979
781.1553	0.031710
781.3909	0.035067
781.6265	0.035826
781.8622	0.033758
782.0978	0.036523
782.3335	0.035404
782.5691	0.035024
782.8048	0.033990
783.0405	0.034391
783.2761	0.032829
783.5118	0.034159
783.7475	0.035193
783.9832	0.035151
784.2190	0.031098
784.4547	0.029958
784.6904	0.029832
784.9262	0.029452
785.1619	0.029515
785.3977	0.029241
785.6335	0.031267
785.8692	0.029177
786.1050	0.028755
786.3408	0.030929
786.5766	0.027679
786.8124	0.026201
787.0483	0.028333
787.2841	0.029578
787.5199	0.028924
787.7558	0.030043
787.9917	0.028333
788.2275	0.031795
788.4634	0.029705
788.6993	0.031774
788.9352	0.032217
789.1711	0.030275
789.4070	0.030824
789.6429	0.028966
789.8789	0.027467
790.1148	0.026644
790.3507	0.027869
790.5867	0.026623
790.8227	0.025399
791.0586	0.024618
791.2946	0.025863
791.5306	0.023837
791.7666	0.024554
792.0026	0.023963
792.2387	0.021494
792.4747	0.022824
792.7107	0.023372
792.9468	0.023119
793.1828	0.021895
793.4189	0.022021
793.6550	0.021620
793.8910	0.025441
794.1271	0.031921
794.3632	0.032111
794.5993	0.031563
794.8355	0.030760
795.0716	0.033357
795.3077	0.033399
795.5439	0.033504
795.7800	0.030549
796.0162	0.027805
796.2523	0.025905
796.4885	0.023626
796.7247	0.020713
796.9609	0.021853
797.1971	0.023267
797.4333	0.021262
797.6695	0.024175
797.9058	0.023436
798.1420	0.023689
798.3783	0.022444
798.6145	0.021156
798.8508	0.022718
799.0871	0.022359
799.3233	0.021578
799.5596	0.020586
799.7959	0.020354
800.0322	0.020903
800.2686	0.019298
800.5049	0.020417
800.7412	0.019889
800.9776	0.019953
801.2139	0.019700
801.4503	0.017166
801.6867	0.019657
801.9230	0.019151
802.1594	0.018686
802.3958	0.018771
802.6322	0.017525
802.8686	0.017483
803.1051	0.017715
803.3415	0.017420
803.5779	0.017948
803.8144	0.018496
804.0508	0.015520
804.2873	0.017483
804.5238	0.016048
804.7603	0.015773
804.9968	0.017209
805.2333	0.015541
805.4698	0.018623
805.7063	0.016554
805.9428	0.020079
806.1794	0.021937
806.4159	0.023394
806.6525	0.023541
806.8890	0.025335
807.1256	0.023372
807.3622	0.024639
807.5988	0.022190
807.8354	0.023900
808.0720	0.021768
808.3086	0.024069
808.5452	0.022549
808.7818	0.022169
809.0185	0.023436
809.2551	0.020966
809.4918	0.020924
809.7284	0.023267
809.9651	0.019045
810.2018	0.019974
810.4385	0.019003
810.6752	0.019087
810.9119	0.020607
811.1486	0.020924
811.3853	0.018602
811.6221	0.017061
811.8588	0.018686
812.0956	0.017462
812.3323	0.016322
812.5691	0.015752
812.8059	0.014845
813.0427	0.014296
813.2795	0.015604
813.5163	0.016850
813.7531	0.015879
813.9899	0.019172
814.2267	0.018222
814.4636	0.018897
814.7004	0.016174
814.9373	0.017145
815.1742	0.016428
815.4110	0.015203
815.6479	0.017166
815.8848	0.015140
816.1217	0.014422
816.3586	0.014718
816.5955	0.013916
816.8324	0.014359
817.0694	0.015414
817.3063	0.014085
817.5433	0.015161
817.7802	0.016196
818.0172	0.015520
818.2542	0.015668
818.4912	0.012818
818.7282	0.014908
818.9652	0.013219
819.2022	0.012734
819.4392	0.013114
819.6762	0.011172
819.9133	0.011362
820.1503	0.012079
820.3874	0.013979
820.6244	0.016385
820.8615	0.019130
821.0986	0.015710
821.3357	0.015794
821.5727	0.014401
821.8099	0.015140
822.0470	0.013789
822.2841	0.012586
822.5212	0.012100
822.7584	0.012881
822.9955	0.011868
823.2327	0.012797
823.4698	0.011657
823.7070	0.010792
823.9442	0.011003
824.1814	0.013283
824.4186	0.011763
824.6558	0.010538
824.8930	0.011699
825.1302	0.010116
825.3675	0.012797
825.6047	0.013494
825.8419	0.013367
826.0792	0.012185
826.3165	0.012818
826.5537	0.012649
826.7910	0.012312
827.0283	0.013831
827.2656	0.012122
827.5029	0.013916
827.7402	0.013726
827.9776	0.012924
828.2149	0.011446
828.4522	0.013451
828.6896	0.012670
828.9270	0.012438
829.1643	0.013430
829.4017	0.013409
829.6391	0.011531
829.8765	0.010412
830.1139	0.010623
830.3513	0.010264
830.5887	0.010454
830.8261	0.010961
831.0636	0.010412
831.3010	0.008048
831.5385	0.008491
831.7759	0.009736
832.0134	0.007161
832.2509	0.008681
832.4884	0.008786
832.7259	0.008090
832.9634	0.009082
833.2009	0.009842
833.4384	0.007963
833.6759	0.009694
833.9135	0.009251
834.1510	0.008913
834.3886	0.010391
834.6261	0.009947
834.8637	0.010032
835.1013	0.010517
835.3389	0.009610
835.5765	0.009567
835.8141	0.009694
836.0517	0.010348
836.2893	0.006275
836.5269	0.008702
836.7646	0.008385
837.0022	0.007245
837.2399	0.006464
837.4775	0.007288
837.7152	0.006654
837.9529	0.007309
838.1906	0.006908
838.4283	0.006275
838.6660	0.004016
838.9037	0.006443
839.1414	0.006190
839.3791	0.008639
839.6169	0.007267
839.8546	0.006148
840.0924	0.008829
840.3302	0.007815
840.5679	0.006823
840.8057	0.008554
841.0435	0.009019
841.2813	0.009061
841.5191	0.006275
841.7569	0.007224
841.9947	0.005388
842.2326	0.004417
842.4704	0.005050
842.7082	0.005873
842.9461	0.006253
843.1840	0.005008
843.4218	0.005282
843.6597	0.007013
843.8976	0.004311
844.1355	0.006169
844.3734	0.006591
844.6113	0.005472
844.8492	0.006359
845.0872	0.004100
845.3251	0.004734
845.5631	0.006591
845.8010	0.004480
846.0390	0.006422
846.2770	0.006359
846.5149	0.003488
846.7529	0.005895
846.9909	0.006296
847.2289	0.004902
847.4669	0.005789
847.7050	0.006929
847.9430	0.006549
848.1810	0.004438
848.4191	0.004501
848.6571	0.003045
848.8952	0.005536
849.1333	0.003488
849.3713	0.006148
849.6094	0.004776
849.8475	0.004649
850.0856	0.004712
850.3237	0.005620
850.5619	0.005430
850.8000	0.004565
851.0381	0.005557
851.2763	0.004079
851.5144	0.003024
851.7526	0.004185
851.9908	0.005747
852.2289	0.005726
852.4671	0.006359
852.7053	0.008681
852.9435	0.009779
853.1817	0.012881
853.4200	0.013916
853.6582	0.014591
853.8964	0.014359
854.1347	0.013599
854.3729	0.012797
854.6112	0.014591
854.8495	0.013789
855.0877	0.015203
855.3260	0.013071
855.5643	0.013093
855.8026	0.013177
856.0409	0.012987
856.2792	0.011446
856.5176	0.011932
856.7559	0.011974
856.9942	0.011425
857.2326	0.009145
857.4710	0.010982
857.7093	0.009335
857.9477	0.009082
858.1861	0.009990
858.4245	0.010517
858.6629	0.008512
858.9013	0.008913
859.1397	0.008301
859.3781	0.008153
859.6166	0.008512
859.8550	0.008808
860.0935	0.007372
860.3319	0.008976
860.5704	0.007499
860.8089	0.008301
861.0473	0.008090
861.2858	0.008259
861.5243	0.006950
861.7628	0.006866
862.0013	0.006992
862.2399	0.005472
862.4784	0.004860
862.7169	0.005472
862.9555	0.006823
863.1940	0.006591
863.4326	0.007710
863.6712	0.007140
863.9098	0.005430
864.1483	0.007710
864.3869	0.005895
864.6255	0.006739
864.8642	0.005346
865.1028	0.006106
865.3414	0.004797
865.5800	0.004480
865.8187	0.004797
866.0573	0.004269
866.2960	0.004164
866.5347	0.004522
866.7733	0.004860
867.0120	0.005916
867.2507	0.004734
867.4894	0.005388
867.7281	0.004691
867.9669	0.006106
868.2056	0.005451
868.4443	0.006443
868.6831	0.004670
868.9218	0.005599
869.1606	0.005071
869.3993	0.004079
869.6381	0.003741
869.8769	0.005092
870.1157	0.003868
870.3545	0.003615
870.5933	0.005177
870.8321	0.006971
871.0709	0.005810
871.3097	0.006844
871.5486	0.006021
871.7874	0.005240
872.0263	0.004586
872.2651	0.004987
872.5040	0.005092
872.7429	0.005261
872.9818	0.005937
873.2207	0.005261
873.4596	0.005705
873.6985	0.004290
873.9374	0.005979
874.1763	0.005768
874.4153	0.003868
874.6542	0.004459
874.8932	0.003108
875.1321	0.005683
875.3711	0.005430
875.6101	0.007034
875.8491	0.006570
876.0880	0.007351
876.3270	0.004839
876.5661	0.005536
876.8051	0.005683
877.0441	0.004248
877.2831	0.006380
877.5222	0.005852
877.7612	0.005177
878.0003	0.006359
878.2393	0.008005
878.4784	0.007457
878.7175	0.005979
878.9566	0.006021
879.1957	0.007393
879.4348	0.008385
879.6739	0.007731
879.9130	0.006887
880.1521	0.006971
880.3913	0.008048
880.6304	0.007647
880.8696	0.006718
881.1087	0.006950
881.3479	0.006950
881.5871	0.008406
881.8262	0.008618
882.0654	0.006317
882.3046	0.006253
882.5438	0.007013
882.7831	0.005515
883.0223	0.005705
883.2615	0.005683
883.5007	0.007372
883.7400	0.006633
883.9792	0.006148
884.2185	0.005789
884.4578	0.004607
884.6971	0.006507
884.9363	0.006823
885.1756	0.004227
885.4149	0.007625
885.6542	0.005451
885.8936	0.005747
886.1329	0.006570
886.3722	0.006992
886.6116	0.006317
886.8509	0.005493
887.0903	0.006359
887.3296	0.006169
887.5690	0.005662
887.8084	0.005578
888.0478	0.004839
888.2872	0.006169
888.5266	0.003636
888.7660	0.006296
889.0054	0.003552
889.2448	0.006169
889.4843	0.004185
889.7237	0.006211
889.9632	0.003699
890.2026	0.005641
890.4421	0.004544
890.6816	0.004670
890.9211	0.004354
891.1606	0.003784
891.4001	0.004818
891.6396	0.005050
891.8791	0.004164
892.1186	0.006676
892.3581	0.004649
892.5977	0.004058
892.8372	0.006106
893.0768	0.004248
893.3163	0.003741
893.5559	0.003319
893.7955	0.003910
894.0351	0.003784
894.2747	0.004649
894.5143	0.003995
894.7539	0.004459
894.9935	0.004058
895.2331	0.005177
895.4727	0.004269
895.7124	0.006021
895.9520	0.004016
896.1917	0.003826
896.4314	0.005662
896.6710	0.004924
896.9107	0.006570
897.1504	0.004755
897.3901	0.003995
897.6298	0.004839
897.8695	0.005367
898.1092	0.003488
898.3489	0.005641
898.5887	0.004459
898.8284	0.005008
899.0682	0.005620
899.3079	0.004902
899.5477	0.004776
899.7875	0.004691
900.0272	0.004417
900.2670	0.003615
900.5068	0.005240
900.7466	0.005958
900.9864	0.003172
901.2263	0.003488
901.4661	0.004860
901.7059	0.004164
901.9458	0.003699
902.1856	0.005261
902.4255	0.004438
902.6654	0.002749
902.9052	0.003974
903.1451	0.004375
903.3850	0.004333
903.6249	0.003763
903.8648	0.003172
904.1047	0.004797
904.3446	0.005578
904.5846	0.004206
904.8245	0.004206
905.0644	0.006021
905.3044	0.004185
905.5444	0.004016
905.7843	0.004881
906.0243	0.005177
906.2643	0.005641
906.5043	0.005219
906.7443	0.003805
906.9843	0.004966
907.2243	0.004396
907.4643	0.004670
907.7043	0.003467
907.9444	0.005536
908.1844	0.003235
908.4245	0.003446
908.6645	0.003720
908.9046	0.004311
909.1447	0.004037
909.3847	0.002770
909.6248	0.002960
909.8649	0.003066
910.1050	0.002644
910.3452	0.004290
910.5853	0.004185
910.8254	0.002475
911.0655	0.003847
911.3057	0.003741
911.5458	0.003235
911.7860	0.003657
912.0262	0.003931
912.2663	0.004902
912.5065	0.001989
912.7467	0.005536
912.9869	0.003573
913.2271	0.002855
913.4673	0.001884
913.7075	0.004565
913.9478	0.001462
914.1880	0.004269
914.4283	0.002496
914.6685	0.003193
914.9088	0.002053
915.1490	0.003108
915.3893	0.002517
915.6296	0.002665
915.8699	0.003763
916.1102	0.003446
916.3505	0.002559
916.5908	0.005705
916.8311	0.003995
917.0714	0.004164
917.3118	0.004079
917.5521	0.005092
917.7925	0.004628
918.0328	0.004396
918.2732	0.004248
918.5136	0.004375
918.7539	0.003530
918.9943	0.004333
919.2347	0.003678
919.4751	0.004966
919.7155	0.003805
919.9560	0.003784
920.1964	0.003720
920.4368	0.002517
920.6773	0.004016
920.9177	0.005662
921.1582	0.003868
921.3986	0.003615
921.6391	0.002285
921.8796	0.002222
922.1201	0.003045
922.3606	0.004290
922.6011	0.002074
922.8416	0.002264
923.0821	0.003277
923.3226	0.003425
923.5631	0.003488
923.8037	0.003847
924.0442	0.002538
924.2848	0.002707
924.5254	0.001778
924.7659	0.001968
925.0065	0.002665
925.2471	0.002285
925.4877	0.002897
925.7283	0.002792
925.9689	0.002644
926.2095	0.000913
926.4501	0.004227
926.6908	0.002116
926.9314	0.001610
927.1720	0.003214
927.4127	0.002834
927.6533	0.003024
927.8940	0.003235
928.1347	0.003699
928.3754	0.001082
928.6161	0.002623
928.8568	0.002074
929.0975	0.002433
929.3382	0.002813
929.5789	0.000111
929.8196	0.002644
930.0604	0.002095
930.3011	0.002412
930.5419	0.001715
930.7826	0.002116
931.0234	0.002918
931.2642	0.003024
931.5049	0.002053
931.7457	0.002855
931.9865	0.002813
932.2273	0.001166
932.4681	0.003362
932.7089	0.000660
932.9498	0.002559
933.1906	0.001736
933.4314	0.003235
933.6723	0.002623
933.9131	0.003467
934.1540	0.002559
934.3949	0.002918
934.6358	0.002665
934.8766	0.001525
935.1175	0.000449
935.3584	0.001968
935.5993	0.002602
935.8403	0.002243
936.0812	0.003150
936.3221	0.002264
936.5630	0.001757
936.8040	0.003362
937.0449	0.001947
937.2859	0.002412
937.5269	0.001800
937.7678	0.001166
938.0088	0.001103
938.2498	0.000744
938.4908	0.002623
938.7318	0.001377
938.9728	0.001420
939.2138	0.001968
939.4549	0.002475
939.6959	0.001673
939.9369	0.002897
940.1780	0.002053
940.4190	0.001082
940.6601	0.002496
940.9012	0.001652
941.1422	0.000533
941.3833	-0.000206
941.6244	0.001842
941.8655	0.000723
942.1066	0.001103
942.3477	0.002264
942.5889	0.001335
942.8300	0.001082
943.0711	0.000744
943.3123	0.002369
943.5534	0.000807
943.7946	0.002264
944.0357	0.001441
944.2769	0.001314
944.5181	0.001103
944.7593	0.001863
945.0005	0.001208
945.2417	0.001124
945.4829	0.001821
945.7241	0.001546
945.9653	0.000512
946.2066	0.001208
946.4478	0.002581
946.6891	0.001251
946.9303	0.001018
947.1716	0.001251
947.4128	-0.000375
947.6541	0.000047
947.8954	0.001124
948.1367	0.001778
948.3780	0.001124
948.6193	0.001631
948.8606	0.000047
949.1019	0.002137
949.3433	0.000470
949.5846	0.001018
949.8259	0.001398
950.0673	-0.000269
950.3086	0.000829
950.5500	0.001293
950.7914	0.001778
951.0327	0.001420
951.2741	0.001715
951.5155	0.003214
951.7569	0.000913
951.9983	0.002876
952.2398	0.002348
952.4812	0.001673
952.7226	0.001420
952.9640	0.001314
953.2055	0.001800
953.4469	0.000617
953.6884	0.001145
953.9299	0.001757
954.1713	0.001462
954.4128	0.000934
954.6543	0.002412
954.8958	0.001483
955.1373	0.000892
955.3788	0.000934
955.6203	0.001018
955.8618	0.001082
956.1034	0.001061
956.3449	0.001420
956.5865	0.000216
956.8280	0.001989
957.0696	0.000047
957.3111	0.000681
957.5527	-0.000290
957.7943	0.000174
958.0359	0.001018
958.2775	0.001018
958.5191	-0.000396
958.7607	0.000427
959.0023	0.000723
959.2439	0.001821
959.4856	0.001272
959.7272	0.001272
959.9688	-0.000586
960.2105	0.001483
960.4522	-0.000480
960.6938	0.000005
960.9355	0.001821
961.1772	0.002264
961.4189	0.000807
961.6606	0.000322
961.9023	0.000005
962.1440	0.000786
962.3857	0.000807
962.6274	0.001631
962.8692	0.001905
963.1109	0.000934
963.3527	-0.000438
963.5944	0.001187
963.8362	0.000047
964.0779	-0.001303
964.3197	0.000470
964.5615	0.001293
964.8033	0.000470
965.0451	-0.000079
965.2869	0.001546
965.5287	-0.000480
965.7705	0.001293
966.0123	0.002095
966.2542	0.001187
966.4960	0.000153
966.7379	0.000913
966.9797	0.000660
967.2216	0.000449
967.4634	0.000533
967.7053	0.000533
967.9472	0.001821
968.1891	-0.000480
968.4310	0.001905
968.6729	-0.000586
968.9148	0.000744
969.1567	0.001166
969.3987	0.001082
969.6406	0.000111
969.8825	-0.000269
970.1245	0.001166
970.3664	0.000427
970.6084	-0.000142
970.8504	0.000195
971.0923	-0.000332
971.3343	0.000195
971.5763	0.002201
971.8183	0.001166
972.0603	-0.000565
972.3023	0.001757
972.5443	0.001124
972.7864	0.001821
973.0284	0.001420
973.2704	0.001018
973.5125	0.000301
973.7545	0.000470
973.9966	0.000892
974.2387	-0.000607
974.4807	0.000681
974.7228	0.000681
974.9649	0.001145
975.2070	0.001800
975.4491	0.000997
975.6912	0.000216
975.9333	-0.000522
976.1755	0.001251
976.4176	0.000301
976.6597	-0.000269
976.9019	-0.000396
977.1440	0.000343
977.3862	0.000575
977.6283	0.000913
977.8705	-0.001303
978.1127	0.001757
978.3549	0.000132
978.5971	0.000364
978.8393	0.001251
979.0815	0.001166
979.3237	0.000681
979.5659	0.000280
979.8082	0.000786
980.0504	0.000554
980.2926	0.000871
980.5349	0.000596
980.7771	-0.000332
981.0194	0.001588
981.2617	0.000554
981.5040	0.000195
981.7462	-0.000354
981.9885	0.000153
982.2308	0.000111
982.4731	0.000744
982.7155	-0.000818
982.9578	0.001103
983.2001	-0.000058
983.4424	0.002602
983.6848	0.001588
983.9271	-0.000248
984.1695	0.000195
984.4118	0.000892
984.6542	0.001208
984.8966	0.001208
985.1390	0.000807
985.3814	-0.000691
985.6238	-0.000227
985.8662	0.001251
986.1086	0.000026
986.3510	-0.000396
986.5934	-0.000565
986.8358	-0.000522
987.0783	-0.000544
987.3207	0.001989
987.5632	-0.000776
987.8056	0.000301
988.0481	0.001314
988.2906	0.000195
988.5331	0.001251
988.7756	0.001926
989.0180	0.000005
989.2605	0.000639
989.5031	0.001018
989.7456	0.000639
989.9881	0.000934
990.2306	0.001166
990.4732	-0.001726
990.7157	0.000491
990.9582	-0.000290
991.2008	0.000639
991.4434	0.001462
991.6859	-0.000100
991.9285	-0.000269
992.1711	0.000533
992.4137	0.000934
992.6563	0.001926
992.8989	0.000280
993.1415	0.000955
993.3841	-0.000818
993.6267	0.000554
993.8694	0.000216
994.1120	0.001926
994.3547	0.000280
994.5973	0.000934
994.8400	0.000216
995.0826	-0.000185
995.3253	-0.001219
995.5680	0.000322
995.8107	0.001272
996.0534	-0.000311
996.2961	0.001715
996.5388	0.000702
996.7815	-0.000459
997.0242	0.001546
997.2670	-0.001282
997.5097	-0.000501
997.7524	0.000449
997.9952	0.001546
998.2379	0.000850
998.4807	0.000639
998.7235	-0.000586
998.9662	-0.000375
999.2090	0.000026
999.4518	0.000871
999.6946	-0.000712
999.9374	-0.000079
1000.1802	0.000744
1000.4230	0.001166
1000.6659	-0.000586
1000.9087	0.000723
1001.1515	-0.000290
1001.3944	0.000026
1001.6372	-0.000121
1001.8801	-0.001092
1002.1230	0.000786
1002.3658	0.000575
1002.6087	-0.000037
1002.8516	-0.000755
1003.0945	0.001272
1003.3374	-0.000480
1003.5803	0.001103
1003.8232	0.000976
1004.0661	0.000237
1004.3091	-0.000839
1004.5520	0.002158
1004.7949	-0.000016
1005.0379	0.000026
1005.2808	0.001103
1005.5238	0.000575
1005.7667	0.001377
1006.0097	-0.000227
1006.2527	0.000997
1006.4957	0.000385
1006.7387	-0.000396
1006.9817	0.000892
1007.2247	0.001208
1007.4677	0.000322
1007.7107	-0.000691
1007.9538	0.000237
1008.1968	-0.000332
1008.4398	0.000765
1008.6829	0.001483
1008.9259	0.001947
1009.1690	0.000723
1009.4121	0.001483
1009.6551	-0.000881
1009.8982	0.000512
1010.1413	0.000301
1010.3844	0.001567
1010.6275	0.000174
1010.8706	-0.001367
1011.1137	-0.000290
1011.3568	0.001251
1011.6000	0.000005
1011.8431	-0.000459
1012.0863	-0.001029
1012.3294	0.000343
1012.5726	-0.000375
1012.8157	0.000702
1013.0589	-0.000164
1013.3021	0.001272
1013.5452	-0.002338
1013.7884	0.000892
1014.0316	-0.000565
1014.2748	0.002053
1014.5180	0.000660
1014.7613	0.000807
1015.0045	-0.000818
1015.2477	-0.000818
1015.4909	0.000765
1015.7342	-0.001029
1015.9774	0.000047
1016.2207	0.000132
1016.4640	0.000406
1016.7072	0.000681
1016.9505	0.000406
1017.1938	0.001673
1017.4371	0.000596
1017.6804	0.000406
1017.9237	-0.000332
1018.1670	-0.000501
1018.4103	-0.000712
1018.6536	0.000111
1018.8969	-0.000776
1019.1403	0.000385
1019.3836	-0.000818
1019.6270	-0.000649
1019.8703	0.001736
1020.1137	-0.000649
1020.3571	0.000047
1020.6004	0.001124
1020.8438	0.000322
1021.0872	0.000449
1021.3306	0.000639
1021.5740	0.000449
1021.8174	-0.000016
1022.0608	-0.000079
1022.3042	0.000639
1022.5477	-0.000079
1022.7911	-0.000269
1023.0345	0.000174
