# Wavelength (nm)	Intensity (a.u.)
197.7802	-0.001421
197.9842	0.001091
198.1882	0.000753
198.3922	0.000141
198.5963	0.001660
198.8003	0.000288
199.0044	0.000626
199.2085	0.001618
199.4126	0.001639
199.6168	0.001091
199.8209	0.000542
200.0251	0.000225
200.2292	-0.000260
200.4334	-0.001759
200.6376	0.000120
200.8418	0.000837
201.0461	0.001850
201.2503	0.000795
201.4546	0.000457
201.6589	0.000331
201.8631	0.000457
202.0674	0.000584
202.2718	0.001069
202.4761	0.000753
202.6805	-0.000281
202.8848	0.000120
203.0892	0.001872
203.2936	-0.000281
203.4980	0.000901
203.7024	0.000478
203.9069	0.000352
204.1113	0.001639
204.3158	0.000204
204.5203	0.001112
204.7248	0.000246
204.9293	0.000858
205.1338	0.001407
205.3384	-0.000345
205.5430	0.000099
205.7475	0.000668
205.9521	0.001027
206.1567	0.001112
206.3614	0.000774
206.5660	0.000901
206.7706	0.001069
206.9753	-0.000091
207.1800	0.000943
207.3847	0.000795
207.5894	0.001428
207.7941	-0.000619
207.9989	0.000711
208.2036	0.000837
208.4084	0.001893
208.6132	0.000204
208.8180	0.000837
209.0228	0.000500
209.2276	0.000837
209.4325	0.000922
209.6373	-0.000345
209.8422	-0.000345
210.0471	0.000246
210.2520	-0.000091
210.4569	0.000605
210.6618	0.000901
210.8668	-0.000872
211.0718	0.000816
211.2767	0.001069
211.4817	0.000141
211.6867	0.000795
211.8918	-0.000429
212.0968	0.001175
212.3018	-0.000134
212.5069	0.000901
212.7120	0.000605
212.9171	0.001724
213.1222	0.000014
213.3273	0.001217
213.5325	-0.000091
213.7376	0.001344
213.9428	0.000373
214.1480	0.001217
214.3532	-0.000176
214.5584	-0.000028
214.7636	0.000837
214.9689	-0.000218
215.1741	0.001344
215.3794	0.000056
215.5847	0.000711
215.7900	0.000563
215.9953	-0.000704
216.2007	0.000795
216.4060	0.001872
216.6114	0.001069
216.8168	0.001323
217.0222	0.001217
217.2276	0.000225
217.4330	0.001344
217.6384	0.001217
217.8439	0.000056
218.0494	-0.000134
218.2548	0.001703
218.4603	-0.000366
218.6659	0.000183
218.8714	0.000077
219.0769	0.000795
219.2825	0.000310
219.4881	0.002547
219.6936	0.001091
219.8992	0.001323
220.1049	0.000500
220.3105	0.000267
220.5161	0.001365
220.7218	0.000626
220.9275	0.001302
221.1332	0.001175
221.3389	0.001534
221.5446	0.000331
221.7503	0.001555
221.9561	0.001977
222.1618	0.001618
222.3676	-0.000007
222.5734	0.001196
222.7792	0.000879
222.9850	-0.000682
223.1909	-0.001041
223.3967	0.001006
223.6026	0.000858
223.8085	0.001724
224.0144	0.001555
224.2203	0.000246
224.4262	0.000457
224.6322	-0.000704
224.8381	0.001470
225.0441	0.001027
225.2501	0.000795
225.4561	-0.000366
225.6621	-0.000218
225.8681	0.000478
226.0742	0.001344
226.2802	0.001154
226.4863	0.001597
226.6924	-0.000493
226.8985	0.000099
227.1046	0.000141
227.3107	-0.000155
227.5169	0.000626
227.7230	-0.000176
227.9292	0.000099
228.1354	0.001238
228.3416	-0.000408
228.5478	0.000478
228.7541	0.000310
228.9603	0.001154
229.1666	0.001639
229.3729	0.001745
229.5791	0.002230
229.7855	0.000500
229.9918	0.000732
230.1981	0.002019
230.4045	0.000605
230.6108	0.000732
230.8172	-0.000894
231.0236	0.001618
231.2300	0.000711
231.4364	0.001850
231.6429	-0.000450
231.8493	0.001534
232.0558	0.001006
232.2623	0.001428
232.4688	0.000225
232.6753	0.000331
232.8818	0.000774
233.0884	0.000964
233.2949	0.000690
233.5015	-0.001105
233.7081	-0.000788
233.9147	0.000225
234.1213	-0.000324
234.3279	0.000373
234.5346	0.000436
234.7413	0.000310
234.9479	0.000141
235.1546	0.001112
235.3613	0.000331
235.5680	0.002378
235.7748	0.000331
235.9815	-0.000450
236.1883	0.001027
236.3951	0.001386
236.6018	0.000521
236.8087	0.000204
237.0155	-0.000809
237.2223	-0.000134
237.4292	-0.000218
237.6360	0.000394
237.8429	-0.000894
238.0498	0.000774
238.2567	0.001175
238.4636	0.000056
238.6706	-0.000640
238.8775	0.001048
239.0845	0.001555
239.2915	0.000858
239.4985	0.000394
239.7055	0.001703
239.9125	0.002209
240.1195	0.000331
240.3266	0.000943
240.5337	0.000753
240.7407	0.000500
240.9478	0.001027
241.1549	0.000457
241.3621	0.001449
241.5692	-0.000091
241.7764	0.000310
241.9835	-0.000598
242.1907	0.000521
242.3979	-0.000260
242.6051	0.000795
242.8124	-0.000260
243.0196	0.001027
243.2269	0.001259
243.4341	0.000690
243.6414	0.001196
243.8487	0.000331
244.0560	0.000204
244.2634	0.001470
244.4707	0.000225
244.6781	0.001998
244.8854	0.000605
245.0928	-0.000049
245.3002	0.000099
245.5076	-0.000049
245.7151	0.000563
245.9225	-0.000155
246.1300	0.000457
246.3375	0.000457
246.5449	0.000478
246.7524	-0.000936
246.9600	-0.000387
247.1675	0.001872
247.3750	0.000267
247.5826	0.000246
247.7902	0.000246
247.9978	0.003032
248.2054	0.001724
248.4130	0.001386
248.6206	-0.000239
248.8283	0.000732
249.0359	-0.000408
249.2436	-0.000218
249.4513	0.000964
249.6590	0.001555
249.8667	0.000753
250.0745	0.001660
250.2822	0.000943
250.4900	0.001492
250.6978	-0.000408
250.9056	0.000225
251.1134	-0.000239
251.3212	0.000099
251.5290	0.001787
251.7369	0.000901
251.9447	0.000753
252.1526	0.001787
252.3605	0.000352
252.5684	0.001133
252.7763	0.000858
252.9843	0.001428
253.1922	0.001344
253.4002	0.001281
253.6082	0.000690
253.8162	-0.000303
254.0242	-0.001337
254.2322	0.001259
254.4402	0.001196
254.6483	-0.000155
254.8564	-0.000577
255.0644	0.001217
255.2725	-0.000134
255.4806	0.000774
255.6888	0.000225
255.8969	0.000120
256.1051	-0.000936
256.3132	0.000521
256.5214	-0.000028
256.7296	0.000858
256.9378	-0.000091
257.1460	-0.000007
257.3543	0.000120
257.5625	0.000753
257.7708	-0.000408
257.9791	-0.000324
258.1874	0.000183
258.3957	0.001386
258.6040	0.000858
258.8124	0.000542
259.0207	0.000879
259.2291	0.000837
259.4375	-0.000070
259.6459	0.000035
259.8543	-0.000281
260.0627	0.001217
260.2711	0.000647
260.4796	0.000753
260.6881	0.000858
260.8965	0.000457
261.1050	0.000816
261.3135	0.001069
261.5221	0.001660
261.7306	-0.000091
261.9392	-0.000408
262.1477	0.001428
262.3563	0.000331
262.5649	-0.000091
262.7735	0.000901
262.9822	0.001069
263.1908	0.000690
263.3995	0.001048
263.6081	-0.000535
263.8168	-0.000218
264.0255	0.001872
264.2342	0.000035
264.4429	0.000120
264.6517	-0.001358
264.8604	0.000120
265.0692	0.001112
265.2780	0.000204
265.4868	0.001808
265.6956	0.000584
265.9044	0.001660
266.1133	-0.000303
266.3221	0.002251
266.5310	0.000837
266.7399	0.001808
266.9488	0.000879
267.1577	0.000711
267.3666	-0.000176
267.5755	0.000605
267.7845	0.000690
267.9935	-0.000197
268.2024	-0.000704
268.4114	0.000457
268.6205	0.000310
268.8295	-0.000134
269.0385	0.000288
269.2476	-0.000028
269.4566	0.001006
269.6657	-0.000028
269.8748	0.001091
270.0839	0.001914
270.2931	0.000521
270.5022	-0.000471
270.7114	0.001091
270.9205	0.001259
271.1297	0.001196
271.3389	0.000879
271.5481	-0.000387
271.7573	0.001766
271.9666	0.001302
272.1758	0.001133
272.3851	-0.000324
272.5944	-0.000303
272.8037	0.000457
273.0130	0.001302
273.2223	0.000331
273.4316	0.000753
273.6410	0.000584
273.8504	0.001196
274.0597	-0.000028
274.2691	0.000837
274.4785	0.000141
274.6880	0.000415
274.8974	0.000183
275.1069	0.000225
275.3163	0.000077
275.5258	0.001470
275.7353	0.000310
275.9448	0.000985
276.1543	-0.000049
276.3639	0.001850
276.5734	0.001449
276.7830	0.000246
276.9926	0.001407
277.2022	0.000795
277.4118	0.000753
277.6214	0.000647
277.8310	-0.000957
278.0407	0.000795
278.2503	0.001492
278.4600	0.001259
278.6697	-0.000725
278.8794	0.001069
279.0891	-0.001062
279.2989	0.001302
279.5086	0.000331
279.7184	0.001576
279.9281	0.000310
280.1379	0.002167
280.3477	0.000542
280.5576	0.001597
280.7674	-0.000007
280.9772	-0.000598
281.1871	0.000964
281.3970	-0.000366
281.6069	-0.000324
281.8168	0.001703
282.0267	-0.001252
282.2366	0.001576
282.4466	0.001597
282.6565	0.000668
282.8665	0.001872
283.0765	0.000964
283.2865	-0.000535
283.4965	-0.000725
283.7065	-0.000155
283.9166	-0.000598
284.1266	0.001091
284.3367	0.000310
284.5468	0.000711
284.7569	0.000436
284.9670	-0.000218
285.1771	0.001154
285.3873	0.000183
285.5974	0.000014
285.8076	-0.000049
286.0178	0.000985
286.2280	0.000816
286.4382	-0.000260
286.6484	0.000183
286.8587	0.000837
287.0689	0.000077
287.2792	0.001302
287.4895	0.001618
287.6998	-0.000155
287.9101	-0.000260
288.1204	-0.001105
288.3308	0.000162
288.5411	0.001175
288.7515	0.001956
288.9619	-0.000049
289.1723	0.000647
289.3827	0.000668
289.5931	0.000964
289.8035	-0.000113
290.0140	0.001259
290.2245	0.001154
290.4349	-0.000809
290.6454	0.001935
290.8559	-0.000028
291.0665	0.000774
291.2770	0.000478
291.4875	0.000690
291.6981	-0.000809
291.9087	-0.000577
292.1193	-0.000682
292.3299	-0.000260
292.5405	-0.000429
292.7511	0.001618
292.9618	0.000605
293.1724	-0.000725
293.3831	-0.000936
293.5938	0.001259
293.8045	-0.000218
294.0152	0.002040
294.2260	0.000373
294.4367	0.002526
294.6475	0.001027
294.8582	0.000774
295.0690	-0.000239
295.2798	0.001766
295.4906	0.000500
295.7015	0.000626
295.9123	-0.001316
296.1232	-0.000218
296.3340	0.000584
296.5449	0.000352
296.7558	-0.000978
296.9667	0.000500
297.1777	-0.001020
297.3886	-0.000345
297.5995	0.000267
297.8105	0.001935
298.0215	0.001407
298.2325	0.001027
298.4435	-0.000366
298.6545	0.001154
298.8656	-0.000155
299.0766	0.001048
299.2877	0.000626
299.4988	0.001323
299.7099	-0.000070
299.9210	-0.000091
300.1321	-0.000345
300.3432	-0.000197
300.5544	-0.000091
300.7655	0.000858
300.9767	-0.000999
301.1879	0.002125
301.3991	-0.000049
301.6103	0.001259
301.8215	0.000415
302.0328	0.001196
302.2441	-0.000028
302.4553	0.000711
302.6666	0.000542
302.8779	0.001027
303.0892	0.000732
303.3006	0.001555
303.5119	0.000077
303.7233	0.001323
303.9346	-0.000239
304.1460	0.000415
304.3574	0.000056
304.5688	-0.000324
304.7803	0.000605
304.9917	-0.000218
305.2031	0.000373
305.4146	0.000225
305.6261	0.000837
305.8376	0.000753
306.0491	0.000288
306.2606	0.001703
306.4722	0.000394
306.6837	0.000732
306.8953	-0.000049
307.1069	0.000795
307.3184	0.000563
307.5301	0.000056
307.7417	0.001386
307.9533	0.002230
308.1650	0.000288
308.3766	-0.001105
308.5883	0.000943
308.8000	0.000183
309.0117	0.001344
309.2234	0.001407
309.4351	-0.000661
309.6469	0.000647
309.8586	-0.000134
310.0704	0.000816
310.2822	-0.000366
310.4940	0.001344
310.7058	0.000521
310.9176	0.000246
311.1295	0.000077
311.3413	0.000584
311.5532	0.001724
311.7651	-0.000091
311.9770	0.001998
312.1889	0.000204
312.4008	0.001027
312.6127	0.000246
312.8247	0.000246
313.0366	0.001745
313.2486	0.000690
313.4606	-0.000408
313.6726	-0.000345
313.8846	0.001893
314.0967	0.000858
314.3087	0.000500
314.5208	0.000077
314.7328	0.001302
314.9449	-0.000091
315.1570	0.001513
315.3692	0.000204
315.5813	0.001323
315.7934	0.000436
316.0056	0.000162
316.2177	-0.000113
316.4299	0.001808
316.6421	0.000690
316.8543	-0.000007
317.0666	0.001175
317.2788	0.001091
317.4911	0.000478
317.7033	0.000310
317.9156	0.002526
318.1279	0.000647
318.3402	-0.000218
318.5525	0.000626
318.7649	-0.002012
318.9772	0.000183
319.1896	0.001344
319.4019	0.000225
319.6143	0.000901
319.8267	0.001048
320.0392	0.000415
320.2516	0.001302
320.4640	0.000204
320.6765	0.000436
320.8890	0.000563
321.1014	0.000837
321.3139	0.000753
321.5265	0.001091
321.7390	-0.000894
321.9515	0.001365
322.1641	-0.000661
322.3766	0.001259
322.5892	0.000120
322.8018	0.000521
323.0144	0.000858
323.2270	0.000584
323.4397	-0.000872
323.6523	-0.000091
323.8650	-0.000281
324.0777	0.000500
324.2904	0.000858
324.5031	0.000964
324.7158	-0.000936
324.9285	-0.000155
325.1412	0.000626
325.3540	0.000478
325.5668	0.000141
325.7796	0.001576
325.9924	0.000500
326.2052	0.001112
326.4180	0.001196
326.6308	-0.000028
326.8437	-0.000049
327.0566	0.002209
327.2694	-0.000345
327.4823	-0.001653
327.6952	-0.001041
327.9082	0.000711
328.1211	0.001091
328.3340	0.000204
328.5470	0.000331
328.7600	0.000394
328.9730	0.000795
329.1860	0.000922
329.3990	-0.000049
329.6120	0.001006
329.8251	-0.000514
330.0381	0.002273
330.2512	0.000985
330.4643	0.000436
330.6774	0.000373
330.8905	0.000795
331.1036	0.000162
331.3167	0.002336
331.5299	-0.000450
331.7431	0.001365
331.9562	0.000035
332.1694	-0.000028
332.3826	0.001407
332.5959	0.000056
332.8091	0.000352
333.0223	-0.000155
333.2356	0.002040
333.4489	0.000225
333.6622	0.000521
333.8755	0.000711
334.0888	-0.000091
334.3021	0.001344
334.5154	-0.000471
334.7288	0.000626
334.9422	-0.000682
335.1555	0.001344
335.3689	-0.000239
335.5823	0.001998
335.7958	0.001027
336.0092	0.000922
336.2227	0.000246
336.4361	0.000035
336.6496	-0.000049
336.8631	0.000795
337.0766	-0.000176
337.2901	-0.000049
337.5036	0.000099
337.7172	0.000795
337.9307	0.000415
338.1443	0.000668
338.3579	0.001112
338.5715	0.000352
338.7851	0.000436
338.9987	0.000288
339.2124	0.000647
339.4260	-0.000577
339.6397	0.000711
339.8533	-0.000113
340.0670	0.000795
340.2807	0.000858
340.4945	-0.000851
340.7082	0.002821
340.9219	0.001112
341.1357	0.001998
341.3495	0.000668
341.5633	0.000879
341.7771	0.001660
341.9909	0.000837
342.2047	-0.000113
342.4185	-0.000450
342.6324	0.000858
342.8463	0.001133
343.0601	-0.000218
343.2740	0.002083
343.4879	0.001576
343.7019	0.001492
343.9158	0.001534
344.1297	0.000563
344.3437	-0.000260
344.5577	0.001365
344.7717	0.000246
344.9857	0.001534
345.1997	0.000500
345.4137	0.001091
345.6277	0.000246
345.8418	-0.000007
346.0559	0.000774
346.2699	0.001323
346.4840	0.000500
346.6981	0.000711
346.9123	0.000436
347.1264	0.001660
347.3406	0.000668
347.5547	0.002146
347.7689	0.001935
347.9831	0.001217
348.1973	-0.000260
348.4115	0.002125
348.6257	0.000352
348.8400	0.002568
349.0542	0.000120
349.2685	0.000415
349.4828	0.000774
349.6971	-0.000218
349.9114	-0.000260
350.1257	0.002821
350.3400	-0.000556
350.5544	0.001323
350.7687	-0.000535
350.9831	-0.000324
351.1975	0.001027
351.4119	0.001703
351.6263	0.001048
351.8407	0.000985
352.0552	-0.000450
352.2696	-0.000471
352.4841	0.001112
352.6986	0.001407
352.9131	0.000943
353.1276	0.000668
353.3421	-0.000197
353.5566	0.000141
353.7712	0.000394
353.9858	0.000774
354.2003	0.001175
354.4149	0.000690
354.6295	-0.000070
354.8441	-0.000281
355.0588	-0.001231
355.2734	0.001133
355.4881	-0.000661
355.7027	0.001217
355.9174	0.000563
356.1321	0.000858
356.3468	0.000879
356.5615	0.000858
356.7763	-0.000387
356.9910	0.000352
357.2058	-0.000281
357.4206	0.000858
357.6353	0.001344
357.8501	0.001407
358.0650	-0.000007
358.2798	0.001470
358.4946	-0.000218
358.7095	-0.000281
358.9243	0.001027
359.1392	0.000141
359.3541	-0.000155
359.5690	0.000310
359.7839	-0.000028
359.9989	0.002167
360.2138	-0.000957
360.4288	0.000436
360.6438	0.000690
360.8587	0.000204
361.0737	0.001787
361.2888	0.000753
361.5038	0.001850
361.7188	0.002104
361.9339	-0.000007
362.1489	0.000837
362.3640	0.000225
362.5791	0.000901
362.7942	0.001323
363.0093	0.000352
363.2245	0.000668
363.4396	0.000774
363.6548	0.001027
363.8699	0.001534
364.0851	-0.000345
364.3003	0.002336
364.5155	-0.000049
364.7308	0.000753
364.9460	0.001006
365.1612	-0.000113
365.3765	0.000014
365.5918	0.000183
365.8071	0.000521
366.0224	0.000879
366.2377	0.000457
366.4530	0.001175
366.6684	0.000183
366.8837	0.000584
367.0991	-0.000767
367.3145	0.001386
367.5299	0.001175
367.7453	0.001196
367.9607	0.000901
368.1761	0.000922
368.3916	0.001091
368.6070	-0.000408
368.8225	0.000204
369.0380	0.001027
369.2535	0.000141
369.4690	0.000352
369.6845	-0.000788
369.9001	0.001703
370.1156	-0.000619
370.3312	-0.000661
370.5468	0.000310
370.7624	0.000267
370.9780	0.001154
371.1936	0.002040
371.4092	0.000753
371.6249	0.000521
371.8405	0.001787
372.0562	0.001893
372.2719	0.000816
372.4876	0.001154
372.7033	-0.000788
372.9190	0.001006
373.1348	-0.000324
373.3505	0.000331
373.5663	0.000394
373.7820	-0.000070
373.9978	0.000521
374.2136	0.000711
374.4294	0.001302
374.6453	-0.000070
374.8611	0.000246
375.0770	0.001956
375.2928	0.000331
375.5087	0.000415
375.7246	-0.000007
375.9405	-0.000197
376.1564	0.000310
376.3724	0.001217
376.5883	-0.000281
376.8043	0.000668
377.0203	0.000415
377.2362	-0.000682
377.4522	0.000415
377.6682	0.000563
377.8843	0.001217
378.1003	0.001893
378.3164	0.001703
378.5324	0.001829
378.7485	0.000099
378.9646	0.000183
379.1807	0.000077
379.3968	0.001302
379.6129	-0.000640
379.8291	0.000288
380.0452	0.000204
380.2614	0.000816
380.4776	0.000373
380.6938	0.001133
380.9100	-0.000049
381.1262	0.000901
381.3424	0.001302
381.5587	0.000521
381.7749	0.001829
381.9912	0.000542
382.2075	0.000922
382.4238	-0.000345
382.6401	0.000183
382.8564	0.001449
383.0728	0.001238
383.2891	0.001703
383.5055	0.001344
383.7219	0.001027
383.9382	0.000901
384.1546	0.000056
384.3711	-0.000239
384.5875	0.001977
384.8039	0.000267
385.0204	0.001302
385.2368	0.001682
385.4533	0.001048
385.6698	-0.000303
385.8863	0.001829
386.1028	0.000204
386.3194	0.001893
386.5359	0.001829
386.7525	0.000858
386.9690	-0.000155
387.1856	0.000436
387.4022	0.000415
387.6188	0.001344
387.8355	0.000837
388.0521	0.001872
388.2687	0.002969
388.4854	0.001259
388.7021	0.001660
388.9188	0.003075
389.1355	0.001977
389.3522	0.001534
389.5689	0.001914
389.7856	0.000014
390.0024	0.001112
390.2192	0.003813
390.4359	0.003476
390.6527	0.001956
390.8695	0.002653
391.0863	0.003222
391.3032	0.001682
391.5200	0.003813
391.7369	0.002653
391.9537	0.004193
392.1706	0.002821
392.3875	0.004067
392.6044	0.004067
392.8213	0.005396
393.0383	0.004742
393.2552	0.004594
393.4722	0.005207
393.6891	0.004953
393.9061	0.006199
394.1231	0.004805
394.3401	0.005418
394.5572	0.005101
394.7742	0.006515
394.9912	0.005333
395.2083	0.006410
395.4254	0.007423
395.6425	0.007423
395.8596	0.006642
396.0767	0.006177
396.2938	0.006199
396.5109	0.006473
396.7281	0.008985
396.9453	0.007444
397.1624	0.007465
397.3796	0.007655
397.5968	0.011095
397.8140	0.009576
398.0313	0.009428
398.2485	0.009639
398.4658	0.011792
398.6830	0.009702
398.9003	0.011518
399.1176	0.009871
399.3349	0.010884
399.5522	0.009154
399.7696	0.012383
399.9869	0.012151
400.2043	0.012109
400.4216	0.011475
400.6390	0.009977
400.8564	0.011307
401.0738	0.013080
401.2912	0.010969
401.5087	0.011433
401.7261	0.012911
401.9436	0.012847
402.1610	0.012679
402.3785	0.014536
402.5960	0.012425
402.8135	0.013797
403.0310	0.013924
403.2486	0.013101
403.4661	0.014452
403.6837	0.015359
403.9013	0.015359
404.1189	0.014726
404.3365	0.013966
404.5541	0.015612
404.7717	0.015676
404.9893	0.014916
405.2070	0.016140
405.4246	0.016225
405.6423	0.017470
405.8600	0.015718
406.0777	0.018061
406.2954	0.016098
406.5131	0.017871
406.7309	0.017597
406.9486	0.016119
407.1664	0.015359
407.3842	0.015127
407.6020	0.016499
407.8198	0.015528
408.0376	0.016098
408.2554	0.017512
408.4733	0.016077
408.6911	0.018356
408.9090	0.018019
409.1269	0.017977
409.3448	0.016773
409.5627	0.019285
409.7806	0.018736
409.9985	0.019370
410.2165	0.017934
410.4344	0.019243
410.6524	0.017871
410.8704	0.016520
411.0884	0.019264
411.3064	0.019053
411.5244	0.019686
411.7424	0.020298
411.9605	0.018251
412.1785	0.021185
412.3966	0.020298
412.6147	0.022050
412.8328	0.019750
413.0509	0.022493
413.2690	0.020172
413.4871	0.022071
413.7053	0.020129
413.9234	0.020573
414.1416	0.019897
414.3598	0.021206
414.5780	0.019961
414.7962	0.019201
415.0144	0.021691
415.2326	0.020868
415.4509	0.022726
415.6692	0.022240
415.8874	0.021311
416.1057	0.022114
416.3240	0.022156
416.5423	0.021691
416.7606	0.022346
416.9790	0.021649
417.1973	0.023317
417.4157	0.021037
417.6341	0.023127
417.8524	0.022219
418.0708	0.021966
418.2893	0.021227
418.5077	0.022282
418.7261	0.022852
418.9446	0.020742
419.1630	0.024752
419.3815	0.022388
419.6000	0.023528
419.8185	0.022578
420.0370	0.024288
420.2555	0.023633
420.4741	0.023253
420.6926	0.025322
420.9112	0.024224
421.1298	0.026419
421.3483	0.026504
421.5669	0.029353
421.7856	0.028720
422.0042	0.028889
422.2228	0.028572
422.4415	0.025913
422.6601	0.026673
422.8788	0.028192
423.0975	0.027369
423.3162	0.027327
423.5349	0.028615
423.7536	0.025828
423.9724	0.027243
424.1911	0.027538
424.4099	0.025153
424.6287	0.027306
424.8475	0.029206
425.0663	0.027939
425.2851	0.028045
425.5039	0.025955
425.7228	0.025026
425.9416	0.025934
426.1605	0.025047
426.3793	0.024499
426.5982	0.026609
426.8171	0.025406
427.0361	0.024140
427.2550	0.024689
427.4739	0.026525
427.6929	0.029016
427.9118	0.026567
428.1308	0.025660
428.3498	0.025111
428.5688	0.026398
428.7878	0.026905
429.0068	0.026968
429.2259	0.026018
429.4449	0.029522
429.6640	0.028150
429.8831	0.026926
430.1022	0.030620
430.3213	0.031443
430.5404	0.032266
430.7595	0.030261
430.9787	0.031992
431.1978	0.030514
431.4170	0.029121
431.6362	0.028024
431.8553	0.025681
432.0745	0.025385
432.2938	0.025090
432.5130	0.026272
432.7322	0.025723
432.9515	0.023908
433.1707	0.024604
433.3900	0.025449
433.6093	0.029881
433.8286	0.030388
434.0479	0.031338
434.2673	0.030451
434.4866	0.028024
434.7059	0.025280
434.9253	0.025702
435.1447	0.027032
435.3641	0.027095
435.5835	0.025997
435.8029	0.025850
436.0223	0.025681
436.2418	0.027264
436.4612	0.028214
436.6807	0.029607
436.9001	0.029417
437.1196	0.027348
437.3391	0.027116
437.5586	0.026799
437.7782	0.026483
437.9977	0.027834
438.2173	0.028995
438.4368	0.026947
438.6564	0.027496
438.8760	0.027475
439.0956	0.027770
439.3152	0.026673
439.5348	0.028024
439.7545	0.026018
439.9741	0.027728
440.1938	0.028108
440.4135	0.025681
440.6331	0.027496
440.8528	0.027665
441.0725	0.028678
441.2923	0.029839
441.5120	0.031401
441.7318	0.031042
441.9515	0.030725
442.1713	0.031760
442.3911	0.031148
442.6109	0.030873
442.8307	0.030451
443.0505	0.030704
443.2703	0.031084
443.4902	0.030915
443.7101	0.032034
443.9299	0.031105
444.1498	0.029163
444.3697	0.031105
444.5896	0.029670
444.8095	0.030345
445.0295	0.027939
445.2494	0.029501
445.4694	0.031190
445.6894	0.029543
445.9093	0.028784
446.1293	0.027981
446.3493	0.028277
446.5694	0.029628
446.7894	0.027623
447.0094	0.028678
447.2295	0.029375
447.4496	0.026884
447.6696	0.026968
447.8897	0.026884
448.1098	0.026905
448.3300	0.024013
448.5501	0.026673
448.7702	0.024478
448.9904	0.025512
449.2106	0.026419
449.4307	0.026314
449.6509	0.026715
449.8711	0.025533
450.0914	0.026230
450.3116	0.024013
450.5318	0.026061
450.7521	0.024140
450.9724	0.026018
451.1926	0.023190
451.4129	0.022937
451.6332	0.024815
451.8535	0.024942
452.0739	0.023676
452.2942	0.022895
452.5146	0.024372
452.7349	0.023401
452.9553	0.022620
453.1757	0.021290
453.3961	0.021881
453.6165	0.021016
453.8369	0.023000
454.0574	0.021396
454.2778	0.020763
454.4983	0.021185
454.7188	0.019750
454.9393	0.020953
455.1597	0.021776
455.3803	0.021122
455.6008	0.020847
455.8213	0.020488
456.0419	0.019707
456.2624	0.020298
456.4830	0.022198
456.7036	0.017090
456.9242	0.019412
457.1448	0.019496
457.3654	0.019602
457.5860	0.020594
457.8067	0.020678
458.0274	0.021902
458.2480	0.021396
458.4687	0.023401
458.6894	0.020172
458.9101	0.021523
459.1308	0.021269
459.3516	0.020003
459.5723	0.020425
459.7931	0.020784
460.0138	0.021586
460.2346	0.019011
460.4554	0.017533
460.6762	0.019180
460.8970	0.016668
461.1178	0.019095
461.3387	0.018905
461.5595	0.018209
461.7804	0.017428
462.0013	0.016203
462.2222	0.016225
462.4431	0.015169
462.6640	0.016077
462.8849	0.013882
463.1059	0.016056
463.3268	0.016372
463.5478	0.016372
463.7687	0.016330
463.9897	0.018504
464.2107	0.018441
464.4317	0.017850
464.6528	0.017259
464.8738	0.017512
465.0948	0.017132
465.3159	0.016583
465.5370	0.017449
465.7581	0.016794
465.9792	0.018757
466.2003	0.015908
466.4214	0.015486
466.6425	0.013966
466.8637	0.014409
467.0848	0.013080
467.3060	0.013713
467.5272	0.013164
467.7484	0.012932
467.9696	0.013460
468.1908	0.013692
468.4120	0.013164
468.6333	0.012066
468.8545	0.011750
469.0758	0.011961
469.2970	0.011961
469.5183	0.010737
469.7396	0.010378
469.9610	0.009829
470.1823	0.009829
470.4036	0.011117
470.6250	0.011243
470.8463	0.010800
471.0677	0.011454
471.2891	0.010694
471.5105	0.010441
471.7319	0.011095
471.9533	0.008478
472.1748	0.010990
472.3962	0.009618
472.6177	0.010483
472.8391	0.010863
473.0606	0.009935
473.2821	0.009745
473.5036	0.012531
473.7251	0.011011
473.9467	0.009766
474.1682	0.010336
474.3898	0.009196
474.6113	0.009892
474.8329	0.009913
475.0545	0.009660
475.2761	0.009449
475.4977	0.009428
475.7193	0.009702
475.9410	0.008520
476.1626	0.009027
476.3843	0.008415
476.6060	0.009723
476.8277	0.008816
477.0494	0.008964
477.2711	0.008795
477.4928	0.009829
477.7145	0.007718
477.9363	0.008605
478.1580	0.008943
478.3798	0.008964
478.6016	0.008710
478.8234	0.007718
479.0452	0.007866
479.2670	0.006853
479.4888	0.008119
479.7107	0.008710
479.9325	0.009196
480.1544	0.008858
480.3763	0.009111
480.5982	0.008816
480.8201	0.007571
481.0420	0.008943
481.2639	0.007127
481.4859	0.008415
481.7078	0.007106
481.9298	0.008162
482.1517	0.006135
482.3737	0.009069
482.5957	0.007507
482.8177	0.007739
483.0398	0.007634
483.2618	0.007845
483.4838	0.007761
483.7059	0.007064
483.9280	0.007106
484.1501	0.005755
484.3721	0.008457
484.5943	0.008436
484.8164	0.006705
485.0385	0.007465
485.2606	0.006262
485.4828	0.009280
485.7050	0.014325
485.9271	0.019939
486.1493	0.023401
486.3715	0.018525
486.5937	0.013037
486.8160	0.012805
487.0382	0.011792
487.2605	0.011686
487.4827	0.008985
487.7050	0.007950
487.9273	0.005734
488.1496	0.005945
488.3719	0.006684
488.5942	0.005502
488.8165	0.004890
489.0389	0.006220
489.2612	0.006790
489.4836	0.006072
489.7060	0.005143
489.9284	0.004383
490.1508	0.005840
490.3732	0.005312
490.5956	0.005080
490.8180	0.005185
491.0405	0.005396
491.2630	0.004848
491.4854	0.004552
491.7079	0.005059
491.9304	0.003792
492.1529	0.005439
492.3755	0.004510
492.5980	0.005291
492.8205	0.005375
493.0431	0.005608
493.2657	0.004426
493.4882	0.005460
493.7108	0.005460
493.9334	0.004573
494.1561	0.004974
494.3787	0.004932
494.6013	0.004257
494.8240	0.003792
495.0466	0.004214
495.2693	0.005586
495.4920	0.004827
495.7147	0.004700
495.9374	0.004257
496.1601	0.004573
496.3829	0.003856
496.6056	0.004805
496.8284	0.005312
497.0511	0.004573
497.2739	0.005629
497.4967	0.005143
497.7195	0.002653
497.9423	0.003898
498.1652	0.004637
498.3880	0.004552
498.6109	0.003476
498.8337	0.003940
499.0566	0.002716
499.2795	0.002463
499.5024	0.004763
499.7253	0.003940
499.9482	0.003813
500.1712	0.003771
500.3941	0.003433
500.6171	0.002864
500.8400	0.002674
501.0630	0.004383
501.2860	0.005101
501.5090	0.005017
501.7320	0.003265
501.9551	0.004109
502.1781	0.005038
502.4012	0.004637
502.6242	0.002842
502.8473	0.004510
503.0704	0.003286
503.2935	0.004362
503.5166	0.003117
503.7397	0.004024
503.9628	0.002125
504.1860	0.003180
504.4092	0.002969
504.6323	0.003877
504.8555	0.003265
505.0787	0.002948
505.3019	0.002885
505.5251	0.004362
505.7483	0.003307
505.9716	0.002990
506.1948	0.004679
506.4181	0.003961
506.6414	0.003032
506.8647	0.005249
507.0880	0.003075
507.3113	0.004299
507.5346	0.004130
507.7579	0.003054
507.9813	0.005017
508.2046	0.004130
508.4280	0.003096
508.6514	0.003813
508.8748	0.004911
509.0982	0.003687
509.3216	0.002357
509.5450	0.004784
509.7685	0.003307
509.9919	0.003602
510.2154	0.002315
510.4388	0.002990
510.6623	0.002842
510.8858	0.004088
511.1093	0.003476
511.3329	0.003898
511.5564	0.003011
511.7799	0.003412
512.0035	0.003813
512.2270	0.004426
512.4506	0.003096
512.6742	0.004299
512.8978	0.001872
513.1214	0.003391
513.3451	0.003792
513.5687	0.002526
513.7923	0.004552
514.0160	0.003286
514.2397	0.002420
514.4634	0.002589
514.6871	0.004426
514.9108	0.002589
515.1345	0.002864
515.3582	0.004236
515.5819	0.002990
515.8057	0.003349
516.0295	0.003096
516.2532	0.003982
516.4770	0.003138
516.7008	0.001998
516.9246	0.002209
517.1485	0.002188
517.3723	0.003265
517.5961	0.002568
517.8200	0.004046
518.0439	0.003159
518.2677	0.003581
518.4916	0.002336
518.7155	0.002568
518.9395	0.003075
519.1634	0.003265
519.3873	0.003645
519.6113	0.004426
519.8352	0.003328
520.0592	0.003096
520.2832	0.004024
520.5072	0.003307
520.7312	0.003307
520.9552	0.003011
521.1792	0.003476
521.4033	0.005038
521.6273	0.002969
521.8514	0.005481
522.0755	0.002484
522.2996	0.003412
522.5237	0.005122
522.7478	0.004299
522.9719	0.004383
523.1960	0.004172
523.4202	0.004172
523.6443	0.003054
523.8685	0.001386
524.0927	0.003771
524.3169	0.003919
524.5411	0.003835
524.7653	0.003222
524.9895	0.005333
525.2138	0.004531
525.4380	0.005207
525.6623	0.005544
525.8865	0.005038
526.1108	0.004827
526.3351	0.005080
526.5594	0.003982
526.7837	0.006135
527.0081	0.005439
527.2324	0.004911
527.4568	0.004257
527.6811	0.004742
527.9055	0.005502
528.1299	0.004046
528.3543	0.005164
528.5787	0.005692
528.8031	0.005270
529.0276	0.005987
529.2520	0.006304
529.4765	0.004890
529.7009	0.004615
529.9254	0.005502
530.1499	0.004531
530.3744	0.005945
530.5989	0.004679
530.8234	0.005945
531.0480	0.005945
531.2725	0.006346
531.4971	0.005586
531.7217	0.006705
531.9462	0.006114
532.1708	0.006199
532.3954	0.005945
532.6200	0.005861
532.8447	0.005692
533.0693	0.006621
533.2940	0.005354
533.5186	0.006958
533.7433	0.007338
533.9680	0.006958
534.1927	0.007634
534.4174	0.008183
534.6421	0.006093
534.8668	0.009090
535.0916	0.007592
535.3163	0.007001
535.5411	0.009280
535.7659	0.007655
535.9907	0.008035
536.2155	0.009808
536.4403	0.008541
536.6651	0.008499
536.8899	0.009048
537.1148	0.009132
537.3396	0.008563
537.5645	0.010504
537.7894	0.008352
538.0143	0.009745
538.2392	0.008140
538.4641	0.009534
538.6890	0.010378
538.9139	0.009597
539.1389	0.010716
539.3638	0.011518
539.5888	0.011750
539.8138	0.011433
540.0388	0.009702
540.2638	0.009956
540.4888	0.010019
540.7138	0.011370
540.9389	0.011729
541.1639	0.010842
541.3890	0.013164
541.6140	0.011919
541.8391	0.011412
542.0642	0.013354
542.2893	0.011180
542.5144	0.013185
542.7396	0.014473
542.9647	0.012510
543.1899	0.013544
543.4150	0.013586
543.6402	0.013333
543.8654	0.014937
544.0906	0.013586
544.3158	0.015992
544.5410	0.015781
544.7662	0.015085
544.9915	0.015064
545.2167	0.016436
545.4420	0.015718
545.6673	0.015169
545.8926	0.016119
546.1179	0.016035
546.3432	0.015127
546.5685	0.015718
546.7938	0.014620
547.0192	0.015802
547.2445	0.016773
547.4699	0.017111
547.6953	0.018124
547.9206	0.018462
548.1460	0.019855
548.3715	0.020151
548.5969	0.022219
548.8223	0.019982
549.0478	0.018821
549.2732	0.018884
549.4987	0.018483
549.7242	0.018145
549.9496	0.019496
550.1751	0.019517
550.4007	0.020826
550.6262	0.019285
550.8517	0.019623
551.0773	0.019074
551.3028	0.019159
551.5284	0.019285
551.7540	0.018990
551.9796	0.022304
552.2052	0.022472
552.4308	0.023992
552.6564	0.023697
552.8820	0.020446
553.1077	0.022451
553.3333	0.021924
553.5590	0.022831
553.7847	0.023232
554.0104	0.023507
554.2361	0.024583
554.4618	0.023908
554.6875	0.023000
554.9132	0.022135
555.1390	0.023232
555.3648	0.027053
555.5905	0.025765
555.8163	0.026251
556.0421	0.026546
556.2679	0.026061
556.4937	0.028425
556.7195	0.024562
556.9454	0.025723
557.1712	0.024456
557.3971	0.026989
557.6230	0.025934
557.8488	0.027390
558.0747	0.028066
558.3006	0.026082
558.5266	0.024731
558.7525	0.027475
558.9784	0.025216
559.2044	0.024900
559.4303	0.024055
559.6563	0.028446
559.8823	0.029121
560.1083	0.029227
560.3343	0.030936
560.5603	0.032836
560.7863	0.033638
561.0124	0.035221
561.2384	0.035622
561.4645	0.034546
561.6905	0.035221
561.9166	0.034651
562.1427	0.034630
562.3688	0.034968
562.5949	0.034757
562.8211	0.035812
563.0472	0.034884
563.2733	0.035306
563.4995	0.034461
563.7257	0.036551
563.9519	0.038197
564.1781	0.039295
564.4043	0.038219
564.6305	0.039633
564.8567	0.038514
565.0829	0.038493
565.3092	0.042693
565.5355	0.041005
565.7617	0.040667
565.9880	0.042799
566.2143	0.043221
566.4406	0.045458
566.6669	0.043685
566.8932	0.044783
567.1196	0.047611
567.3459	0.051178
567.5723	0.054049
567.7987	0.055273
568.0250	0.055907
568.2514	0.058376
568.4778	0.061901
568.7043	0.064033
568.9307	0.066355
569.1571	0.071421
569.3836	0.078154
569.6100	0.086660
569.8365	0.093816
570.0630	0.102913
570.2895	0.103525
570.5160	0.102258
570.7425	0.105720
570.9690	0.111187
571.1956	0.120728
571.4221	0.125941
571.6487	0.126215
571.8752	0.132569
572.1018	0.138985
572.3284	0.133751
572.5550	0.129023
572.7816	0.120728
573.0082	0.118279
573.2349	0.126405
573.4615	0.137086
573.6882	0.148632
573.9149	0.152241
574.1415	0.159650
574.3682	0.170752
574.5949	0.173137
574.8216	0.176282
575.0484	0.176303
575.2751	0.175733
575.5018	0.174024
575.7286	0.166826
575.9554	0.161676
576.1821	0.160135
576.4089	0.161486
576.6357	0.171913
576.8626	0.178836
577.0894	0.186709
577.3162	0.187786
577.5431	0.193358
577.7699	0.216344
577.9968	0.243277
578.2237	0.244628
578.4505	0.228692
578.6774	0.212524
578.9044	0.201041
579.1313	0.189918
579.3582	0.190825
579.5851	0.202434
579.8121	0.209125
580.0391	0.209885
580.2660	0.208176
580.4930	0.208788
580.7200	0.202139
580.9470	0.205558
581.1741	0.237072
581.4011	0.286590
581.6281	0.317027
581.8552	0.318040
582.0822	0.316816
582.3093	0.307845
582.5364	0.281482
582.7635	0.259762
582.9906	0.238000
583.2177	0.222043
583.4449	0.213811
583.6720	0.198002
583.8991	0.192514
584.1263	0.199775
584.3535	0.196925
584.5807	0.198234
584.8079	0.211869
585.0351	0.223795
585.2623	0.239520
585.4895	0.239668
585.7167	0.236481
585.9440	0.227299
586.1713	0.215880
586.3985	0.208239
586.6258	0.196377
586.8531	0.203595
587.0804	0.215204
587.3077	0.230106
587.5350	0.230613
587.7624	0.229389
587.9897	0.218919
588.2171	0.210244
588.4445	0.201252
588.6718	0.198192
588.8992	0.188947
589.1266	0.177042
589.3540	0.168219
589.5815	0.167586
589.8089	0.166151
590.0363	0.164251
590.2638	0.156568
590.4913	0.152262
590.7187	0.146732
590.9462	0.137571
591.1737	0.136115
591.4012	0.131471
591.6288	0.129614
591.8563	0.135144
592.0838	0.130564
592.3114	0.133793
592.5389	0.155534
592.7665	0.182889
592.9941	0.200999
593.2217	0.204081
593.4493	0.203258
593.6769	0.201337
593.9046	0.195976
594.1322	0.182615
594.3598	0.173918
594.5875	0.171765
594.8152	0.183628
595.0429	0.194857
595.2705	0.198086
595.4983	0.196271
595.7260	0.181707
595.9537	0.175628
596.1814	0.167248
596.4092	0.154626
596.6369	0.146732
596.8647	0.141898
597.0925	0.146901
597.3203	0.152895
597.5481	0.153317
597.7759	0.151882
598.0037	0.143059
598.2315	0.138099
598.4594	0.142911
598.6872	0.153149
598.9151	0.177485
599.1430	0.188609
599.3709	0.181496
599.5988	0.183037
599.8267	0.178414
600.0546	0.181812
600.2825	0.184556
600.5105	0.184155
600.7384	0.183923
600.9664	0.184620
601.1944	0.188187
601.4223	0.186773
601.6503	0.179195
601.8783	0.175628
602.1064	0.167480
602.3344	0.166362
602.5624	0.165855
602.7905	0.170794
603.0185	0.174847
603.2466	0.182192
603.4747	0.189517
603.7028	0.189643
603.9309	0.180673
604.1590	0.173264
604.3871	0.172926
604.6152	0.160853
604.8434	0.158974
605.0715	0.156378
605.2997	0.158151
605.5279	0.166657
605.7561	0.173264
605.9843	0.176937
606.2125	0.176557
606.4407	0.167058
606.6689	0.158468
606.8972	0.155259
607.1254	0.157623
607.3537	0.157243
607.5819	0.162541
607.8102	0.159059
608.0385	0.155576
608.2668	0.151523
608.4951	0.148800
608.7235	0.143756
608.9518	0.142320
609.1801	0.139893
609.4085	0.136685
609.6369	0.131724
609.8653	0.142531
610.0936	0.150299
610.3220	0.151101
610.5505	0.148737
610.7789	0.143059
611.0073	0.139766
611.2357	0.135144
611.4642	0.135798
611.6927	0.139281
611.9211	0.141539
612.1496	0.134553
612.3781	0.128221
612.6066	0.131155
612.8351	0.131281
613.0637	0.129550
613.2922	0.128579
613.5208	0.130310
613.7493	0.125920
613.9779	0.127672
614.2065	0.130120
614.4351	0.127820
614.6637	0.128579
614.8923	0.127672
615.1209	0.126616
615.3495	0.125139
615.5782	0.130500
615.8068	0.134848
616.0355	0.127271
616.2642	0.121044
616.4929	0.117076
616.7216	0.113129
616.9503	0.111799
617.1790	0.115071
617.4077	0.114290
617.6365	0.108000
617.8652	0.111546
618.0940	0.108274
618.3227	0.109857
618.5515	0.103504
618.7803	0.099303
619.0091	0.092718
619.2379	0.092887
619.4667	0.092317
619.6956	0.093393
619.9244	0.093246
620.1533	0.097931
620.3821	0.098860
620.6110	0.095736
620.8399	0.090164
621.0688	0.082650
621.2977	0.075241
621.5266	0.075663
621.7556	0.078555
621.9845	0.079399
622.2135	0.084845
622.4424	0.084127
622.6714	0.083663
622.9004	0.084845
623.1294	0.090459
623.3584	0.090523
623.5874	0.089721
623.8164	0.088813
624.0454	0.089784
624.2745	0.090924
624.5035	0.091684
624.7326	0.091135
624.9617	0.090797
625.1908	0.085647
625.4199	0.084993
625.6490	0.081995
625.8781	0.080898
626.1072	0.077098
626.3364	0.076972
626.5655	0.075199
626.7947	0.071399
627.0238	0.071505
627.2530	0.069732
627.4822	0.071378
627.7114	0.072666
627.9406	0.070808
628.1698	0.067220
628.3991	0.060318
628.6283	0.059516
628.8576	0.062197
629.0868	0.063125
629.3161	0.064392
629.5454	0.066144
629.7747	0.064244
630.0040	0.063357
630.2333	0.061437
630.4626	0.062239
630.6920	0.059136
630.9213	0.057574
631.1507	0.053310
631.3801	0.055400
631.6094	0.052213
631.8388	0.056286
632.0682	0.053754
632.2976	0.053205
632.5271	0.050609
632.7565	0.048878
632.9859	0.047590
633.2154	0.046830
633.4448	0.043918
633.6743	0.046429
633.9038	0.046767
634.1333	0.043179
634.3628	0.043559
634.5923	0.043390
634.8218	0.043200
635.0514	0.041786
635.2809	0.041849
635.5105	0.042841
635.7400	0.042081
635.9696	0.043601
636.1992	0.045416
636.4288	0.047379
636.6584	0.047527
636.8880	0.045838
637.1177	0.045015
637.3473	0.044382
637.5770	0.042081
637.8066	0.041659
638.0363	0.040604
638.2660	0.042461
638.4957	0.043200
638.7254	0.042841
638.9551	0.041026
639.1848	0.041849
639.4145	0.043411
639.6443	0.040122
639.8740	0.040387
640.1038	0.037334
640.3336	0.037822
640.5633	0.038398
640.7931	0.037721
641.0229	0.035677
641.2528	0.034474
641.4826	0.033503
641.7124	0.032648
641.9423	0.033637
642.1721	0.032531
642.4020	0.030132
642.6319	0.032900
642.8617	0.030271
643.0916	0.031971
643.3216	0.030975
643.5515	0.031436
643.7814	0.030023
644.0113	0.029594
644.2413	0.027683
644.4712	0.027537
644.7012	0.026997
644.9312	0.027041
645.1612	0.026928
645.3912	0.027313
645.6212	0.026756
645.8512	0.030213
646.0812	0.027648
646.3113	0.025914
646.5413	0.027039
646.7714	0.025791
647.0015	0.026072
647.2316	0.024721
647.4616	0.025692
647.6918	0.026341
647.9219	0.026871
648.1520	0.029370
648.3821	0.029602
648.6123	0.031336
648.8424	0.033662
649.0726	0.034563
649.3028	0.036294
649.5329	0.033418
649.7631	0.034941
649.9933	0.032540
650.2236	0.029974
650.4538	0.029276
650.6840	0.029782
650.9143	0.029334
651.1445	0.028360
651.3748	0.029379
651.6051	0.032505
651.8354	0.029828
652.0657	0.031852
652.2960	0.031595
652.5263	0.033293
652.7566	0.033544
652.9870	0.031402
653.2173	0.032592
653.4477	0.033289
653.6780	0.034018
653.9084	0.031854
654.1388	0.033645
654.3692	0.034297
654.5996	0.037850
654.8300	0.043796
655.0605	0.067955
655.2909	0.191207
655.5213	0.528329
655.7518	0.962097
655.9823	1.013447
656.2128	1.004490
656.4433	1.006725
656.6738	1.005680
656.9043	1.013171
657.1348	0.866460
657.3653	0.716818
657.5959	0.607813
657.8264	0.537933
658.0570	0.488601
658.2875	0.448990
658.5181	0.416279
658.7487	0.381412
658.9793	0.371057
659.2099	0.334095
659.4406	0.254370
659.6712	0.168410
659.9018	0.100129
660.1325	0.061198
660.3632	0.041845
660.5938	0.030687
660.8245	0.026243
661.0552	0.026119
661.2859	0.023410
661.5166	0.022484
661.7474	0.023899
661.9781	0.023767
662.2088	0.021916
662.4396	0.022758
662.6704	0.024196
662.9011	0.021841
663.1319	0.022495
663.3627	0.022600
663.5935	0.023565
663.8243	0.021660
664.0552	0.022943
664.2860	0.022348
664.5168	0.023615
664.7477	0.024363
664.9786	0.024348
665.2094	0.025560
665.4403	0.024286
665.6712	0.026552
665.9021	0.023867
666.1330	0.024707
666.3640	0.024681
666.5949	0.022469
666.8259	0.023488
667.0568	0.022618
667.2878	0.020996
667.5188	0.023337
667.7497	0.022597
667.9807	0.022687
668.2117	0.021077
668.4428	0.021417
668.6738	0.020847
668.9048	0.021670
669.1359	0.020974
669.3669	0.021797
669.5980	0.020868
669.8291	0.020404
670.0602	0.022282
670.2913	0.024267
670.5224	0.023486
670.7535	0.021375
670.9846	0.022325
671.2157	0.023739
671.4469	0.026926
671.6781	0.028003
671.9092	0.030493
672.1404	0.034103
672.3716	0.035369
672.6028	0.036256
672.8340	0.034293
673.0652	0.033512
673.2964	0.031739
673.5277	0.032308
673.7589	0.031000
673.9902	0.032203
674.2214	0.030303
674.4527	0.028509
674.6840	0.029797
674.9153	0.027707
675.1466	0.028910
675.3779	0.028636
675.6093	0.027855
675.8406	0.028741
676.0719	0.025132
676.3033	0.026821
676.5347	0.023063
676.7661	0.027327
676.9974	0.023908
677.2288	0.023802
677.4602	0.024182
677.6917	0.029818
677.9231	0.028171
678.1545	0.029839
678.3860	0.029206
678.6174	0.028235
678.8489	0.029776
679.0804	0.031232
679.3119	0.034250
679.5434	0.034757
679.7749	0.035791
680.0064	0.035052
680.2379	0.034989
680.4694	0.036720
680.7010	0.033174
680.9325	0.033533
681.1641	0.032625
681.3957	0.034757
681.6273	0.037459
681.8589	0.035095
682.0905	0.035306
682.3221	0.034398
682.5537	0.030662
682.7854	0.031823
683.0170	0.029818
683.2487	0.030768
683.4803	0.032688
683.7120	0.032942
683.9437	0.033047
684.1754	0.031929
684.4071	0.035918
684.6388	0.037353
684.8705	0.040730
685.1023	0.040350
685.3340	0.044213
685.5658	0.045944
685.7975	0.045226
686.0293	0.043221
686.2611	0.044635
686.4929	0.045100
686.7247	0.042714
686.9565	0.043327
687.1883	0.043221
687.4202	0.046683
687.6520	0.043770
687.8838	0.040646
688.1157	0.038472
688.3476	0.039591
688.5795	0.040371
688.8114	0.037079
689.0433	0.036889
689.2752	0.040435
689.5071	0.037733
689.7390	0.035918
689.9710	0.037691
690.2029	0.033279
690.4349	0.036635
690.6669	0.035221
690.8988	0.037121
691.1308	0.037923
691.3628	0.037226
691.5948	0.040034
691.8269	0.037226
692.0589	0.037079
692.2909	0.039401
692.5230	0.039527
692.7550	0.038746
692.9871	0.037902
693.2192	0.038915
693.4513	0.039211
693.6834	0.037670
693.9155	0.038831
694.1476	0.036530
694.3797	0.034461
694.6119	0.035369
694.8440	0.035453
695.0762	0.035010
695.3083	0.036699
695.5405	0.033237
695.7727	0.030894
696.0049	0.031760
696.2371	0.027960
696.4693	0.030134
696.7016	0.036657
696.9338	0.039063
697.1660	0.041321
697.3983	0.039506
697.6306	0.037121
697.8628	0.037606
698.0951	0.040519
698.3274	0.038683
698.5597	0.038029
698.7920	0.039591
699.0243	0.035285
699.2567	0.039464
699.4890	0.035749
699.7214	0.035707
699.9537	0.031717
700.1861	0.031527
700.4185	0.032562
700.6509	0.034947
700.8833	0.028192
701.1157	0.029185
701.3481	0.029543
701.5806	0.028636
701.8130	0.028952
702.0454	0.031169
702.2779	0.031760
702.5104	0.029522
702.7429	0.031316
702.9753	0.029944
703.2078	0.028699
703.4403	0.028446
703.6729	0.029227
703.9054	0.027412
704.1379	0.029037
704.3705	0.029290
704.6030	0.028340
704.8356	0.027517
705.0682	0.025617
705.3008	0.026040
705.5334	0.022768
705.7660	0.023844
705.9986	0.025596
706.2312	0.028762
706.4638	0.029712
706.6965	0.035306
706.9291	0.035876
707.1618	0.039021
707.3945	0.039401
707.6272	0.037754
707.8599	0.037606
708.0926	0.037606
708.3253	0.038788
708.5580	0.038598
708.7907	0.036277
709.0235	0.034989
709.2562	0.034398
709.4890	0.034504
709.7217	0.033343
709.9545	0.033533
710.1873	0.032604
710.4201	0.035285
710.6529	0.034715
710.8857	0.034757
711.1186	0.034630
711.3514	0.034905
711.5842	0.032266
711.8171	0.033005
712.0500	0.028889
712.2828	0.028192
712.5157	0.028319
712.7486	0.029417
712.9815	0.027876
713.2144	0.030725
713.4474	0.031021
713.6803	0.033786
713.9132	0.033195
714.1462	0.034630
714.3791	0.036488
714.6121	0.035390
714.8451	0.034799
715.0781	0.034609
715.3111	0.033216
715.5441	0.035158
715.7771	0.033702
716.0102	0.032625
716.2432	0.030852
716.4762	0.031696
716.7093	0.029058
716.9424	0.031612
717.1754	0.029206
717.4085	0.029396
717.6416	0.028572
717.8747	0.030029
718.1078	0.030894
718.3410	0.031929
718.5741	0.029037
718.8072	0.028298
719.0404	0.031380
719.2736	0.030768
719.5067	0.030599
719.7399	0.030557
719.9731	0.029649
720.2063	0.027707
720.4395	0.027707
720.6727	0.028826
720.9060	0.029649
721.1392	0.031190
721.3725	0.029733
721.6057	0.030177
721.8390	0.030472
722.0723	0.029375
722.3055	0.029290
722.5388	0.028530
722.7721	0.028256
723.0055	0.027981
723.2388	0.029501
723.4721	0.029311
723.7055	0.028551
723.9388	0.028551
724.1722	0.030134
724.4056	0.027623
724.6389	0.028551
724.8723	0.029839
725.1057	0.031802
725.3391	0.033216
725.5726	0.034018
725.8060	0.033300
726.0394	0.031570
726.2729	0.033786
726.5063	0.035812
726.7398	0.030894
726.9733	0.032899
727.2068	0.032498
727.4403	0.032752
727.6738	0.032308
727.9073	0.031295
728.1408	0.034630
728.3743	0.035137
728.6079	0.034356
728.8414	0.033322
729.0750	0.036699
729.3086	0.036889
729.5421	0.037015
729.7757	0.037416
730.0093	0.037944
730.2429	0.038324
730.4766	0.037121
730.7102	0.038472
730.9438	0.042039
731.1775	0.046155
731.4111	0.043453
731.6448	0.044952
731.8785	0.044825
732.1122	0.041596
732.3458	0.041089
732.5795	0.041321
732.8133	0.043369
733.0470	0.041216
733.2807	0.043242
733.5145	0.043833
733.7482	0.045606
733.9820	0.048624
734.2157	0.051791
734.4495	0.054302
734.6833	0.052867
734.9171	0.047590
735.1509	0.049764
735.3847	0.050292
735.6185	0.049194
735.8524	0.048709
736.0862	0.049384
736.3201	0.047970
736.5539	0.047442
736.7878	0.048899
737.0217	0.050313
737.2556	0.048582
737.4895	0.046028
737.7234	0.046007
737.9573	0.044741
738.1912	0.041659
738.4252	0.042166
738.6591	0.039021
738.8931	0.042377
739.1271	0.045247
739.3610	0.047253
739.5950	0.047780
739.8290	0.045268
740.0630	0.043200
740.2970	0.042398
740.5310	0.043179
740.7651	0.038134
740.9991	0.039759
741.2332	0.037606
741.4672	0.034968
741.7013	0.035306
741.9354	0.034525
742.1695	0.034884
742.4036	0.033575
742.6377	0.034060
742.8718	0.033111
743.1059	0.033047
743.3400	0.032604
743.5742	0.031338
743.8083	0.031739
744.0425	0.029733
744.2767	0.030683
744.5108	0.031232
744.7450	0.030704
744.9792	0.029754
745.2134	0.032118
745.4477	0.028847
745.6819	0.027897
745.9161	0.029459
746.1504	0.027686
746.3846	0.030620
746.6189	0.027939
746.8532	0.028340
747.0874	0.031485
747.3217	0.033554
747.5560	0.031570
747.7903	0.032583
748.0247	0.031295
748.2590	0.029564
748.4933	0.029649
748.7277	0.030388
748.9620	0.029839
749.1964	0.031232
749.4308	0.033786
749.6652	0.035960
749.8995	0.036783
750.1339	0.036593
750.3684	0.038598
750.6028	0.042714
750.8372	0.041237
751.0717	0.038113
751.3061	0.039063
751.5406	0.040561
751.7750	0.042208
752.0095	0.041300
752.2440	0.039865
752.4785	0.039000
752.7130	0.039126
752.9475	0.038113
753.1820	0.034862
753.4166	0.038852
753.6511	0.040139
753.8856	0.042672
754.1202	0.043284
754.3548	0.038915
754.5894	0.040751
754.8239	0.041005
755.0585	0.040857
755.2931	0.041300
755.5278	0.041659
755.7624	0.045353
755.9970	0.043685
756.2317	0.047675
756.4663	0.049089
756.7010	0.050503
756.9356	0.053606
757.1703	0.053500
757.4050	0.057870
757.6397	0.058418
757.8744	0.059896
758.1091	0.059115
758.3438	0.055885
758.5786	0.054957
758.8133	0.052719
759.0481	0.056160
759.2828	0.058840
759.5176	0.060445
759.7524	0.061226
759.9872	0.061796
760.2220	0.062577
760.4568	0.061437
760.6916	0.063442
760.9264	0.062218
761.1613	0.062851
761.3961	0.059136
761.6310	0.054134
761.8658	0.052107
762.1007	0.051411
762.3356	0.050756
762.5705	0.050039
762.8054	0.048308
763.0403	0.049511
763.2752	0.048329
763.5101	0.050609
763.7450	0.051685
763.9800	0.053353
764.2149	0.054155
764.4499	0.055548
764.6849	0.058207
764.9198	0.058376
765.1548	0.057848
765.3898	0.057954
765.6248	0.052318
765.8599	0.054366
766.0949	0.050503
766.3299	0.046767
766.5650	0.044931
766.8000	0.041997
767.0351	0.040139
767.2701	0.039970
767.5052	0.040013
767.7403	0.040604
767.9754	0.041828
768.2105	0.043896
768.4456	0.047717
768.6808	0.048033
768.9159	0.046429
769.1510	0.049384
769.3862	0.048181
769.6214	0.045458
769.8565	0.045226
770.0917	0.044234
770.3269	0.043516
770.5621	0.044466
770.7973	0.047632
771.0325	0.048667
771.2677	0.049173
771.5030	0.047210
771.7382	0.045437
771.9735	0.043601
772.2087	0.039422
772.4440	0.040414
772.6793	0.040920
772.9146	0.039506
773.1499	0.039337
773.3852	0.039168
773.6205	0.038240
773.8558	0.038345
774.0911	0.038472
774.3265	0.036234
774.5618	0.032667
774.7972	0.030324
775.0326	0.030388
775.2679	0.031485
775.5033	0.029480
775.7387	0.028868
775.9741	0.027517
776.2095	0.026377
776.4450	0.027707
776.6804	0.026040
776.9158	0.023992
777.1513	0.026715
777.3868	0.025322
777.6222	0.026419
777.8577	0.025259
778.0932	0.025934
778.3287	0.026293
778.5642	0.026483
778.7997	0.030261
779.0352	0.028995
779.2707	0.030113
779.5063	0.031506
779.7418	0.029649
779.9774	0.030958
780.2130	0.030451
780.4485	0.029586
780.6841	0.027707
780.9197	0.032351
781.1553	0.034483
781.3909	0.035137
781.6265	0.036910
781.8622	0.034609
782.0978	0.033364
782.3335	0.034715
782.5691	0.033596
782.8048	0.035200
783.0405	0.033174
783.2761	0.033892
783.5118	0.033343
783.7475	0.036551
783.9832	0.035179
784.2190	0.032414
784.4547	0.030578
784.6904	0.029670
784.9262	0.028847
785.1619	0.028319
785.3977	0.028467
785.6335	0.029628
785.8692	0.029206
786.1050	0.030367
786.3408	0.027770
786.5766	0.030113
786.8124	0.026525
787.0483	0.026673
787.2841	0.030388
787.5199	0.031169
787.7558	0.030831
787.9917	0.031675
788.2275	0.028762
788.4634	0.033617
788.6993	0.031232
788.9352	0.032604
789.1711	0.032224
789.4070	0.030388
789.6429	0.028382
789.8789	0.028382
790.1148	0.027791
790.3507	0.025997
790.5867	0.026314
790.8227	0.025892
791.0586	0.025491
791.2946	0.022747
791.5306	0.023887
791.7666	0.025575
792.0026	0.021776
792.2387	0.025744
792.4747	0.020235
792.7107	0.021987
792.9468	0.023338
793.1828	0.022325
793.4189	0.022937
793.6550	0.023338
793.8910	0.027327
794.1271	0.031443
794.3632	0.029206
794.5993	0.031274
794.8355	0.033448
795.0716	0.032667
795.3077	0.033554
795.5439	0.032097
795.7800	0.030177
796.0162	0.028277
796.2523	0.025406
796.4885	0.024731
796.7247	0.022726
796.9609	0.021523
797.1971	0.023317
797.4333	0.023549
797.6695	0.024351
797.9058	0.022029
798.1420	0.022071
798.3783	0.024499
798.6145	0.023169
798.8508	0.020847
799.0871	0.023464
799.3233	0.023042
799.5596	0.022346
799.7959	0.020889
800.0322	0.021734
800.2686	0.021797
800.5049	0.019855
800.7412	0.019581
800.9776	0.020003
801.2139	0.019771
801.4503	0.020636
801.6867	0.019032
801.9230	0.018757
802.1594	0.018821
802.3958	0.016246
802.6322	0.019982
802.8686	0.018251
803.1051	0.017512
803.3415	0.018715
803.5779	0.017871
803.8144	0.016478
804.0508	0.018652
804.2873	0.019201
804.5238	0.016562
804.7603	0.018251
804.9968	0.017470
805.2333	0.015845
805.4698	0.019707
805.7063	0.018779
805.9428	0.021333
806.1794	0.021734
806.4159	0.024119
806.6525	0.025026
806.8890	0.026863
807.1256	0.024562
807.3622	0.023063
807.5988	0.023591
807.8354	0.023253
808.0720	0.022240
808.3086	0.024267
808.5452	0.023971
808.7818	0.023802
809.0185	0.021902
809.2551	0.023992
809.4918	0.020889
809.7284	0.023317
809.9651	0.019686
810.2018	0.019517
810.4385	0.019707
810.6752	0.020045
810.9119	0.016161
811.1486	0.019159
811.3853	0.020003
811.6221	0.019475
811.8588	0.017470
812.0956	0.016710
812.3323	0.015444
812.5691	0.015190
812.8059	0.015908
813.0427	0.014768
813.2795	0.013839
813.5163	0.018715
813.7531	0.017491
813.9899	0.017850
814.2267	0.018631
814.4636	0.020045
814.7004	0.017723
814.9373	0.016794
815.1742	0.015190
815.4110	0.015824
815.6479	0.015211
815.8848	0.014684
816.1217	0.013649
816.3586	0.012320
816.5955	0.014578
816.8324	0.015275
817.0694	0.014768
817.3063	0.014219
817.5433	0.014684
817.7802	0.015634
818.0172	0.014452
818.2542	0.014283
818.4912	0.014156
818.7282	0.012763
818.9652	0.014473
819.2022	0.012826
819.4392	0.012784
819.6762	0.012784
819.9133	0.012995
820.1503	0.011665
820.3874	0.015148
820.6244	0.016499
820.8615	0.016541
821.0986	0.015211
821.3357	0.015908
821.5727	0.015781
821.8099	0.014937
822.0470	0.013649
822.2841	0.013164
822.5212	0.014262
822.7584	0.011919
822.9955	0.012890
823.2327	0.014536
823.4698	0.012995
823.7070	0.009998
823.9442	0.012214
824.1814	0.010589
824.4186	0.012151
824.6558	0.012256
824.8930	0.012214
825.1302	0.009006
825.3675	0.012214
825.6047	0.014198
825.8419	0.012826
826.0792	0.014473
826.3165	0.011602
826.5537	0.012826
826.7910	0.012995
827.0283	0.015043
827.2656	0.013649
827.5029	0.013523
827.7402	0.013924
827.9776	0.014093
828.2149	0.014008
828.4522	0.014219
828.6896	0.012679
828.9270	0.012869
829.1643	0.011982
829.4017	0.014177
829.6391	0.012679
829.8765	0.013544
830.1139	0.012636
830.3513	0.012362
830.5887	0.010146
830.8261	0.010378
831.0636	0.010399
831.3010	0.009196
831.5385	0.010293
831.7759	0.009132
832.0134	0.008330
832.2509	0.009365
832.4884	0.008014
832.7259	0.008985
832.9634	0.009175
833.2009	0.008563
833.4384	0.010589
833.6759	0.009365
833.9135	0.009808
834.1510	0.010315
834.3886	0.009913
834.6261	0.012320
834.8637	0.010146
835.1013	0.010483
835.3389	0.010293
835.5765	0.011328
835.8141	0.010357
836.0517	0.010547
836.2893	0.010821
836.5269	0.008858
836.7646	0.008731
837.0022	0.008753
837.2399	0.007486
837.4775	0.008795
837.7152	0.007887
837.9529	0.008499
838.1906	0.008584
838.4283	0.007022
838.6660	0.007739
838.9037	0.007549
839.1414	0.008563
839.3791	0.006621
839.6169	0.007022
839.8546	0.007106
840.0924	0.007908
840.3302	0.007718
840.5679	0.007296
840.8057	0.008879
841.0435	0.008056
841.2813	0.007803
841.5191	0.007212
841.7569	0.007043
841.9947	0.006452
842.2326	0.006790
842.4704	0.006536
842.7082	0.008415
842.9461	0.004848
843.1840	0.005966
843.4218	0.005101
843.6597	0.006325
843.8976	0.006030
844.1355	0.005312
844.3734	0.005502
844.6113	0.005164
844.8492	0.005101
845.0872	0.006473
845.3251	0.004679
845.5631	0.004637
845.8010	0.006895
846.0390	0.006536
846.2770	0.004995
846.5149	0.005143
846.7529	0.004721
846.9909	0.006177
847.2289	0.006367
847.4669	0.006958
847.7050	0.005291
847.9430	0.006768
848.1810	0.004974
848.4191	0.006156
848.6571	0.004890
848.8952	0.004890
849.1333	0.005544
849.3713	0.006494
849.6094	0.003244
849.8475	0.006093
850.0856	0.006199
850.3237	0.005523
850.5619	0.004552
850.8000	0.005059
851.0381	0.005650
851.2763	0.005059
851.5144	0.004003
851.7526	0.006051
851.9908	0.006241
852.2289	0.007085
852.4671	0.008352
852.7053	0.008879
852.9435	0.011982
853.1817	0.010990
853.4200	0.012974
853.6582	0.014684
853.8964	0.014768
854.1347	0.014515
854.3729	0.014283
854.6112	0.014219
854.8495	0.013755
855.0877	0.014283
855.3260	0.013776
855.5643	0.013671
855.8026	0.010969
856.0409	0.011349
856.2792	0.013502
856.5176	0.012446
856.7559	0.012911
856.9942	0.013122
857.2326	0.009871
857.4710	0.011391
857.7093	0.013270
857.9477	0.010209
858.1861	0.010758
858.4245	0.010547
858.6629	0.009491
858.9013	0.008710
859.1397	0.008837
859.3781	0.009470
859.6166	0.009280
859.8550	0.008647
860.0935	0.009238
860.3319	0.008140
860.5704	0.008330
860.8089	0.007866
861.0473	0.008668
861.2858	0.005776
861.5243	0.006177
861.7628	0.008288
862.0013	0.008457
862.2399	0.007085
862.4784	0.005586
862.7169	0.005692
862.9555	0.006768
863.1940	0.005228
863.4326	0.006663
863.6712	0.009111
863.9098	0.008795
864.1483	0.006072
864.3869	0.006578
864.6255	0.006874
864.8642	0.006093
865.1028	0.006030
865.3414	0.006199
865.5800	0.005650
865.8187	0.004848
866.0573	0.004827
866.2960	0.004573
866.5347	0.005987
866.7733	0.005987
867.0120	0.005312
867.2507	0.006684
867.4894	0.005755
867.7281	0.005270
867.9669	0.009618
868.2056	0.006536
868.4443	0.006241
868.6831	0.005228
868.9218	0.005713
869.1606	0.004721
869.3993	0.005903
869.6381	0.004088
869.8769	0.005418
870.1157	0.005270
870.3545	0.004700
870.5933	0.005017
870.8321	0.006937
871.0709	0.007043
871.3097	0.006494
871.5486	0.005861
871.7874	0.006262
872.0263	0.005755
872.2651	0.006346
872.5040	0.005143
872.7429	0.007212
872.9818	0.004679
873.2207	0.004763
873.4596	0.005861
873.6985	0.004341
873.9374	0.006220
874.1763	0.005966
874.4153	0.005270
874.6542	0.005080
874.8932	0.006220
875.1321	0.005228
875.3711	0.004805
875.6101	0.005185
875.8491	0.006177
876.0880	0.008119
876.3270	0.005228
876.5661	0.004869
876.8051	0.005882
877.0441	0.005059
877.2831	0.006452
877.5222	0.007043
877.7612	0.007549
878.0003	0.006389
878.2393	0.006958
878.4784	0.005650
878.7175	0.008119
878.9566	0.008183
879.1957	0.007782
879.4348	0.006937
879.6739	0.007845
879.9130	0.005924
880.1521	0.008436
880.3913	0.008246
880.6304	0.009111
880.8696	0.008014
881.1087	0.008014
881.3479	0.007148
881.5871	0.006600
881.8262	0.007191
882.0654	0.008415
882.3046	0.005586
882.5438	0.005798
882.7831	0.005122
883.0223	0.006578
883.2615	0.006621
883.5007	0.008352
883.7400	0.005375
883.9792	0.006262
884.2185	0.006452
884.4578	0.005312
884.6971	0.006578
884.9363	0.007592
885.1756	0.008288
885.4149	0.006431
885.6542	0.007486
885.8936	0.008436
886.1329	0.007866
886.3722	0.006621
886.6116	0.008119
886.8509	0.006578
887.0903	0.005608
887.3296	0.005312
887.5690	0.005312
887.8084	0.005629
888.0478	0.006937
888.2872	0.007275
888.5266	0.006072
888.7660	0.004130
889.0054	0.005354
889.2448	0.005101
889.4843	0.004531
889.7237	0.005798
889.9632	0.004468
890.2026	0.005776
890.4421	0.004151
890.6816	0.005207
890.9211	0.004594
891.1606	0.005207
891.4001	0.004805
891.6396	0.005945
891.8791	0.004299
892.1186	0.004721
892.3581	0.004257
892.5977	0.006030
892.8372	0.004679
893.0768	0.005291
893.3163	0.004679
893.5559	0.005017
893.7955	0.005882
894.0351	0.005122
894.2747	0.003961
894.5143	0.005671
894.7539	0.005565
894.9935	0.005713
895.2331	0.003560
895.4727	0.004658
895.7124	0.004172
895.9520	0.005418
896.1917	0.004594
896.4314	0.005776
896.6710	0.005586
896.9107	0.005375
897.1504	0.004003
897.3901	0.006874
897.6298	0.004848
897.8695	0.005080
898.1092	0.003982
898.3489	0.003877
898.5887	0.005502
898.8284	0.005819
899.0682	0.004531
899.3079	0.004341
899.5477	0.003813
899.7875	0.005059
900.0272	0.005734
900.2670	0.003560
900.5068	0.005270
900.7466	0.004742
900.9864	0.003244
901.2263	0.003835
901.4661	0.004046
901.7059	0.006980
901.9458	0.005270
902.1856	0.004932
902.4255	0.004130
902.6654	0.006473
902.9052	0.004320
903.1451	0.005418
903.3850	0.004700
903.6249	0.004109
903.8648	0.003602
904.1047	0.005080
904.3446	0.005207
904.5846	0.005354
904.8245	0.003940
905.0644	0.005966
905.3044	0.004742
905.5444	0.005544
905.7843	0.004953
906.0243	0.005987
906.2643	0.005333
906.5043	0.005692
906.7443	0.004890
906.9843	0.004151
907.2243	0.003391
907.4643	0.004510
907.7043	0.005354
907.9444	0.004046
908.1844	0.004278
908.4245	0.005122
908.6645	0.004637
908.9046	0.003961
909.1447	0.003560
909.3847	0.004404
909.6248	0.002927
909.8649	0.005481
910.1050	0.004172
910.3452	0.004658
910.5853	0.002779
910.8254	0.004299
911.0655	0.003835
911.3057	0.004067
911.5458	0.003138
911.7860	0.005122
912.0262	0.004447
912.2663	0.003560
912.5065	0.005270
912.7467	0.005122
912.9869	0.005143
913.2271	0.004003
913.4673	0.001787
913.7075	0.003729
913.9478	0.003370
914.1880	0.002695
914.4283	0.004046
914.6685	0.004679
914.9088	0.002547
915.1490	0.004721
915.3893	0.002568
915.6296	0.002653
915.8699	0.003581
916.1102	0.004974
916.3505	0.004067
916.5908	0.004278
916.8311	0.002357
917.0714	0.005375
917.3118	0.004531
917.5521	0.003771
917.7925	0.004278
918.0328	0.004615
918.2732	0.004299
918.5136	0.004193
918.7539	0.004024
918.9943	0.004700
919.2347	0.003096
919.4751	0.003032
919.7155	0.005523
919.9560	0.004362
920.1964	0.004046
920.4368	0.004046
920.6773	0.002885
920.9177	0.003666
921.1582	0.004046
921.3986	0.003433
921.6391	0.003560
921.8796	0.003476
922.1201	0.004721
922.3606	0.004700
922.6011	0.004067
922.8416	0.003750
923.0821	0.001998
923.3226	0.003856
923.5631	0.003096
923.8037	0.004890
924.0442	0.003201
924.2848	0.003729
924.5254	0.004468
924.7659	0.004468
925.0065	0.003328
925.2471	0.003602
925.4877	0.002631
925.7283	0.003159
925.9689	0.002779
926.2095	0.001998
926.4501	0.001639
926.6908	0.003835
926.9314	0.002104
927.1720	0.003623
927.4127	0.003349
927.6533	0.003054
927.8940	0.001893
928.1347	0.003201
928.3754	0.002420
928.6161	0.002800
928.8568	0.002399
929.0975	0.002842
929.3382	0.002885
929.5789	0.002779
929.8196	0.004151
930.0604	0.003011
930.3011	0.002864
930.5419	0.001069
930.7826	0.002631
931.0234	0.002019
931.2642	0.004003
931.5049	0.002441
931.7457	0.002230
931.9865	0.002885
932.2273	0.003370
932.4681	0.003581
932.7089	0.002969
932.9498	0.001977
933.1906	0.002315
933.4314	0.003138
933.6723	0.000964
933.9131	0.003666
934.1540	0.002378
934.3949	0.002251
934.6358	0.003138
934.8766	0.002526
935.1175	0.001808
935.3584	0.002230
935.5993	0.001998
935.8403	0.002631
936.0812	0.001302
936.3221	0.002695
936.5630	0.001935
936.8040	0.002251
937.0449	0.002357
937.2859	0.002019
937.5269	0.001745
937.7678	0.002420
938.0088	0.001175
938.2498	0.001555
938.4908	0.002378
938.7318	0.001597
938.9728	0.002273
939.2138	0.001977
939.4549	0.002885
939.6959	0.000922
939.9369	0.002695
940.1780	0.001175
940.4190	0.001766
940.6601	0.002061
940.9012	0.002315
941.1422	0.002800
941.3833	0.002251
941.6244	0.000943
941.8655	0.001576
942.1066	0.001344
942.3477	0.002273
942.5889	0.001534
942.8300	0.002294
943.0711	0.001365
943.3123	0.003602
943.5534	0.002104
943.7946	0.001639
944.0357	0.003560
944.2769	0.001893
944.5181	0.001428
944.7593	0.001893
945.0005	0.001217
945.2417	0.001091
945.4829	0.001238
945.7241	0.000879
945.9653	0.001027
946.2066	0.001323
946.4478	0.001238
946.6891	0.001766
946.9303	0.001470
947.1716	0.002589
947.4128	0.002019
947.6541	0.002378
947.8954	0.000099
948.1367	0.000668
948.3780	0.001576
948.6193	-0.000514
948.8606	0.001682
949.1019	0.000922
949.3433	0.000310
949.5846	0.000204
949.8259	0.000246
950.0673	0.001386
950.3086	0.001597
950.5500	0.001850
950.7914	0.001302
951.0327	0.001872
951.2741	0.001513
951.5155	0.001006
951.7569	0.001323
951.9983	0.002040
952.2398	0.001787
952.4812	0.001492
952.7226	0.002463
952.9640	0.001513
953.2055	0.002230
953.4469	0.002463
953.6884	0.001534
953.9299	0.002167
954.1713	0.001787
954.4128	0.001956
954.6543	0.000879
954.8958	0.002104
955.1373	0.001217
955.3788	0.001027
955.6203	0.000120
955.8618	0.000563
956.1034	0.001365
956.3449	0.000901
956.5865	0.000753
956.8280	0.001386
957.0696	0.001597
957.3111	0.003222
957.5527	0.002104
957.7943	0.001766
958.0359	0.000373
958.2775	0.001428
958.5191	0.001745
958.7607	0.001238
959.0023	0.000331
959.2439	0.001365
959.4856	0.001618
959.7272	0.001259
959.9688	0.000837
960.2105	0.001893
960.4522	0.000457
960.6938	0.001618
960.9355	0.000120
961.1772	0.000626
961.4189	0.001238
961.6606	0.001217
961.9023	0.001386
962.1440	0.001787
962.3857	0.000478
962.6274	0.000774
962.8692	0.001977
963.1109	-0.000429
963.3527	0.000922
963.5944	0.000985
963.8362	0.001217
964.0779	0.000521
964.3197	0.000436
964.5615	0.001133
964.8033	0.001872
965.0451	0.002357
965.2869	0.001196
965.5287	0.000563
965.7705	0.000436
966.0123	0.000457
966.2542	0.000204
966.4960	0.001407
966.7379	0.002547
966.9797	0.001344
967.2216	0.001006
967.4634	0.000415
967.7053	0.000542
967.9472	0.001175
968.1891	0.000035
968.4310	0.001534
968.6729	0.001998
968.9148	0.001175
969.1567	-0.000303
969.3987	0.000204
969.6406	0.001302
969.8825	0.001534
970.1245	0.000901
970.3664	0.001281
970.6084	0.000394
970.8504	0.001344
971.0923	0.000922
971.3343	0.000901
971.5763	0.001006
971.8183	0.001175
972.0603	0.000141
972.3023	0.001660
972.5443	0.001006
972.7864	0.001365
973.0284	0.002315
973.2704	0.002209
973.5125	0.000563
973.7545	0.001365
973.9966	0.000563
974.2387	0.001365
974.4807	0.000204
974.7228	0.001492
974.9649	0.001006
975.2070	0.000246
975.4491	0.000500
975.6912	0.001175
975.9333	0.001091
976.1755	0.001006
976.4176	0.002019
976.6597	0.000816
976.9019	0.001597
977.1440	0.001576
977.3862	0.000035
977.6283	0.001365
977.8705	0.001386
978.1127	0.000457
978.3549	-0.000134
978.5971	0.000732
978.8393	0.001259
979.0815	0.002167
979.3237	0.000858
979.5659	0.001534
979.8082	0.002547
980.0504	0.000837
980.2926	0.001914
980.5349	0.001217
980.7771	0.001133
981.0194	0.000922
981.2617	0.000943
981.5040	0.001914
981.7462	0.000626
981.9885	0.002821
982.2308	-0.000598
982.4731	0.001006
982.7155	0.000077
982.9578	0.000120
983.2001	0.000120
983.4424	0.001154
983.6848	0.000858
983.9271	0.001006
984.1695	0.000056
984.4118	0.001850
984.6542	0.001281
984.8966	0.001069
985.1390	-0.000049
985.3814	0.001724
985.6238	-0.000007
985.8662	0.001217
986.1086	0.000837
986.3510	0.000774
986.5934	-0.000324
986.8358	0.001787
987.0783	0.000183
987.3207	0.001323
987.5632	-0.000049
987.8056	-0.000155
988.0481	-0.000324
988.2906	0.000647
988.5331	0.001091
988.7756	0.000563
989.0180	-0.000303
989.2605	0.000500
989.5031	-0.001696
989.7456	0.001365
989.9881	0.000267
990.2306	0.000690
990.4732	0.000246
990.7157	0.001576
990.9582	0.001217
991.2008	0.000183
991.4434	-0.000894
991.6859	0.001365
991.9285	0.000690
992.1711	0.000457
992.4137	-0.000260
992.6563	-0.001316
992.8989	0.000816
993.1415	0.003011
993.3841	0.001259
993.6267	0.000373
993.8694	0.000647
994.1120	0.000901
994.3547	0.001576
994.5973	0.001154
994.8400	0.000267
995.0826	0.000647
995.3253	-0.000176
995.5680	0.000542
995.8107	0.000753
996.0534	0.000331
996.2961	0.000605
996.5388	0.000394
996.7815	0.000605
997.0242	0.000922
997.2670	0.001977
997.5097	0.001323
997.7524	0.000879
997.9952	0.001133
998.2379	-0.000176
998.4807	0.000141
998.7235	-0.000091
998.9662	-0.000408
999.2090	-0.000007
999.4518	-0.000598
999.6946	-0.001548
999.9374	-0.000260
1000.1802	0.000415
1000.4230	0.000500
1000.6659	0.000964
1000.9087	-0.000894
1001.1515	-0.000661
1001.3944	0.000542
1001.6372	0.001175
1001.8801	0.000099
1002.1230	0.000711
1002.3658	0.000331
1002.6087	0.001660
1002.8516	0.000668
1003.0945	0.000099
1003.3374	-0.000197
1003.5803	0.002547
1003.8232	-0.000830
1004.0661	-0.000070
1004.3091	0.000964
1004.5520	0.001829
1004.7949	0.000457
1005.0379	0.000753
1005.2808	0.000035
1005.5238	0.000352
1005.7667	0.000331
1006.0097	0.000352
1006.2527	0.001048
1006.4957	0.000711
1006.7387	0.000077
1006.9817	0.001534
1007.2247	-0.000324
1007.4677	0.000542
1007.7107	-0.000387
1007.9538	0.001956
1008.1968	0.000120
1008.4398	0.000162
1008.6829	0.000605
1008.9259	0.000394
1009.1690	-0.000091
1009.4121	0.001597
1009.6551	0.002146
1009.8982	0.000943
1010.1413	0.000711
1010.3844	0.000837
1010.6275	0.000858
1010.8706	0.001449
1011.1137	0.000584
1011.3568	0.002336
1011.6000	0.001808
1011.8431	0.000901
1012.0863	-0.000281
1012.3294	0.001618
1012.5726	0.000288
1012.8157	0.000901
1013.0589	0.000922
1013.3021	0.001555
1013.5452	0.001323
1013.7884	0.001555
1014.0316	0.000774
1014.2748	-0.000070
1014.5180	0.000753
1014.7613	-0.000049
1015.0045	0.001196
1015.2477	0.001133
1015.4909	0.000542
1015.7342	0.000183
1015.9774	0.001175
1016.2207	0.000394
1016.4640	0.000901
1016.7072	0.000352
1016.9505	-0.002076
1017.1938	0.001682
1017.4371	-0.000134
1017.6804	0.002315
1017.9237	-0.000007
1018.1670	0.000690
1018.4103	0.000732
1018.6536	0.000162
1018.8969	0.001006
1019.1403	0.001766
1019.3836	-0.000725
1019.6270	0.001470
1019.8703	0.000584
1020.1137	0.000690
1020.3571	0.000204
1020.6004	0.001133
1020.8438	-0.000134
1021.0872	0.002230
1021.3306	0.001597
1021.5740	-0.000598
1021.8174	-0.000281
1022.0608	0.000816
1022.3042	0.000521
1022.5477	0.001069
1022.7911	-0.001379
1023.0345	0.000668
