# Wavelength (nm)	Intensity (a.u.)
197.7802	-0.000616
197.9842	0.000545
198.1882	0.001686
198.3922	-0.000447
198.5963	0.000567
198.8003	-0.000151
199.0044	0.001179
199.2085	0.001242
199.4126	0.001453
199.6168	-0.000911
199.8209	0.000081
200.0251	-0.000447
200.2292	0.000947
200.4334	-0.000975
200.6376	0.000693
200.8418	0.001031
201.0461	-0.000046
201.2503	-0.000616
201.4546	0.001179
201.6589	-0.000299
201.8631	0.000398
202.0674	-0.000109
202.2718	0.000440
202.4761	0.000377
202.6805	0.000334
202.8848	-0.000362
203.0892	0.000208
203.2936	0.000334
203.4980	-0.001397
203.7024	0.000672
203.9069	0.000060
204.1113	-0.000088
204.3158	0.000102
204.5203	-0.000130
204.7248	0.000651
204.9293	-0.000341
205.1338	0.000461
205.3384	0.000651
205.5430	-0.000384
205.7475	-0.000236
205.9521	0.000313
206.1567	0.000545
206.3614	0.000799
206.5660	-0.001123
206.7706	-0.000721
206.9753	0.001496
207.1800	0.000672
207.3847	0.000313
207.5894	0.000208
207.7941	-0.001334
207.9989	0.000461
208.2036	-0.001207
208.4084	0.001643
208.6132	0.000419
208.8180	-0.000215
209.0228	0.000799
209.2276	0.001749
209.4325	0.000757
209.6373	0.000102
209.8422	-0.000278
210.0471	0.000398
210.2520	-0.000341
210.4569	0.000693
210.6618	-0.000088
210.8668	0.000461
211.0718	-0.001355
211.2767	0.002066
211.4817	0.000229
211.6867	0.001010
211.8918	0.001390
212.0968	-0.001017
212.3018	-0.000046
212.5069	-0.000595
212.7120	0.000123
212.9171	-0.001186
213.1222	0.000841
213.3273	0.000018
213.5325	0.000039
213.7376	0.000651
213.9428	0.000144
214.1480	-0.000827
214.3532	-0.001101
214.5584	0.000208
214.7636	0.000165
214.9689	0.001348
215.1741	-0.001249
215.3794	-0.000046
215.5847	0.000398
215.7900	0.001242
215.9953	-0.001101
216.2007	0.000651
216.4060	0.000208
216.6114	0.001221
216.8168	0.000144
217.0222	0.001306
217.2276	-0.000046
217.4330	0.000039
217.6384	0.000398
217.8439	0.000883
218.0494	0.001010
218.2548	0.001137
218.4603	-0.001165
218.6659	-0.000320
218.8714	-0.000616
219.0769	0.000545
219.2825	-0.001038
219.4881	-0.001059
219.6936	0.000461
219.8992	0.000377
220.1049	-0.000742
220.3105	0.001052
220.5161	0.000503
220.7218	0.001073
220.9275	0.000039
221.1332	0.000461
221.3389	-0.000025
221.5446	0.000187
221.7503	-0.000426
221.9561	0.000503
222.1618	0.000820
222.3676	-0.000194
222.5734	0.000039
222.7792	0.000672
222.9850	0.000039
223.1909	0.000651
223.3967	0.000609
223.6026	0.000440
223.8085	-0.000215
224.0144	-0.000194
224.2203	0.000144
224.4262	0.000968
224.6322	0.000841
224.8381	-0.000447
225.0441	-0.000426
225.2501	-0.001629
225.4561	-0.001735
225.6621	0.001496
225.8681	0.001242
226.0742	0.000187
226.2802	0.000102
226.4863	-0.000447
226.6924	0.000081
226.8985	0.000630
227.1046	-0.000215
227.3107	0.001010
227.5169	0.001981
227.7230	0.000588
227.9292	-0.000426
228.1354	-0.001228
228.3416	0.000735
228.5478	0.001643
228.7541	0.000355
228.9603	0.001158
229.1666	0.000714
229.3729	0.000524
229.5791	0.000081
229.7855	0.000503
229.9918	-0.000405
230.1981	-0.001291
230.4045	-0.000257
230.6108	0.000904
230.8172	0.000313
231.0236	0.000398
231.2300	0.000018
231.4364	0.000229
231.6429	-0.000151
231.8493	-0.000215
232.0558	-0.000278
232.2623	0.000461
232.4688	-0.001249
232.6753	0.001073
232.8818	0.000630
233.0884	0.001221
233.2949	-0.000320
233.5015	0.000334
233.7081	0.000208
233.9147	0.000060
234.1213	-0.000215
234.3279	0.001242
234.5346	0.000651
234.7413	0.000081
234.9479	0.000123
235.1546	0.000609
235.3613	0.000250
235.5680	0.001073
235.7748	-0.000933
235.9815	0.000672
236.1883	0.000102
236.3951	0.000630
236.6018	0.000482
236.8087	0.000799
237.0155	0.000883
237.2223	-0.000004
237.4292	-0.000130
237.6360	0.000588
237.8429	-0.000088
238.0498	-0.000384
238.2567	0.000651
238.4636	-0.000151
238.6706	-0.000848
238.8775	-0.000933
239.0845	0.000778
239.2915	0.000123
239.4985	0.000292
239.7055	0.000208
239.9125	-0.001587
240.1195	0.000588
240.3266	-0.000975
240.5337	0.001306
240.7407	0.000609
240.9478	0.000968
241.1549	-0.000384
241.3621	0.000144
241.5692	0.001221
241.7764	0.000693
241.9835	-0.000341
242.1907	0.001643
242.3979	0.001369
242.6051	0.000609
242.8124	0.000461
243.0196	0.000081
243.2269	0.000503
243.4341	0.000102
243.6414	0.000630
243.8487	0.000292
244.0560	0.001094
244.2634	0.000060
244.4707	0.000672
244.6781	0.000757
244.8854	0.000567
245.0928	0.001327
245.3002	-0.000362
245.5076	0.001179
245.7151	0.000989
245.9225	0.001179
246.1300	-0.000468
246.3375	0.000208
246.5449	0.000735
246.7524	0.000862
246.9600	-0.001123
247.1675	0.000271
247.3750	0.001158
247.5826	-0.000447
247.7902	-0.000742
247.9978	-0.000468
248.2054	0.000524
248.4130	0.000039
248.6206	0.000208
248.8283	-0.000447
249.0359	-0.000194
249.2436	0.000503
249.4513	-0.000004
249.6590	-0.000130
249.8667	0.000461
250.0745	0.001137
250.2822	-0.001587
250.4900	-0.000215
250.6978	0.000545
250.9056	0.000524
251.1134	0.000081
251.3212	0.000292
251.5290	0.000398
251.7369	0.000968
251.9447	0.000820
252.1526	0.000841
252.3605	0.000778
252.5684	0.001158
252.7763	0.000968
252.9843	0.000334
253.1922	0.001116
253.4002	0.000334
253.6082	-0.000658
253.8162	0.001749
254.0242	0.000735
254.2322	0.001496
254.4402	0.000313
254.6483	0.000883
254.8564	-0.000637
255.0644	-0.000004
255.2725	-0.000109
255.4806	0.000630
255.6888	0.001517
255.8969	0.000018
256.1051	-0.000194
256.3132	0.000503
256.5214	-0.002537
256.7296	-0.000257
256.9378	-0.000362
257.1460	0.000229
257.3543	0.000672
257.5625	0.000039
257.7708	-0.002495
257.9791	0.001263
258.1874	-0.000362
258.3957	-0.000447
258.6040	-0.000785
258.8124	0.001918
259.0207	-0.000721
259.2291	0.000461
259.4375	-0.000384
259.6459	0.000904
259.8543	0.001010
260.0627	-0.000046
260.2711	0.001242
260.4796	0.000672
260.6881	0.000018
260.8965	0.000377
261.1050	0.000820
261.3135	0.000503
261.5221	0.000123
261.7306	0.000250
261.9392	-0.000194
262.1477	0.000503
262.3563	0.000060
262.5649	0.000334
262.7735	0.000883
262.9822	-0.000574
263.1908	0.000503
263.3995	0.001031
263.6081	0.000693
263.8168	-0.000215
264.0255	-0.000299
264.2342	0.000735
264.4429	0.001728
264.6517	0.000799
264.8604	-0.000088
265.0692	-0.000194
265.2780	-0.000933
265.4868	0.000123
265.6956	-0.001123
265.9044	-0.000299
266.1133	-0.002305
266.3221	0.001474
266.5310	0.000524
266.7399	0.001179
266.9488	0.000187
267.1577	0.002530
267.3666	0.000630
267.5755	0.000419
267.7845	-0.000975
267.9935	0.000419
268.2024	0.000757
268.4114	-0.000552
268.6205	0.000545
268.8295	0.000018
269.0385	-0.000869
269.2476	-0.000447
269.4566	0.000165
269.6657	0.000630
269.8748	-0.000975
270.0839	0.000313
270.2931	0.000735
270.5022	0.001052
270.7114	0.000672
270.9205	0.001390
271.1297	0.000419
271.3389	0.001348
271.5481	0.000757
271.7573	0.001158
271.9666	-0.000067
272.1758	0.001538
272.3851	0.001094
272.5944	0.000081
272.8037	-0.000510
273.0130	0.000524
273.2223	0.000060
273.4316	-0.000299
273.6410	0.000883
273.8504	0.000229
274.0597	-0.000194
274.2691	0.001052
274.4785	0.000862
274.6880	0.000567
274.8974	0.000545
275.1069	0.001052
275.3163	0.000102
275.5258	0.000567
275.7353	-0.000194
275.9448	-0.000088
276.1543	0.000862
276.3639	0.001010
276.5734	0.000841
276.7830	0.000757
276.9926	0.000609
277.2022	0.000144
277.4118	-0.001144
277.6214	0.000355
277.8310	0.000989
278.0407	0.001770
278.2503	0.000524
278.4600	0.000757
278.6697	-0.000468
278.8794	0.001221
279.0891	-0.000447
279.2989	0.000693
279.5086	-0.000278
279.7184	0.000672
279.9281	0.000398
280.1379	0.001052
280.3477	0.001242
280.5576	0.000883
280.7674	0.000841
280.9772	-0.000341
281.1871	0.001876
281.3970	0.000545
281.6069	-0.000341
281.8168	0.000925
282.0267	-0.000341
282.2366	-0.000046
282.4466	0.001517
282.6565	-0.000531
282.8665	-0.000447
283.0765	-0.000890
283.2865	0.000313
283.4965	0.001306
283.7065	-0.000848
283.9166	-0.000046
284.1266	0.000904
284.3367	0.000334
284.5468	0.000693
284.7569	0.000018
284.9670	-0.001397
285.1771	0.001327
285.3873	0.000292
285.5974	-0.000764
285.8076	0.000334
286.0178	0.000503
286.2280	0.000208
286.4382	-0.000257
286.6484	-0.000130
286.8587	0.000229
287.0689	0.001432
287.2792	0.000250
287.4895	0.000250
287.6998	0.001833
287.9101	-0.000109
288.1204	0.001897
288.3308	0.000440
288.5411	0.001242
288.7515	0.001200
288.9619	0.000081
289.1723	0.000630
289.3827	0.000545
289.5931	-0.001524
289.8035	0.001791
290.0140	-0.000004
290.2245	-0.001207
290.4349	-0.000299
290.6454	0.000398
290.8559	0.000841
291.0665	0.000925
291.2770	0.000313
291.4875	0.001158
291.6981	0.000039
291.9087	0.000545
292.1193	0.001010
292.3299	0.001094
292.5405	0.000229
292.7511	-0.000721
292.9618	0.000018
293.1724	0.000018
293.3831	0.000398
293.5938	-0.000172
293.8045	-0.000721
294.0152	0.001094
294.2260	0.000060
294.4367	0.000144
294.6475	0.000355
294.8582	0.000313
295.0690	0.000355
295.2798	0.000440
295.4906	-0.000194
295.7015	0.001686
295.9123	0.001137
296.1232	0.000123
296.3340	-0.000151
296.5449	0.000018
296.7558	0.000461
296.9667	-0.000194
297.1777	-0.000194
297.3886	0.001496
297.5995	-0.000764
297.8105	0.000102
298.0215	0.000018
298.2325	0.000039
298.4435	0.000672
298.6545	0.000187
298.8656	0.000609
299.0766	0.000250
299.2877	-0.000595
299.4988	0.001137
299.7099	-0.000405
299.9210	0.001327
300.1321	-0.001123
300.3432	0.001158
300.5544	-0.001186
300.7655	0.002087
300.9767	0.001073
301.1879	-0.000384
301.3991	0.000334
301.6103	0.000545
301.8215	0.000757
302.0328	0.001242
302.2441	-0.000341
302.4553	-0.000785
302.6666	-0.001038
302.8779	-0.000595
303.0892	-0.000510
303.3006	0.001284
303.5119	0.001854
303.7233	-0.001017
303.9346	0.000039
304.1460	0.000693
304.3574	0.000081
304.5688	0.000545
304.7803	0.000313
304.9917	0.000925
305.2031	0.000651
305.4146	0.000609
305.6261	-0.000806
305.8376	0.001517
306.0491	-0.000426
306.2606	0.000820
306.4722	-0.000700
306.6837	0.000735
306.8953	0.001010
307.1069	0.000123
307.3184	-0.000764
307.5301	0.000820
307.7417	-0.000848
307.9533	-0.000299
308.1650	-0.000278
308.3766	0.000503
308.5883	-0.000468
308.8000	-0.000067
309.0117	-0.000806
309.2234	-0.000510
309.4351	-0.000362
309.6469	0.000757
309.8586	-0.000299
310.0704	0.001833
310.2822	-0.000215
310.4940	0.001707
310.7058	0.000693
310.9176	0.001390
311.1295	-0.000025
311.3413	0.000018
311.5532	-0.000236
311.7651	0.001306
311.9770	-0.000489
312.1889	0.001981
312.4008	-0.000341
312.6127	0.000039
312.8247	-0.000320
313.0366	-0.000067
313.2486	-0.000172
313.4606	-0.001017
313.6726	0.000355
313.8846	0.000588
314.0967	-0.000933
314.3087	-0.000595
314.5208	-0.000004
314.7328	0.001854
314.9449	0.000714
315.1570	0.000925
315.3692	-0.000257
315.5813	0.000757
315.7934	-0.000109
316.0056	-0.000194
316.2177	-0.000405
316.4299	0.000187
316.6421	-0.000299
316.8543	0.000567
317.0666	-0.000679
317.2788	0.001348
317.4911	-0.000194
317.7033	0.000313
317.9156	-0.000595
318.1279	0.000018
318.3402	-0.000426
318.5525	0.000461
318.7649	-0.000679
318.9772	0.002256
319.1896	-0.000088
319.4019	-0.000742
319.6143	0.001686
319.8267	0.001284
320.0392	-0.000679
320.2516	-0.000109
320.4640	-0.000721
320.6765	0.000862
320.8890	0.000482
321.1014	0.001918
321.3139	-0.000257
321.5265	0.001094
321.7390	0.000503
321.9515	0.000144
322.1641	0.000060
322.3766	0.001517
322.5892	-0.000658
322.8018	0.001116
323.0144	-0.000130
323.2270	0.001031
323.4397	-0.001101
323.6523	0.000461
323.8650	-0.000004
324.0777	0.001348
324.2904	0.000039
324.5031	0.001643
324.7158	0.000609
324.9285	0.001601
325.1412	-0.001819
325.3540	0.000503
325.5668	-0.000911
325.7796	-0.000130
325.9924	0.001010
326.2052	0.001263
326.4180	0.000313
326.6308	0.000039
326.8437	-0.000384
327.0566	0.001200
327.2694	-0.000405
327.4823	0.001116
327.6952	0.000651
327.9082	0.000271
328.1211	0.000060
328.3340	0.001010
328.5470	-0.000362
328.7600	0.001073
328.9730	-0.000764
329.1860	0.000482
329.3990	0.000123
329.6120	0.001010
329.8251	-0.000552
330.0381	0.000630
330.2512	0.000081
330.4643	-0.000067
330.6774	0.000039
330.8905	0.000208
331.1036	0.000883
331.3167	0.000925
331.5299	-0.000088
331.7431	0.001052
331.9562	0.001622
332.1694	0.000609
332.3826	0.000904
332.5959	0.000841
332.8091	0.000313
333.0223	-0.000172
333.2356	0.000018
333.4489	0.001939
333.6622	0.000968
333.8755	0.001496
334.0888	-0.000215
334.3021	0.000039
334.5154	-0.000806
334.7288	0.000229
334.9422	-0.000531
335.1555	-0.000130
335.3689	-0.000004
335.5823	0.000925
335.7958	-0.000215
336.0092	-0.000848
336.2227	0.000588
336.4361	0.000165
336.6496	-0.000109
336.8631	0.001390
337.0766	-0.000257
337.2901	0.001158
337.5036	-0.000236
337.7172	0.000355
337.9307	0.000377
338.1443	0.001200
338.3579	0.001348
338.5715	0.000165
338.7851	0.000968
338.9987	-0.001123
339.2124	0.000968
339.4260	0.001474
339.6397	0.000208
339.8533	0.000313
340.0670	-0.000088
340.2807	-0.000637
340.4945	0.000672
340.7082	0.000250
340.9219	0.000229
341.1357	0.000968
341.3495	0.000250
341.5633	0.000292
341.7771	-0.000299
341.9909	-0.000046
342.2047	-0.000384
342.4185	-0.000067
342.6324	-0.000320
342.8463	-0.000215
343.0601	-0.000806
343.2740	0.001327
343.4879	0.001221
343.7019	0.000313
343.9158	0.001369
344.1297	0.001686
344.3437	0.000144
344.5577	0.000545
344.7717	0.000482
344.9857	0.001116
345.1997	-0.000679
345.4137	0.000799
345.6277	-0.000088
345.8418	0.001728
346.0559	0.001242
346.2699	0.001031
346.4840	-0.000552
346.6981	0.000482
346.9123	-0.000194
347.1264	0.000545
347.3406	-0.000088
347.5547	-0.000827
347.7689	0.000503
347.9831	0.000271
348.1973	-0.000130
348.4115	0.000461
348.6257	-0.000384
348.8400	0.001854
349.0542	0.000039
349.2685	-0.000088
349.4828	0.000102
349.6971	0.000735
349.9114	0.001517
350.1257	0.001897
350.3400	-0.000341
350.5544	0.000482
350.7687	-0.000616
350.9831	-0.000510
351.1975	0.000018
351.4119	0.000123
351.6263	0.000060
351.8407	0.000250
352.0552	0.000229
352.2696	0.001031
352.4841	0.001517
352.6986	0.001179
352.9131	0.001158
353.1276	0.001939
353.3421	-0.000426
353.5566	0.000841
353.7712	0.000081
353.9858	0.000081
354.2003	-0.000004
354.4149	0.000355
354.6295	-0.000468
354.8441	0.000313
355.0588	0.001854
355.2734	-0.000721
355.4881	-0.001017
355.7027	0.000334
355.9174	-0.000890
356.1321	0.000271
356.3468	-0.000257
356.5615	-0.000130
356.7763	0.000820
356.9910	-0.000088
357.2058	0.000271
357.4206	0.000524
357.6353	-0.000468
357.8501	0.002171
358.0650	-0.000679
358.2798	0.001073
358.4946	0.000968
358.7095	0.000165
358.9243	0.000588
359.1392	0.000165
359.3541	0.000925
359.5690	0.001770
359.7839	0.000757
359.9989	0.001010
360.2138	0.000419
360.4288	0.000250
360.6438	-0.000658
360.8587	0.000018
361.0737	0.000947
361.2888	0.000567
361.5038	0.000102
361.7188	0.000735
361.9339	-0.002199
362.1489	-0.000088
362.3640	-0.000046
362.5791	0.000503
362.7942	-0.000236
363.0093	-0.001460
363.2245	0.001094
363.4396	-0.000194
363.6548	0.000271
363.8699	0.001094
364.0851	0.000883
364.3003	0.000799
364.5155	0.000947
364.7308	0.000925
364.9460	-0.000637
365.1612	0.000588
365.3765	0.000292
365.5918	-0.000658
365.8071	-0.000025
366.0224	0.000820
366.2377	0.000102
366.4530	-0.000109
366.6684	-0.000637
366.8837	0.000947
367.0991	-0.000109
367.3145	0.001517
367.5299	0.000609
367.7453	0.001242
367.9607	-0.000679
368.1761	0.000883
368.3916	0.000229
368.6070	0.001939
368.8225	-0.000468
369.0380	-0.000109
369.2535	0.001010
369.4690	-0.000954
369.6845	0.001263
369.9001	0.000313
370.1156	0.000377
370.3312	-0.001165
370.5468	-0.000764
370.7624	0.000060
370.9780	-0.000510
371.1936	0.000039
371.4092	-0.000278
371.6249	0.001411
371.8405	-0.000616
372.0562	0.000778
372.2719	0.000018
372.4876	-0.000447
372.7033	0.001369
372.9190	0.000757
373.1348	0.000588
373.3505	-0.000004
373.5663	0.000862
373.7820	0.000545
373.9978	0.001010
374.2136	0.001643
374.4294	-0.000405
374.6453	-0.000341
374.8611	-0.000468
375.0770	0.001094
375.2928	0.000989
375.5087	0.000567
375.7246	0.000545
375.9405	0.001242
376.1564	-0.000447
376.3724	0.000271
376.5883	-0.000067
376.8043	0.000165
377.0203	0.000757
377.2362	0.000545
377.4522	0.000651
377.6682	0.001137
377.8843	0.001031
378.1003	0.000461
378.3164	0.000545
378.5324	-0.000637
378.7485	-0.000194
378.9646	0.000102
379.1807	0.000039
379.3968	0.000735
379.6129	-0.000468
379.8291	-0.000025
380.0452	-0.000616
380.2614	0.000398
380.4776	0.001327
380.6938	0.000165
380.9100	0.000714
381.1262	-0.000510
381.3424	0.000757
381.5587	0.001052
381.7749	-0.000384
381.9912	-0.000046
382.2075	0.000588
382.4238	0.001643
382.6401	-0.000489
382.8564	0.000377
383.0728	0.000292
383.2891	0.000123
383.5055	-0.000489
383.7219	0.000060
383.9382	0.000820
384.1546	0.000609
384.3711	0.000440
384.5875	0.000334
384.8039	-0.000616
385.0204	0.000545
385.2368	-0.000257
385.4533	0.000714
385.6698	-0.000320
385.8863	0.000503
386.1028	-0.000088
386.3194	0.000524
386.5359	-0.000130
386.7525	0.000461
386.9690	0.001242
387.1856	-0.000278
387.4022	0.001559
387.6188	0.000735
387.8355	0.000377
388.0521	0.001158
388.2687	0.000123
388.4854	0.000651
388.7021	0.001031
388.9188	0.000989
389.1355	0.000144
389.3522	0.000630
389.5689	0.000313
389.7856	0.000714
390.0024	0.000714
390.2192	-0.000848
390.4359	-0.000848
390.6527	0.002213
390.8695	0.001686
391.0863	0.001876
391.3032	0.000947
391.5200	0.001791
391.7369	0.001749
391.9537	0.002826
392.1706	0.001242
392.3875	0.002995
392.6044	0.001179
392.8213	0.001242
393.0383	0.000925
393.2552	0.001622
393.4722	0.002256
393.6891	0.001707
393.9061	0.001559
394.1231	0.001770
394.3401	0.002952
394.5572	0.002382
394.7742	0.002973
394.9912	0.003691
395.2083	0.002488
395.4254	0.002931
395.6425	0.003079
395.8596	0.002572
396.0767	0.001538
396.2938	0.003354
396.5109	0.001749
396.7281	0.003269
396.9453	0.001939
397.1624	0.004430
397.3796	0.003628
397.5968	0.004810
397.8140	0.003565
398.0313	0.003248
398.2485	0.004747
398.4658	0.005085
398.6830	0.004663
398.9003	0.003586
399.1176	0.005106
399.3349	0.005739
399.5522	0.005444
399.7696	0.006415
399.9869	0.003797
400.2043	0.004029
400.4216	0.005022
400.6390	0.006563
400.8564	0.004958
401.0738	0.006014
401.2912	0.007492
401.5087	0.005570
401.7261	0.004810
401.9436	0.005064
402.1610	0.005951
402.3785	0.006225
402.5960	0.007133
402.8135	0.005739
403.0310	0.007027
403.2486	0.007513
403.4661	0.006014
403.6837	0.006035
403.9013	0.005592
404.1189	0.005127
404.3365	0.006563
404.5541	0.008421
404.7717	0.007703
404.9893	0.007281
405.2070	0.008315
405.4246	0.009160
405.6423	0.009075
405.8600	0.007724
406.0777	0.008949
406.2954	0.009561
406.5131	0.008315
406.7309	0.007851
406.9486	0.009561
407.1664	0.008421
407.3842	0.008801
407.6020	0.007809
407.8198	0.009624
408.0376	0.007977
408.2554	0.011018
408.4733	0.008822
408.6911	0.009835
408.9090	0.009413
409.1269	0.010215
409.3448	0.007830
409.5627	0.011292
409.7806	0.009751
409.9985	0.011883
410.2165	0.009139
410.4344	0.009498
410.6524	0.009667
410.8704	0.009814
411.0884	0.009308
411.3064	0.010933
411.5244	0.010131
411.7424	0.011250
411.9605	0.011081
412.1785	0.011440
412.3966	0.011926
412.6147	0.012538
412.8328	0.011862
413.0509	0.013340
413.2690	0.011018
413.4871	0.011567
413.7053	0.010912
413.9234	0.013446
414.1416	0.013509
414.3598	0.012749
414.5780	0.011440
414.7962	0.013847
415.0144	0.012285
415.2326	0.012116
415.4509	0.012432
415.6692	0.013678
415.8874	0.013150
416.1057	0.014290
416.3240	0.012791
416.5423	0.013678
416.7606	0.014987
416.9790	0.015050
417.1973	0.012728
417.4157	0.012517
417.6341	0.014100
417.8524	0.015072
418.0708	0.014396
418.2893	0.014164
418.5077	0.014354
418.7261	0.014164
418.9446	0.015114
419.1630	0.016507
419.3815	0.015241
419.6000	0.015494
419.8185	0.016043
420.0370	0.016402
420.2555	0.016254
420.4741	0.018154
420.6926	0.018196
420.9112	0.016465
421.1298	0.018070
421.3483	0.017837
421.5669	0.018027
421.7856	0.019273
422.0042	0.019315
422.2228	0.018914
422.4415	0.017901
422.6601	0.018260
422.8788	0.017943
423.0975	0.020012
423.3162	0.017753
423.5349	0.018978
423.7536	0.016254
423.9724	0.019104
424.1911	0.019020
424.4099	0.017457
424.6287	0.018070
424.8475	0.018914
425.0663	0.019548
425.2851	0.019041
425.5039	0.019949
425.7228	0.018724
425.9416	0.017162
426.1605	0.017584
426.3793	0.018070
426.5982	0.018070
426.8171	0.017183
427.0361	0.017795
427.2550	0.017457
427.4739	0.019674
427.6929	0.017394
427.9118	0.019569
428.1308	0.020181
428.3498	0.019252
428.5688	0.018872
428.7878	0.021005
429.0068	0.019527
429.2259	0.020118
429.4449	0.019548
429.6640	0.022651
429.8831	0.023855
430.1022	0.022968
430.3213	0.021532
430.5404	0.023264
430.7595	0.022292
430.9787	0.022187
431.1978	0.020603
431.4170	0.020899
431.6362	0.019505
431.8553	0.019843
432.0745	0.019442
432.2938	0.018978
432.5130	0.018851
432.7322	0.019273
432.9515	0.017457
433.1707	0.018978
433.3900	0.020329
433.6093	0.021722
433.8286	0.022989
434.0479	0.024087
434.2673	0.021279
434.4866	0.021511
434.7059	0.021005
434.9253	0.021279
435.1447	0.021131
435.3641	0.021786
435.5835	0.022546
435.8029	0.020941
436.0223	0.021680
436.2418	0.020983
436.4612	0.021216
436.6807	0.021807
436.9001	0.024235
437.1196	0.022102
437.3391	0.019315
437.5586	0.021490
437.7782	0.021173
437.9977	0.022672
438.2173	0.022947
438.4368	0.022166
438.6564	0.022799
438.8760	0.021870
439.0956	0.022081
439.3152	0.024362
439.5348	0.021849
439.7545	0.020941
439.9741	0.021110
440.1938	0.022102
440.4135	0.021005
440.6331	0.021638
440.8528	0.022947
441.0725	0.024552
441.2923	0.024763
441.5120	0.026621
441.7318	0.024298
441.9515	0.028183
442.1713	0.025628
442.3911	0.025417
442.6109	0.022504
442.8307	0.026663
443.0505	0.025016
443.2703	0.027339
443.4902	0.022694
443.7101	0.027444
443.9299	0.026283
444.1498	0.025481
444.3697	0.025312
444.5896	0.024045
444.8095	0.025713
445.0295	0.024889
445.2494	0.026051
445.4694	0.025924
445.6894	0.024340
445.9093	0.023031
446.1293	0.023686
446.3493	0.023200
446.5694	0.024277
446.7894	0.024657
447.0094	0.024003
447.2295	0.023939
447.4496	0.023601
447.6696	0.025861
447.8897	0.023454
448.1098	0.023792
448.3300	0.020688
448.5501	0.022208
448.7702	0.023517
448.9904	0.021828
449.2106	0.023475
449.4307	0.023411
449.6509	0.023116
449.8711	0.021849
450.0914	0.023221
450.3116	0.020941
450.5318	0.020751
450.7521	0.022018
450.9724	0.021490
451.1926	0.021955
451.4129	0.017584
451.6332	0.021068
451.8535	0.019674
452.0739	0.021406
452.2942	0.018640
452.5146	0.019674
452.7349	0.019864
452.9553	0.020413
453.1757	0.019949
453.3961	0.019738
453.6165	0.018872
453.8369	0.018049
454.0574	0.018175
454.2778	0.018450
454.4983	0.017436
454.7188	0.017647
454.9393	0.017711
455.1597	0.019273
455.3803	0.017436
455.6008	0.018830
455.8213	0.017162
456.0419	0.017795
456.2624	0.016233
456.4830	0.018978
456.7036	0.017331
456.9242	0.016803
457.1448	0.016887
457.3654	0.016634
457.5860	0.018640
457.8067	0.017753
458.0274	0.018809
458.2480	0.017141
458.4687	0.017204
458.6894	0.018766
458.9101	0.017225
459.1308	0.017711
459.3516	0.017373
459.5723	0.019231
459.7931	0.019189
460.0138	0.018027
460.2346	0.017204
460.4554	0.016233
460.6762	0.016001
460.8970	0.016212
461.1178	0.015811
461.3387	0.016845
461.5595	0.014670
461.7804	0.014143
462.0013	0.012369
462.2222	0.013889
462.4431	0.013678
462.6640	0.012939
462.8849	0.011715
463.1059	0.012749
463.3268	0.013087
463.5478	0.013995
463.7687	0.014037
463.9897	0.014227
464.2107	0.013087
464.4317	0.015452
464.6528	0.015367
464.8738	0.016022
465.0948	0.015747
465.3159	0.014839
465.5370	0.015895
465.7581	0.016550
465.9792	0.014544
466.2003	0.013763
466.4214	0.014903
466.6425	0.012137
466.8637	0.014438
467.0848	0.013657
467.3060	0.010828
467.5272	0.012221
467.7484	0.012073
467.9696	0.011630
468.1908	0.011588
468.4120	0.009308
468.6333	0.011926
468.8545	0.010363
469.0758	0.011609
469.2970	0.010152
469.5183	0.009709
469.7396	0.008484
469.9610	0.009181
470.1823	0.009244
470.4036	0.010215
470.6250	0.010469
470.8463	0.008653
471.0677	0.008674
471.2891	0.009540
471.5105	0.007893
471.7319	0.009772
471.9533	0.006964
472.1748	0.008611
472.3962	0.008611
472.6177	0.009920
472.8391	0.008083
473.0606	0.008822
473.2821	0.009223
473.5036	0.009941
473.7251	0.008843
473.9467	0.009434
474.1682	0.009498
474.3898	0.009751
474.6113	0.007914
474.8329	0.008949
475.0545	0.007576
475.2761	0.008906
475.4977	0.008738
475.7193	0.009244
475.9410	0.008125
476.1626	0.007787
476.3843	0.007977
476.6060	0.008167
476.8277	0.006985
477.0494	0.008104
477.2711	0.006795
477.4928	0.006246
477.7145	0.006373
477.9363	0.007576
478.1580	0.008801
478.3798	0.008083
478.6016	0.007809
478.8234	0.007027
479.0452	0.008928
479.2670	0.007091
479.4888	0.005908
479.7107	0.008505
479.9325	0.006183
480.1544	0.007070
480.3763	0.006711
480.5982	0.007302
480.8201	0.007872
481.0420	0.006267
481.2639	0.005697
481.4859	0.007175
481.7078	0.006901
481.9298	0.006521
482.1517	0.005465
482.3737	0.008547
482.5957	0.006478
482.8177	0.005887
483.0398	0.006711
483.2618	0.005908
483.4838	0.005402
483.7059	0.005739
483.9280	0.004219
484.1501	0.006119
484.3721	0.005275
484.5943	0.007471
484.8164	0.006563
485.0385	0.005697
485.2606	0.007471
485.4828	0.008379
485.7050	0.013066
485.9271	0.018661
486.1493	0.019991
486.3715	0.016169
486.5937	0.012876
486.8160	0.011567
487.0382	0.008928
487.2605	0.009857
487.4827	0.008843
487.7050	0.007091
487.9273	0.005317
488.1496	0.004979
488.3719	0.005866
488.5942	0.004557
488.8165	0.004114
489.0389	0.004663
489.2612	0.004473
489.4836	0.006246
489.7060	0.004620
489.9284	0.004620
490.1508	0.004451
490.3732	0.004958
490.5956	0.004071
490.8180	0.004050
491.0405	0.004430
491.2630	0.004156
491.4854	0.003417
491.7079	0.005043
491.9304	0.004029
492.1529	0.004114
492.3755	0.004304
492.5980	0.005444
492.8205	0.002805
493.0431	0.005486
493.2657	0.004261
493.4882	0.004684
493.7108	0.004304
493.9334	0.004198
494.1561	0.003839
494.3787	0.004346
494.6013	0.004599
494.8240	0.003945
495.0466	0.004515
495.2693	0.004325
495.4920	0.003375
495.7147	0.004620
495.9374	0.004599
496.1601	0.003987
496.3829	0.004557
496.6056	0.004958
496.8284	0.004578
497.0511	0.003016
497.2739	0.003607
497.4967	0.003712
497.7195	0.003628
497.9423	0.004388
498.1652	0.004198
498.3880	0.003945
498.6109	0.002298
498.8337	0.004663
499.0566	0.003058
499.2795	0.004261
499.5024	0.003248
499.7253	0.004198
499.9482	0.003417
500.1712	0.002277
500.3941	0.003142
500.6171	0.003100
500.8400	0.003332
501.0630	0.004705
501.2860	0.003881
501.5090	0.004261
501.7320	0.004620
501.9551	0.004240
502.1781	0.002403
502.4012	0.005022
502.6242	0.002636
502.8473	0.004726
503.0704	0.002973
503.2935	0.003375
503.5166	0.003417
503.7397	0.004768
503.9628	0.003522
504.1860	0.003649
504.4092	0.001686
504.6323	0.002826
504.8555	0.001939
505.0787	0.002973
505.3019	0.002488
505.5251	0.002636
505.7483	0.002762
505.9716	0.004578
506.1948	0.001580
506.4181	0.003016
506.6414	0.002509
506.8647	0.004093
507.0880	0.003269
507.3113	0.003860
507.5346	0.003121
507.7579	0.003712
507.9813	0.002572
508.2046	0.002910
508.4280	0.002488
508.6514	0.003522
508.8748	0.002298
509.0982	0.003164
509.3216	0.001981
509.5450	0.003248
509.7685	0.002699
509.9919	0.003248
510.2154	0.002910
510.4388	0.003924
510.6623	0.003565
510.8858	0.002636
511.1093	0.001960
511.3329	0.002256
511.5564	0.003206
511.7799	0.002192
512.0035	0.002425
512.2270	0.003417
512.4506	0.001770
512.6742	0.004620
512.8978	0.002931
513.1214	0.001116
513.3451	0.003227
513.5687	0.003902
513.7923	0.003016
514.0160	0.003776
514.2397	0.002446
514.4634	0.002762
514.6871	0.002361
514.9108	0.002108
515.1345	0.003164
515.3582	0.003037
515.5819	0.002699
515.8057	0.004219
516.0295	0.003417
516.2532	0.003142
516.4770	0.001580
516.7008	0.002023
516.9246	0.004853
517.1485	0.003438
517.3723	0.002509
517.5961	0.001854
517.8200	0.003924
518.0439	0.002910
518.2677	0.002425
518.4916	0.004071
518.7155	0.003290
518.9395	0.004071
519.1634	0.003079
519.3873	0.002783
519.6113	0.001559
519.8352	0.003164
520.0592	0.002889
520.2832	0.003459
520.5072	0.003755
520.7312	0.003459
520.9552	0.004050
521.1792	0.002298
521.4033	0.003185
521.6273	0.003586
521.8514	0.004114
522.0755	0.002995
522.2996	0.003311
522.5237	0.003501
522.7478	0.003100
522.9719	0.004874
523.1960	0.005760
523.4202	0.002720
523.6443	0.004050
523.8685	0.003058
524.0927	0.004156
524.3169	0.003966
524.5411	0.003565
524.7653	0.002171
524.9895	0.003881
525.2138	0.003459
525.4380	0.003755
525.6623	0.002192
525.8865	0.004726
526.1108	0.003881
526.3351	0.004430
526.5594	0.003501
526.7837	0.003396
527.0081	0.004219
527.2324	0.005190
527.4568	0.004853
527.6811	0.004494
527.9055	0.004430
528.1299	0.004346
528.3543	0.005697
528.5787	0.003734
528.8031	0.004895
529.0276	0.005043
529.2520	0.003691
529.4765	0.006457
529.7009	0.005317
529.9254	0.005803
530.1499	0.004008
530.3744	0.004684
530.5989	0.003269
530.8234	0.006478
531.0480	0.006964
531.2725	0.004177
531.4971	0.004831
531.7217	0.005929
531.9462	0.005655
532.1708	0.005528
532.3954	0.004409
532.6200	0.005676
532.8447	0.005866
533.0693	0.007112
533.2940	0.005824
533.5186	0.006457
533.7433	0.007112
533.9680	0.006837
534.1927	0.008104
534.4174	0.008569
534.6421	0.006331
534.8668	0.008442
535.0916	0.007133
535.3163	0.006711
535.5411	0.007196
535.7659	0.007492
535.9907	0.008273
536.2155	0.007745
536.4403	0.006225
536.6651	0.006478
536.8899	0.007428
537.1148	0.007217
537.3396	0.006880
537.5645	0.008167
537.7894	0.006964
538.0143	0.009160
538.2392	0.007830
538.4641	0.008442
538.6890	0.009371
538.9139	0.010490
539.1389	0.009033
539.3638	0.010511
539.5888	0.009286
539.8138	0.010638
540.0388	0.009519
540.2638	0.010617
540.4888	0.008991
540.7138	0.011081
540.9389	0.011060
541.1639	0.010786
541.3890	0.012073
541.6140	0.011313
541.8391	0.011546
542.0642	0.010680
542.2893	0.012327
542.5144	0.011968
542.7396	0.011588
542.9647	0.013847
543.1899	0.012918
543.4150	0.013045
543.6402	0.013235
543.8654	0.013847
544.0906	0.013847
544.3158	0.012812
544.5410	0.014417
544.7662	0.015114
544.9915	0.013657
545.2167	0.015177
545.4420	0.015219
545.6673	0.014692
545.8926	0.013573
546.1179	0.015029
546.3432	0.016212
546.5685	0.014438
546.7938	0.015114
547.0192	0.015304
547.2445	0.015409
547.4699	0.017479
547.6953	0.016486
547.9206	0.017880
548.1460	0.018302
548.3715	0.021216
548.5969	0.018830
548.8223	0.019252
549.0478	0.019273
549.2732	0.017479
549.4987	0.015895
549.7242	0.017837
549.9496	0.019569
550.1751	0.017500
550.4007	0.019315
550.6262	0.017563
550.8517	0.016592
551.0773	0.017352
551.3028	0.016550
551.5284	0.017647
551.7540	0.017605
551.9796	0.020392
552.2052	0.020836
552.4308	0.021997
552.6564	0.020814
552.8820	0.020688
553.1077	0.020413
553.3333	0.021997
553.5590	0.021934
553.7847	0.022250
554.0104	0.022102
554.2361	0.022292
554.4618	0.022039
554.6875	0.020646
554.9132	0.019505
555.1390	0.022314
555.3648	0.023433
555.5905	0.025227
555.8163	0.022504
556.0421	0.024868
556.2679	0.026051
556.4937	0.024889
556.7195	0.023538
556.9454	0.024404
557.1712	0.023348
557.3971	0.025502
557.6230	0.024150
557.8488	0.025692
558.0747	0.027022
558.3006	0.024488
558.5266	0.025924
558.7525	0.025143
558.9784	0.022715
559.2044	0.025143
559.4303	0.023813
559.6563	0.027909
559.8823	0.022715
560.1083	0.028415
560.3343	0.027423
560.5603	0.029724
560.7863	0.028985
561.0124	0.034876
561.2384	0.033398
561.4645	0.034010
561.6905	0.032680
561.9166	0.033799
562.1427	0.034074
562.3688	0.032321
562.5949	0.032723
562.8211	0.033335
563.0472	0.033335
563.2733	0.034032
563.4995	0.033567
563.7257	0.035151
563.9519	0.036333
564.1781	0.035890
564.4043	0.036586
564.6305	0.037368
564.8567	0.037600
565.0829	0.038972
565.3092	0.037684
565.5355	0.038275
565.7617	0.037853
565.9880	0.038381
566.2143	0.039563
566.4406	0.039141
566.6669	0.039204
566.8932	0.043047
567.1196	0.043807
567.3459	0.047882
567.5723	0.050627
567.7987	0.052675
568.0250	0.053456
568.2514	0.055504
568.4778	0.057721
568.7043	0.062134
568.9307	0.067708
569.1571	0.069629
569.3836	0.074169
569.6100	0.082952
569.8365	0.092939
570.0630	0.094522
570.2895	0.099822
570.5160	0.102292
570.7425	0.099230
570.9690	0.110611
571.1956	0.115488
571.4221	0.121547
571.6487	0.122603
571.8752	0.125432
572.1018	0.134490
572.3284	0.131281
572.5550	0.126488
572.7816	0.114517
573.0082	0.113778
573.2349	0.123574
573.4615	0.135757
573.6882	0.142788
573.9149	0.147391
574.1415	0.155118
574.3682	0.159510
574.5949	0.165844
574.8216	0.163099
575.0484	0.168399
575.2751	0.167385
575.5018	0.167280
575.7286	0.162318
575.9554	0.156089
576.1821	0.152247
576.4089	0.156364
576.6357	0.166541
576.8626	0.174268
577.0894	0.178026
577.3162	0.183980
577.5431	0.187823
577.7699	0.206466
577.9968	0.243289
578.2237	0.231634
578.4505	0.221668
578.6774	0.205727
578.9044	0.195825
579.1313	0.186894
579.3582	0.187781
579.5851	0.194347
579.8121	0.199457
580.0391	0.203489
580.2660	0.205157
580.4930	0.203447
580.7200	0.194136
580.9470	0.200491
581.1741	0.232141
581.4011	0.277113
581.6281	0.309670
581.8552	0.309163
582.0822	0.305426
582.3093	0.297297
582.5364	0.276226
582.7635	0.256780
582.9906	0.232352
583.2177	0.217868
583.4449	0.204228
583.6720	0.194305
583.8991	0.187654
584.1263	0.188309
584.3535	0.190969
584.5807	0.194411
584.8079	0.205559
585.0351	0.218037
585.2623	0.228087
585.4895	0.232985
585.7167	0.227115
585.9440	0.221985
586.1713	0.212315
586.3985	0.196269
586.6258	0.196754
586.8531	0.199224
587.0804	0.206635
587.3077	0.216263
587.5350	0.226081
587.7624	0.222682
587.9897	0.213877
588.2171	0.199034
588.4445	0.194959
588.6718	0.196290
588.8992	0.182798
589.1266	0.166308
589.3540	0.163458
589.5815	0.161157
589.8089	0.161473
590.0363	0.159489
590.2638	0.152563
590.4913	0.145807
590.7187	0.144899
590.9462	0.136243
591.1737	0.127945
591.4012	0.130162
591.6288	0.129740
591.8563	0.132822
592.0838	0.125855
592.3114	0.128895
592.5389	0.151719
592.7665	0.177646
592.9941	0.194263
593.2217	0.199372
593.4493	0.197493
593.6769	0.195065
593.9046	0.187675
594.1322	0.181341
594.3598	0.171439
594.5875	0.167871
594.8152	0.175134
595.0429	0.186873
595.2705	0.195382
595.4983	0.192257
595.7260	0.182840
595.9537	0.168145
596.1814	0.159784
596.4092	0.151909
596.6369	0.141310
596.8647	0.140803
597.0925	0.139916
597.3203	0.148678
597.5481	0.151846
597.7759	0.145321
598.0037	0.143907
598.2315	0.137911
598.4594	0.137172
598.6872	0.153577
598.9151	0.170130
599.1430	0.180856
599.3709	0.178491
599.5988	0.173381
599.8267	0.176506
600.0546	0.179652
600.2825	0.181742
600.5105	0.179990
600.7384	0.178322
600.9664	0.177921
601.1944	0.185057
601.4223	0.179251
601.6503	0.170594
601.8783	0.167934
602.1064	0.163205
602.3344	0.165717
602.5624	0.168293
602.7905	0.169349
603.0185	0.170172
603.2466	0.176527
603.4747	0.185817
603.7028	0.185543
603.9309	0.180433
604.1590	0.171840
604.3871	0.166794
604.6152	0.157441
604.8434	0.152775
605.0715	0.153091
605.2997	0.157842
605.5279	0.160777
605.7561	0.168990
605.9843	0.173761
606.2125	0.169412
606.4407	0.159742
606.6689	0.157039
606.8972	0.151719
607.1254	0.153851
607.3537	0.156638
607.5819	0.158264
607.8102	0.157694
608.0385	0.154168
608.2668	0.147327
608.4951	0.145533
608.7235	0.145870
608.9518	0.137953
609.1801	0.136053
609.4085	0.131429
609.6369	0.129655
609.8653	0.134849
610.0936	0.144794
610.3220	0.146462
610.5505	0.144899
610.7789	0.140402
611.0073	0.134891
611.2357	0.136095
611.4642	0.135989
611.6927	0.136095
611.9211	0.135757
612.1496	0.130225
612.3781	0.127269
612.6066	0.129423
612.8351	0.126024
613.0637	0.129085
613.2922	0.126910
613.5208	0.128431
613.7493	0.124461
613.9779	0.127164
614.2065	0.127628
614.4351	0.125285
614.6637	0.126319
614.8923	0.126150
615.1209	0.123469
615.3495	0.130310
615.5782	0.133287
615.8068	0.129381
616.0355	0.126214
616.2642	0.119288
616.4929	0.110716
616.7216	0.112785
616.9503	0.110526
617.1790	0.110062
617.4077	0.109259
617.6365	0.110970
617.8652	0.110547
618.0940	0.110146
618.3227	0.109048
618.5515	0.100835
618.7803	0.095472
619.0091	0.092094
619.2379	0.091651
619.4667	0.087681
619.6956	0.089898
619.9244	0.093340
620.1533	0.096612
620.3821	0.096908
620.6110	0.095979
620.8399	0.087555
621.0688	0.078602
621.2977	0.073704
621.5266	0.073324
621.7556	0.077293
621.9845	0.079109
622.2135	0.079531
622.4424	0.083796
622.6714	0.082698
622.9004	0.085507
623.1294	0.086393
623.3584	0.090046
623.5874	0.089603
623.8164	0.088082
624.0454	0.085485
624.2745	0.084008
624.5035	0.088568
624.7326	0.089560
624.9617	0.089560
625.1908	0.085591
625.4199	0.085000
625.6490	0.080059
625.8781	0.081052
626.1072	0.078455
626.3364	0.074696
626.5655	0.069946
626.7947	0.069080
627.0238	0.071149
627.2530	0.070178
627.4822	0.070094
627.7114	0.068890
627.9406	0.069798
628.1698	0.066378
628.3991	0.061500
628.6283	0.056243
628.8576	0.057616
629.0868	0.056433
629.3161	0.063971
629.5454	0.061838
629.7747	0.060466
630.0040	0.061353
630.2333	0.063802
630.4626	0.059790
630.6920	0.057151
630.9213	0.054385
631.1507	0.052189
631.3801	0.054343
631.6094	0.051598
631.8388	0.052274
632.0682	0.053245
632.2976	0.051134
632.5271	0.049803
632.7565	0.045982
632.9859	0.044039
633.2154	0.044968
633.4448	0.042350
633.6743	0.043892
633.9038	0.043786
634.1333	0.041717
634.3628	0.044018
634.5923	0.042350
634.8218	0.041886
635.0514	0.040767
635.2809	0.040408
635.5105	0.040894
635.7400	0.040936
635.9696	0.043575
636.1992	0.044821
636.4288	0.045095
636.6584	0.045264
636.8880	0.045454
637.1177	0.043955
637.3473	0.042540
637.5770	0.040725
637.8066	0.040387
638.0363	0.041252
638.2660	0.040915
638.4957	0.041717
638.7254	0.038719
638.9551	0.043512
639.1848	0.041231
639.4145	0.040788
639.6443	0.038366
639.8740	0.038679
640.1038	0.036692
640.3336	0.037386
640.5633	0.034731
640.7931	0.037672
641.0229	0.034683
641.2528	0.034614
641.4826	0.033283
641.7124	0.034234
641.9423	0.031443
642.1721	0.030160
642.4020	0.030718
642.6319	0.027266
642.8617	0.029355
643.0916	0.030424
643.3216	0.030426
643.5515	0.029671
643.7814	0.029738
644.0113	0.030212
644.2413	0.027854
644.4712	0.029310
644.7012	0.028638
644.9312	0.028078
645.1612	0.024898
645.3912	0.026675
645.6212	0.027769
645.8512	0.027753
646.0812	0.025275
646.3113	0.026818
646.5413	0.023971
646.7714	0.024713
647.0015	0.023726
647.2316	0.024244
647.4616	0.024571
647.6918	0.026508
647.9219	0.027723
648.1520	0.028570
648.3821	0.027993
648.6123	0.031041
648.8424	0.033021
649.0726	0.034663
649.3028	0.033017
649.5329	0.031376
649.7631	0.031137
649.9933	0.033764
650.2236	0.029903
650.4538	0.027984
650.6840	0.027845
650.9143	0.028496
651.1445	0.029096
651.3748	0.029306
651.6051	0.029022
651.8354	0.031221
652.0657	0.032630
652.2960	0.032474
652.5263	0.030377
652.7566	0.031999
652.9870	0.031266
653.2173	0.029738
653.4477	0.030367
653.6780	0.031973
653.9084	0.032483
654.1388	0.032293
654.3692	0.033612
654.5996	0.036498
654.8300	0.041228
655.0605	0.066464
655.2909	0.188760
655.5213	0.531993
655.7518	0.955151
655.9823	1.000000
656.2128	1.000000
656.4433	1.000000
656.6738	1.000000
656.9043	1.000000
657.1348	0.870559
657.3653	0.711290
657.5959	0.608610
657.8264	0.532205
658.0570	0.479440
658.2875	0.451642
658.5181	0.412445
658.7487	0.370121
658.9793	0.368844
659.2099	0.330456
659.4406	0.254511
659.6712	0.168420
659.9018	0.098364
660.1325	0.059924
660.3632	0.040524
660.5938	0.030931
660.8245	0.027886
661.0552	0.022689
661.2859	0.025304
661.5166	0.024369
661.7474	0.022175
661.9781	0.022062
662.2088	0.023810
662.4396	0.023061
662.6704	0.022401
662.9011	0.022296
663.1319	0.019852
663.3627	0.020733
663.5935	0.022716
663.8243	0.020601
664.0552	0.021387
664.2860	0.021114
664.5168	0.023457
664.7477	0.022274
664.9786	0.024126
665.2094	0.024709
665.4403	0.023358
665.6712	0.022855
665.9021	0.023648
666.1330	0.022827
666.3640	0.022207
666.5949	0.020748
666.8259	0.020382
667.0568	0.019111
667.2878	0.021236
667.5188	0.020963
667.7497	0.022269
667.9807	0.022226
668.2117	0.020836
668.4428	0.019041
668.6738	0.021575
668.9048	0.020793
669.1359	0.019527
669.3669	0.022229
669.5980	0.021026
669.8291	0.020878
670.0602	0.023390
670.2913	0.023792
670.5224	0.020983
670.7535	0.023897
670.9846	0.019885
671.2157	0.024657
671.4469	0.026072
671.6781	0.028817
671.9092	0.027676
672.1404	0.031646
672.3716	0.033187
672.6028	0.034834
672.8340	0.032997
673.0652	0.031202
673.2964	0.031012
673.5277	0.030865
673.7589	0.031625
673.9902	0.029830
674.2214	0.028162
674.4527	0.028162
674.6840	0.028183
674.9153	0.025945
675.1466	0.026008
675.3779	0.028056
675.6093	0.028056
675.8406	0.026008
676.0719	0.025058
676.3033	0.023538
676.5347	0.025164
676.7661	0.023644
676.9974	0.023813
677.2288	0.024235
677.4602	0.025628
677.6917	0.029133
677.9231	0.026114
678.1545	0.030062
678.3860	0.028711
678.6174	0.030252
678.8489	0.030126
679.0804	0.029091
679.3119	0.032786
679.5434	0.034728
679.7749	0.036692
680.0064	0.036249
680.2379	0.034918
680.4694	0.034306
680.7010	0.033039
680.9325	0.032807
681.1641	0.035615
681.3957	0.035235
681.6273	0.037283
681.8589	0.036080
682.0905	0.032997
682.3221	0.033419
682.5537	0.031857
682.7854	0.028901
683.0170	0.029872
683.2487	0.030337
683.4803	0.030316
683.7120	0.032427
683.9437	0.029682
684.1754	0.035298
684.4071	0.036101
684.6388	0.036903
684.8705	0.038149
685.1023	0.040682
685.3340	0.042878
685.5658	0.046151
685.7975	0.046109
686.0293	0.045285
686.2611	0.045180
686.4929	0.043913
686.7247	0.043575
686.9565	0.044145
687.1883	0.046235
687.4202	0.044272
687.6520	0.044208
687.8838	0.041865
688.1157	0.041907
688.3476	0.039479
688.5795	0.035911
688.8114	0.037558
689.0433	0.035636
689.2752	0.037199
689.5071	0.037874
689.7390	0.034918
689.9710	0.035510
690.2029	0.034348
690.4349	0.034243
690.6669	0.034433
690.8988	0.033250
691.1308	0.037494
691.3628	0.037009
691.5948	0.038655
691.8269	0.039352
692.0589	0.037051
692.2909	0.035974
692.5230	0.038149
692.7550	0.038107
692.9871	0.038318
693.2192	0.039458
693.4513	0.038529
693.6834	0.037600
693.9155	0.037895
694.1476	0.034538
694.3797	0.033314
694.6119	0.033145
694.8440	0.033884
695.0762	0.035172
695.3083	0.037558
695.5405	0.033567
695.7727	0.033018
696.0049	0.030147
696.2371	0.028774
696.4693	0.031350
696.7016	0.037304
696.9338	0.040788
697.1660	0.039183
697.3983	0.037811
697.6306	0.037093
697.8628	0.038719
698.0951	0.037199
698.3274	0.038170
698.5597	0.037663
698.7920	0.038128
699.0243	0.036607
699.2567	0.036565
699.4890	0.036059
699.7214	0.034454
699.9537	0.032406
700.1861	0.031477
700.4185	0.030463
700.6509	0.030865
700.8833	0.030294
701.1157	0.029387
701.3481	0.027761
701.5806	0.028795
701.8130	0.028922
702.0454	0.029366
702.2779	0.031308
702.5104	0.032321
702.7429	0.030400
702.9753	0.030358
703.2078	0.029682
703.4403	0.027761
703.6729	0.026473
703.9054	0.026557
704.1379	0.026726
704.3705	0.030147
704.6030	0.027803
704.8356	0.026705
705.0682	0.024362
705.3008	0.023475
705.5334	0.024024
705.7660	0.023559
705.9986	0.023939
706.2312	0.027930
706.4638	0.030210
706.6965	0.032976
706.9291	0.034876
707.1618	0.038318
707.3945	0.038043
707.6272	0.038360
707.8599	0.037874
708.0926	0.039437
708.3253	0.039183
708.5580	0.036988
708.7907	0.035953
709.0235	0.033567
709.2562	0.033736
709.4890	0.032807
709.7217	0.032744
709.9545	0.033293
710.1873	0.035277
710.4201	0.034285
710.6529	0.035383
710.8857	0.035130
711.1186	0.032216
711.3514	0.033630
711.5842	0.032300
711.8171	0.032089
712.0500	0.029724
712.2828	0.028014
712.5157	0.027740
712.7486	0.031160
712.9815	0.030485
713.2144	0.029534
713.4474	0.031477
713.6803	0.033314
713.9132	0.035298
714.1462	0.034623
714.3791	0.034475
714.6121	0.035341
714.8451	0.034053
715.0781	0.034095
715.3111	0.035847
715.5441	0.034391
715.7771	0.030696
716.0102	0.031118
716.2432	0.029323
716.4762	0.029387
716.7093	0.030210
716.9424	0.027930
717.1754	0.028352
717.4085	0.029957
717.6416	0.028289
717.8747	0.027085
718.1078	0.028732
718.3410	0.028648
718.5741	0.027233
718.8072	0.026283
719.0404	0.029661
719.2736	0.030252
719.5067	0.029091
719.7399	0.028922
719.9731	0.028542
720.2063	0.029197
720.4395	0.026051
720.6727	0.028627
720.9060	0.028711
721.1392	0.031308
721.3725	0.029788
721.6057	0.026388
721.8390	0.031899
722.0723	0.030126
722.3055	0.029112
722.5388	0.028141
722.7721	0.027149
723.0055	0.028605
723.2388	0.027550
723.4721	0.025650
723.7055	0.028415
723.9388	0.028690
724.1722	0.028711
724.4056	0.028035
724.6389	0.025291
724.8723	0.027592
725.1057	0.031604
725.3391	0.031435
725.5726	0.031920
725.8060	0.032026
726.0394	0.034243
726.2729	0.034053
726.5063	0.033440
726.7398	0.033398
726.9733	0.031561
727.2068	0.031287
727.4403	0.034116
727.6738	0.034728
727.9073	0.030210
728.1408	0.033229
728.3743	0.033398
728.6079	0.032870
728.8414	0.033820
729.0750	0.035193
729.3086	0.034327
729.5421	0.036164
729.7757	0.037663
730.0093	0.037030
730.2429	0.036143
730.4766	0.036502
730.7102	0.037726
730.9438	0.044398
731.1775	0.044018
731.4111	0.042055
731.6448	0.043153
731.8785	0.044968
732.1122	0.041485
732.3458	0.039648
732.5795	0.042857
732.8133	0.042794
733.0470	0.043132
733.2807	0.043617
733.5145	0.043849
733.7482	0.046277
733.9820	0.049233
734.2157	0.052422
734.4495	0.051788
734.6833	0.050352
734.9171	0.047502
735.1509	0.048874
735.3847	0.048030
735.6185	0.047523
735.8524	0.049276
736.0862	0.048516
736.3201	0.048410
736.5539	0.047418
736.7878	0.047502
737.0217	0.048494
737.2556	0.049677
737.4895	0.048600
737.7234	0.043279
737.9573	0.043723
738.1912	0.043744
738.4252	0.040366
738.6591	0.038107
738.8931	0.043237
739.1271	0.044356
739.3610	0.046826
739.5950	0.045327
739.8290	0.046594
740.0630	0.045095
740.2970	0.042456
740.5310	0.040281
740.7651	0.041485
740.9991	0.036417
741.2332	0.035193
741.4672	0.033356
741.7013	0.035087
741.9354	0.033103
742.1695	0.032934
742.4036	0.035341
742.6377	0.033820
742.8718	0.034391
743.1059	0.034074
743.3400	0.031625
743.5742	0.031498
743.8083	0.029914
744.0425	0.029387
744.2767	0.027909
744.5108	0.028922
744.7450	0.029598
744.9792	0.029408
745.2134	0.028014
745.4477	0.027170
745.6819	0.027529
745.9161	0.025459
746.1504	0.028268
746.3846	0.027972
746.6189	0.028415
746.8532	0.027106
747.0874	0.029112
747.3217	0.031308
747.5560	0.032638
747.7903	0.030822
748.0247	0.029049
748.2590	0.027508
748.4933	0.029302
748.7277	0.028521
748.9620	0.030548
749.1964	0.031878
749.4308	0.033124
749.6652	0.037283
749.8995	0.036776
750.1339	0.038592
750.3684	0.038318
750.6028	0.039563
750.8372	0.040598
751.0717	0.038508
751.3061	0.037452
751.5406	0.038085
751.7750	0.040366
752.0095	0.040915
752.2440	0.039057
752.4785	0.037558
752.7130	0.036249
752.9475	0.035320
753.1820	0.036185
753.4166	0.037346
753.6511	0.040345
753.8856	0.040767
754.1202	0.042667
754.3548	0.040429
754.5894	0.040492
754.8239	0.040366
755.0585	0.040513
755.2931	0.041084
755.5278	0.041844
755.7624	0.043892
755.9970	0.042836
756.2317	0.044251
756.4663	0.047249
756.7010	0.049339
756.9356	0.051345
757.1703	0.050352
757.4050	0.054892
757.6397	0.057088
757.8744	0.060867
758.1091	0.056433
758.3438	0.056898
758.5786	0.053731
758.8133	0.052126
759.0481	0.054216
759.2828	0.056243
759.5176	0.061268
759.7524	0.061627
759.9872	0.062007
760.2220	0.060339
760.4568	0.062028
760.6916	0.062366
760.9264	0.061479
761.1613	0.062218
761.3961	0.058354
761.6310	0.054681
761.8658	0.049930
762.1007	0.048917
762.3356	0.049064
762.5705	0.049339
762.8054	0.049698
763.0403	0.048516
763.2752	0.048706
763.5101	0.050015
763.7450	0.048642
763.9800	0.049149
764.2149	0.051788
764.4499	0.055990
764.6849	0.055715
764.9198	0.059811
765.1548	0.059283
765.3898	0.056982
765.6248	0.054955
765.8599	0.051049
766.0949	0.049487
766.3299	0.047059
766.5650	0.041084
766.8000	0.041823
767.0351	0.040450
767.2701	0.039247
767.5052	0.037346
767.7403	0.040239
767.9754	0.041168
768.2105	0.042794
768.4456	0.044842
768.6808	0.047333
768.9159	0.048917
769.1510	0.047354
769.3862	0.044377
769.6214	0.047228
769.8565	0.045982
770.0917	0.044863
770.3269	0.043153
770.5621	0.046679
770.7973	0.045306
771.0325	0.048642
771.2677	0.048262
771.5030	0.046045
771.7382	0.043596
771.9735	0.042224
772.2087	0.040577
772.4440	0.041274
772.6793	0.039986
772.9146	0.041041
773.1499	0.039331
773.3852	0.038613
773.6205	0.038001
773.8558	0.037874
774.0911	0.035615
774.3265	0.034327
774.5618	0.033314
774.7972	0.030653
775.0326	0.030147
775.2679	0.030020
775.5033	0.031223
775.7387	0.028289
775.9741	0.026600
776.2095	0.028162
776.4450	0.026072
776.6804	0.025164
776.9158	0.022525
777.1513	0.024319
777.3868	0.025312
777.6222	0.025185
777.8577	0.026220
778.0932	0.024193
778.3287	0.025713
778.5642	0.026346
778.7997	0.027106
779.0352	0.030379
779.2707	0.032279
779.5063	0.032997
779.7418	0.032343
779.9774	0.030970
780.2130	0.028373
780.4485	0.029957
780.6841	0.030083
780.9197	0.032870
781.1553	0.031794
781.3909	0.034581
781.6265	0.034369
781.8622	0.035214
782.0978	0.032807
782.3335	0.033884
782.5691	0.035277
782.8048	0.034243
783.0405	0.033356
783.2761	0.032047
783.5118	0.033039
783.7475	0.034813
783.9832	0.033504
784.2190	0.033272
784.4547	0.029133
784.6904	0.026874
784.9262	0.028627
785.1619	0.029640
785.3977	0.029133
785.6335	0.028669
785.8692	0.029513
786.1050	0.028056
786.3408	0.028901
786.5766	0.026452
786.8124	0.026072
787.0483	0.028204
787.2841	0.027402
787.5199	0.029724
787.7558	0.028964
787.9917	0.030126
788.2275	0.031604
788.4634	0.030865
788.6993	0.033145
788.9352	0.031688
789.1711	0.031076
789.4070	0.030548
789.6429	0.030062
789.8789	0.027254
790.1148	0.027317
790.3507	0.026072
790.5867	0.025671
790.8227	0.025882
791.0586	0.024045
791.2946	0.024742
791.5306	0.023982
791.7666	0.022884
792.0026	0.023053
792.2387	0.023707
792.4747	0.021448
792.7107	0.023116
792.9468	0.021089
793.1828	0.023095
793.4189	0.023327
793.6550	0.023644
793.8910	0.027529
794.1271	0.028922
794.3632	0.031350
794.5993	0.031055
794.8355	0.030780
795.0716	0.032068
795.3077	0.033229
795.5439	0.030970
795.7800	0.029936
796.0162	0.027233
796.2523	0.025966
796.4885	0.023517
796.7247	0.022398
796.9609	0.020814
797.1971	0.022145
797.4333	0.024721
797.6695	0.021849
797.9058	0.024066
798.1420	0.023095
798.3783	0.022504
798.6145	0.022694
798.8508	0.022504
799.0871	0.023116
799.3233	0.019505
799.5596	0.021300
799.7959	0.021068
800.0322	0.020519
800.2686	0.020667
800.5049	0.019505
800.7412	0.019252
800.9776	0.018133
801.2139	0.019759
801.4503	0.019759
801.6867	0.017837
801.9230	0.018830
802.1594	0.017457
802.3958	0.016169
802.6322	0.015008
802.8686	0.016402
803.1051	0.018365
803.3415	0.016972
803.5779	0.018386
803.8144	0.019801
804.0508	0.017500
804.2873	0.014248
804.5238	0.016486
804.7603	0.017880
804.9968	0.017795
805.2333	0.017415
805.4698	0.016782
805.7063	0.016106
805.9428	0.018661
806.1794	0.022356
806.4159	0.025312
806.6525	0.024573
806.8890	0.023897
807.1256	0.022694
807.3622	0.023475
807.5988	0.021934
807.8354	0.022102
808.0720	0.022588
808.3086	0.022018
808.5452	0.023010
808.7818	0.023179
809.0185	0.021427
809.2551	0.021279
809.4918	0.021680
809.7284	0.019653
809.9651	0.019421
810.2018	0.019548
810.4385	0.021152
810.6752	0.018724
810.9119	0.017816
811.1486	0.019442
811.3853	0.019505
811.6221	0.017985
811.8588	0.016761
812.0956	0.018091
812.3323	0.017204
812.5691	0.016043
812.8059	0.015177
813.0427	0.013805
813.2795	0.014966
813.5163	0.015029
813.7531	0.016951
813.9899	0.017859
814.2267	0.018851
814.4636	0.019252
814.7004	0.017098
814.9373	0.017035
815.1742	0.016718
815.4110	0.015241
815.6479	0.015029
815.8848	0.012369
816.1217	0.014333
816.3586	0.014776
816.5955	0.015705
816.8324	0.013657
817.0694	0.014248
817.3063	0.014164
817.5433	0.014396
817.7802	0.012411
818.0172	0.014502
818.2542	0.014312
818.4912	0.013931
818.7282	0.013024
818.9652	0.012812
819.2022	0.011968
819.4392	0.012348
819.6762	0.011736
819.9133	0.013087
820.1503	0.013910
820.3874	0.014206
820.6244	0.013383
820.8615	0.015346
821.0986	0.016592
821.3357	0.014375
821.5727	0.015050
821.8099	0.014480
822.0470	0.014903
822.2841	0.011672
822.5212	0.012242
822.7584	0.011567
822.9955	0.012369
823.2327	0.012897
823.4698	0.012601
823.7070	0.011947
823.9442	0.009751
824.1814	0.011039
824.4186	0.011039
824.6558	0.010638
824.8930	0.010110
825.1302	0.012834
825.3675	0.013087
825.6047	0.013678
825.8419	0.011778
826.0792	0.013319
826.3165	0.011841
826.5537	0.013002
826.7910	0.014100
827.0283	0.014016
827.2656	0.011482
827.5029	0.014016
827.7402	0.013741
827.9776	0.012517
828.2149	0.012052
828.4522	0.012369
828.6896	0.012622
828.9270	0.011503
829.1643	0.013214
829.4017	0.012855
829.6391	0.011419
829.8765	0.011905
830.1139	0.011989
830.3513	0.011144
830.5887	0.009603
830.8261	0.009667
831.0636	0.008738
831.3010	0.009709
831.5385	0.008273
831.7759	0.008843
832.0134	0.007618
832.2509	0.008526
832.4884	0.008083
832.7259	0.008674
832.9634	0.008653
833.2009	0.009160
833.4384	0.009181
833.6759	0.010068
833.9135	0.009835
834.1510	0.008991
834.3886	0.010490
834.6261	0.012010
834.8637	0.010004
835.1013	0.010342
835.3389	0.010152
835.5765	0.010469
835.8141	0.010405
836.0517	0.010659
836.2893	0.008695
836.5269	0.009244
836.7646	0.007450
837.0022	0.007428
837.2399	0.007576
837.4775	0.007809
837.7152	0.006373
837.9529	0.006837
838.1906	0.008083
838.4283	0.007006
838.6660	0.006352
838.9037	0.006732
839.1414	0.004663
839.3791	0.007238
839.6169	0.006647
839.8546	0.008125
840.0924	0.007196
840.3302	0.007724
840.5679	0.006626
840.8057	0.006436
841.0435	0.006584
841.2813	0.008590
841.5191	0.007196
841.7569	0.006331
841.9947	0.006478
842.2326	0.006267
842.4704	0.005148
842.7082	0.005824
842.9461	0.004726
843.1840	0.007513
843.4218	0.006499
843.6597	0.005317
843.8976	0.004367
844.1355	0.005169
844.3734	0.005148
844.6113	0.005824
844.8492	0.005676
845.0872	0.006246
845.3251	0.005824
845.5631	0.005951
845.8010	0.004451
846.0390	0.006331
846.2770	0.005106
846.5149	0.005444
846.7529	0.005402
846.9909	0.005486
847.2289	0.004304
847.4669	0.004810
847.7050	0.004430
847.9430	0.004916
848.1810	0.004831
848.4191	0.003839
848.6571	0.005486
848.8952	0.006225
849.1333	0.005296
849.3713	0.005106
849.6094	0.005317
849.8475	0.005507
850.0856	0.003354
850.3237	0.003185
850.5619	0.003734
850.8000	0.005169
851.0381	0.003417
851.2763	0.004135
851.5144	0.004283
851.7526	0.004578
851.9908	0.004177
852.2289	0.006246
852.4671	0.007323
852.7053	0.008843
852.9435	0.010448
853.1817	0.012454
853.4200	0.013784
853.6582	0.012981
853.8964	0.012327
854.1347	0.013087
854.3729	0.014586
854.6112	0.014544
854.8495	0.013615
855.0877	0.013594
855.3260	0.013129
855.5643	0.010954
855.8026	0.011271
856.0409	0.013192
856.2792	0.011081
856.5176	0.012369
856.7559	0.012960
856.9942	0.012369
857.2326	0.011546
857.4710	0.010004
857.7093	0.011292
857.9477	0.011841
858.1861	0.009413
858.4245	0.009709
858.6629	0.009308
858.9013	0.008716
859.1397	0.009434
859.3781	0.008843
859.6166	0.010194
859.8550	0.008189
860.0935	0.008653
860.3319	0.008759
860.5704	0.007745
860.8089	0.007196
861.0473	0.007787
861.2858	0.007196
861.5243	0.007091
861.7628	0.006309
862.0013	0.006141
862.2399	0.007048
862.4784	0.006288
862.7169	0.008231
862.9555	0.007217
863.1940	0.006352
863.4326	0.007597
863.6712	0.006943
863.9098	0.006035
864.1483	0.008484
864.3869	0.006563
864.6255	0.007048
864.8642	0.005402
865.1028	0.004853
865.3414	0.006415
865.5800	0.004346
865.8187	0.004726
866.0573	0.003354
866.2960	0.004768
866.5347	0.004219
866.7733	0.006837
867.0120	0.005000
867.2507	0.005106
867.4894	0.005908
867.7281	0.004853
867.9669	0.005528
868.2056	0.005212
868.4443	0.006204
868.6831	0.005803
868.9218	0.004515
869.1606	0.004346
869.3993	0.003586
869.6381	0.004156
869.8769	0.005190
870.1157	0.004641
870.3545	0.005465
870.5933	0.005022
870.8321	0.006584
871.0709	0.004831
871.3097	0.006014
871.5486	0.004916
871.7874	0.005296
872.0263	0.003860
872.2651	0.005824
872.5040	0.003396
872.7429	0.004409
872.9818	0.004093
873.2207	0.006816
873.4596	0.005190
873.6985	0.005127
873.9374	0.005634
874.1763	0.004768
874.4153	0.004029
874.6542	0.004430
874.8932	0.006985
875.1321	0.005486
875.3711	0.006373
875.6101	0.006436
875.8491	0.007175
876.0880	0.005634
876.3270	0.006373
876.5661	0.005782
876.8051	0.005824
877.0441	0.004325
877.2831	0.004177
877.5222	0.005845
877.7612	0.005845
878.0003	0.005951
878.2393	0.007260
878.4784	0.007766
878.7175	0.007661
878.9566	0.005697
879.1957	0.007787
879.4348	0.005022
879.6739	0.007597
879.9130	0.007661
880.1521	0.006415
880.3913	0.008569
880.6304	0.008526
880.8696	0.007661
881.1087	0.009540
881.3479	0.008231
881.5871	0.008400
881.8262	0.007386
882.0654	0.006711
882.3046	0.006753
882.5438	0.006309
882.7831	0.006183
883.0223	0.005549
883.2615	0.005359
883.5007	0.005845
883.7400	0.006626
883.9792	0.006204
884.2185	0.005444
884.4578	0.005169
884.6971	0.006288
884.9363	0.006309
885.1756	0.007281
885.4149	0.005085
885.6542	0.006098
885.8936	0.006605
886.1329	0.007935
886.3722	0.006880
886.6116	0.005634
886.8509	0.006035
887.0903	0.004599
887.3296	0.006352
887.5690	0.006035
887.8084	0.005972
888.0478	0.004663
888.2872	0.005676
888.5266	0.003649
888.7660	0.004726
889.0054	0.004515
889.2448	0.005359
889.4843	0.004641
889.7237	0.004557
889.9632	0.005043
890.2026	0.004958
890.4421	0.004663
890.6816	0.005655
890.9211	0.005824
891.1606	0.004494
891.4001	0.005634
891.6396	0.005106
891.8791	0.003881
892.1186	0.006119
892.3581	0.005486
892.5977	0.006141
892.8372	0.004895
893.0768	0.004726
893.3163	0.004768
893.5559	0.003501
893.7955	0.004283
894.0351	0.005000
894.2747	0.004831
894.5143	0.003480
894.7539	0.004304
894.9935	0.004578
895.2331	0.004557
895.4727	0.003860
895.7124	0.004684
895.9520	0.005275
896.1917	0.004029
896.4314	0.006246
896.6710	0.004705
896.9107	0.005212
897.1504	0.005085
897.3901	0.005380
897.6298	0.003248
897.8695	0.005676
898.1092	0.003649
898.3489	0.004346
898.5887	0.004937
898.8284	0.005317
899.0682	0.004726
899.3079	0.006204
899.5477	0.003311
899.7875	0.005085
900.0272	0.004346
900.2670	0.004663
900.5068	0.004008
900.7466	0.004831
900.9864	0.003459
901.2263	0.004536
901.4661	0.004388
901.7059	0.003902
901.9458	0.005233
902.1856	0.006288
902.4255	0.005908
902.6654	0.004705
902.9052	0.004557
903.1451	0.005570
903.3850	0.003501
903.6249	0.003332
903.8648	0.004304
904.1047	0.005000
904.3446	0.004451
904.5846	0.005190
904.8245	0.003311
905.0644	0.004937
905.3044	0.003945
905.5444	0.006309
905.7843	0.006436
906.0243	0.006056
906.2643	0.005528
906.5043	0.005085
906.7443	0.003375
906.9843	0.004831
907.2243	0.004198
907.4643	0.005845
907.7043	0.005212
907.9444	0.004261
908.1844	0.002910
908.4245	0.004979
908.6645	0.004768
908.9046	0.004240
909.1447	0.003079
909.3847	0.004219
909.6248	0.003522
909.8649	0.004367
910.1050	0.003269
910.3452	0.004304
910.5853	0.002889
910.8254	0.004578
911.0655	0.003290
911.3057	0.004346
911.5458	0.001897
911.7860	0.005718
912.0262	0.004008
912.2663	0.004283
912.5065	0.002952
912.7467	0.003881
912.9869	0.004367
913.2271	0.003818
913.4673	0.002615
913.7075	0.003290
913.9478	0.003311
914.1880	0.003311
914.4283	0.002910
914.6685	0.003121
914.9088	0.003142
915.1490	0.003417
915.3893	0.003164
915.6296	0.003987
915.8699	0.002889
916.1102	0.003079
916.3505	0.003100
916.5908	0.003776
916.8311	0.003100
917.0714	0.003522
917.3118	0.003142
917.5521	0.004578
917.7925	0.004219
918.0328	0.004768
918.2732	0.004029
918.5136	0.003565
918.7539	0.004641
918.9943	0.004810
919.2347	0.003797
919.4751	0.004114
919.7155	0.004641
919.9560	0.003881
920.1964	0.002509
920.4368	0.003628
920.6773	0.003459
920.9177	0.003818
921.1582	0.003459
921.3986	0.002720
921.6391	0.002868
921.8796	0.002509
922.1201	0.003206
922.3606	0.002488
922.6011	0.002530
922.8416	0.001686
923.0821	0.004620
923.3226	0.003628
923.5631	0.003058
923.8037	0.003712
924.0442	0.002551
924.2848	0.001559
924.5254	0.003185
924.7659	0.003417
925.0065	0.002403
925.2471	0.001538
925.4877	0.002699
925.7283	0.002150
925.9689	0.002657
926.2095	0.002467
926.4501	0.002045
926.6908	0.001538
926.9314	0.003417
927.1720	0.002192
927.4127	0.000883
927.6533	0.003037
927.8940	0.002826
928.1347	0.003079
928.3754	0.001390
928.6161	0.002066
928.8568	0.002403
929.0975	0.002087
929.3382	0.001052
929.5789	0.003121
929.8196	0.003945
930.0604	0.002488
930.3011	0.002509
930.5419	0.002403
930.7826	0.002192
931.0234	0.003734
931.2642	0.001284
931.5049	0.001284
931.7457	0.000250
931.9865	0.003290
932.2273	0.002636
932.4681	0.001073
932.7089	0.001897
932.9498	0.003206
933.1906	0.002298
933.4314	0.000693
933.6723	0.002973
933.9131	0.002783
934.1540	0.003712
934.3949	0.001749
934.6358	0.001791
934.8766	0.002762
935.1175	0.001686
935.3584	0.002889
935.5993	0.002847
935.8403	0.002826
936.0812	0.002023
936.3221	0.003881
936.5630	0.001179
936.8040	0.002593
937.0449	0.000313
937.2859	0.001179
937.5269	0.001073
937.7678	0.001643
938.0088	0.001939
938.2498	0.000714
938.4908	0.002467
938.7318	0.001221
938.9728	0.001200
939.2138	0.001432
939.4549	0.002235
939.6959	0.000524
939.9369	0.001833
940.1780	0.000735
940.4190	0.001833
940.6601	0.000925
940.9012	0.001242
941.1422	0.001158
941.3833	0.001348
941.6244	0.001580
941.8655	0.002382
942.1066	0.001094
942.3477	0.001031
942.5889	0.001918
942.8300	0.002509
943.0711	0.000672
943.3123	0.002002
943.5534	0.001052
943.7946	0.001897
944.0357	0.000651
944.2769	0.001200
944.5181	0.000925
944.7593	0.000503
945.0005	0.002023
945.2417	0.001010
945.4829	0.000799
945.7241	-0.000109
945.9653	0.001538
946.2066	0.002593
946.4478	0.000567
946.6891	0.001897
946.9303	0.001158
947.1716	0.002023
947.4128	0.000714
947.6541	0.001306
947.8954	0.000883
948.1367	0.000714
948.3780	0.002361
948.6193	0.001812
948.8606	-0.000151
949.1019	0.001580
949.3433	0.000714
949.5846	0.001031
949.8259	0.000313
950.0673	0.000925
950.3086	0.000123
950.5500	0.000904
950.7914	0.002551
951.0327	0.001580
951.2741	0.000461
951.5155	0.001897
951.7569	0.002488
951.9983	-0.000130
952.2398	0.000609
952.4812	0.002361
952.7226	-0.000574
952.9640	0.002403
953.2055	0.000947
953.4469	0.001010
953.6884	0.001791
953.9299	0.001031
954.1713	0.001876
954.4128	0.002213
954.6543	-0.000236
954.8958	0.001601
955.1373	0.002235
955.3788	0.001432
955.6203	0.000102
955.8618	0.003079
956.1034	0.001453
956.3449	0.002235
956.5865	0.001453
956.8280	0.001432
957.0696	0.002213
957.3111	-0.000109
957.5527	0.001052
957.7943	0.001453
958.0359	0.001284
958.2775	0.001327
958.5191	0.000651
958.7607	0.002213
959.0023	0.000651
959.2439	0.001897
959.4856	0.001284
959.7272	0.000419
959.9688	0.000545
960.2105	0.001390
960.4522	0.000419
960.6938	0.000187
960.9355	0.000208
961.1772	0.001031
961.4189	0.000630
961.6606	-0.000426
961.9023	0.001538
962.1440	0.001622
962.3857	0.001432
962.6274	0.001327
962.8692	-0.000046
963.1109	0.000208
963.3527	0.001179
963.5944	0.000503
963.8362	0.001538
964.0779	0.001348
964.3197	-0.000384
964.5615	0.002551
964.8033	-0.000109
965.0451	0.000398
965.2869	0.000440
965.5287	0.002235
965.7705	0.000925
966.0123	0.001052
966.2542	-0.000510
966.4960	0.001770
966.7379	0.000313
966.9797	0.001116
967.2216	0.001580
967.4634	0.000862
967.7053	0.002002
967.9472	0.001876
968.1891	0.000651
968.4310	0.000968
968.6729	-0.000552
968.9148	0.001517
969.1567	0.000102
969.3987	-0.000067
969.6406	0.001137
969.8825	0.001073
970.1245	0.000862
970.3664	0.000841
970.6084	0.000060
970.8504	0.002446
971.0923	-0.000785
971.3343	0.001559
971.5763	0.001306
971.8183	0.000398
972.0603	-0.001397
972.3023	0.000039
972.5443	-0.000278
972.7864	0.001643
973.0284	0.000334
973.2704	0.001263
973.5125	-0.000004
973.7545	0.000229
973.9966	0.000355
974.2387	-0.000278
974.4807	-0.000130
974.7228	-0.000658
974.9649	0.000398
975.2070	-0.000004
975.4491	0.001348
975.6912	0.001052
975.9333	-0.000067
976.1755	-0.000088
976.4176	-0.000405
976.6597	0.001327
976.9019	0.000651
977.1440	0.000904
977.3862	0.002657
977.6283	0.000841
977.8705	-0.000679
978.1127	0.000735
978.3549	0.000567
978.5971	0.000672
978.8393	0.000545
979.0815	0.000651
979.3237	0.001306
979.5659	0.000947
979.8082	0.000588
980.0504	-0.001186
980.2926	0.000334
980.5349	0.000461
980.7771	0.001200
981.0194	0.000377
981.2617	-0.000109
981.5040	0.001664
981.7462	-0.000426
981.9885	0.000735
982.2308	0.000630
982.4731	0.001348
982.7155	0.000545
982.9578	0.000609
983.2001	-0.000257
983.4424	0.000989
983.6848	0.001369
983.9271	0.001348
984.1695	0.000461
984.4118	0.001052
984.6542	0.000144
984.8966	0.000144
985.1390	0.000545
985.3814	0.001918
985.6238	0.000651
985.8662	0.000081
986.1086	0.000271
986.3510	0.000757
986.5934	0.000799
986.8358	-0.001059
987.0783	0.000482
987.3207	0.000799
987.5632	-0.000130
987.8056	0.000693
988.0481	-0.000215
988.2906	0.000588
988.5331	0.000503
988.7756	0.001073
989.0180	0.000545
989.2605	0.000039
989.5031	0.000735
989.7456	0.000841
989.9881	0.000799
990.2306	-0.000447
990.4732	0.000862
990.7157	0.001031
990.9582	-0.000194
991.2008	0.000482
991.4434	0.000250
991.6859	-0.000911
991.9285	0.000841
992.1711	0.002150
992.4137	-0.000806
992.6563	0.001200
992.8989	-0.000510
993.1415	0.000968
993.3841	0.000081
993.6267	0.000377
993.8694	0.000651
994.1120	0.001897
994.3547	0.001622
994.5973	0.001116
994.8400	0.000545
995.0826	0.001643
995.3253	-0.000151
995.5680	0.001306
995.8107	0.000187
996.0534	0.000313
996.2961	0.000778
996.5388	0.001073
996.7815	0.000503
997.0242	0.000123
997.2670	-0.000700
997.5097	0.001200
997.7524	-0.000426
997.9952	0.000503
998.2379	0.000018
998.4807	-0.000109
998.7235	0.000398
998.9662	0.001221
999.2090	-0.000384
999.4518	0.000018
999.6946	-0.000447
999.9374	0.001432
1000.1802	0.001854
1000.4230	0.000144
1000.6659	0.000355
1000.9087	0.000398
1001.1515	-0.000151
1001.3944	0.001158
1001.6372	0.000820
1001.8801	-0.000130
1002.1230	0.000461
1002.3658	-0.000109
1002.6087	0.000588
1002.8516	0.000377
1003.0945	-0.000447
1003.3374	0.000377
1003.5803	-0.001038
1003.8232	-0.000890
1004.0661	0.000904
1004.3091	0.000757
1004.5520	0.000355
1004.7949	0.000229
1005.0379	0.000841
1005.2808	0.000102
1005.5238	0.001643
1005.7667	0.000524
1006.0097	0.001052
1006.2527	0.000989
1006.4957	0.000355
1006.7387	-0.000742
1006.9817	0.000672
1007.2247	0.000208
1007.4677	-0.001439
1007.7107	-0.001524
1007.9538	0.000060
1008.1968	-0.001165
1008.4398	-0.000721
1008.6829	-0.000637
1008.9259	-0.000046
1009.1690	0.001390
1009.4121	0.001432
1009.6551	0.000968
1009.8982	0.001432
1010.1413	-0.000109
1010.3844	-0.000616
1010.6275	-0.000764
1010.8706	0.001854
1011.1137	-0.000742
1011.3568	0.000841
1011.6000	0.000377
1011.8431	0.000440
1012.0863	0.000377
1012.3294	0.002256
1012.5726	-0.000510
1012.8157	-0.000426
1013.0589	0.000271
1013.3021	0.000482
1013.5452	0.000947
1013.7884	0.000735
1014.0316	-0.000341
1014.2748	-0.000320
1014.5180	-0.001313
1014.7613	-0.000046
1015.0045	-0.001629
1015.2477	0.000609
1015.4909	0.000165
1015.7342	0.001327
1015.9774	0.000567
1016.2207	0.000524
1016.4640	0.001580
1016.7072	0.001052
1016.9505	-0.000637
1017.1938	0.000820
1017.4371	0.000799
1017.6804	0.001749
1017.9237	0.000630
1018.1670	0.001221
1018.4103	0.001664
1018.6536	0.000714
1018.8969	-0.000046
1019.1403	0.000398
1019.3836	-0.000595
1019.6270	0.001918
1019.8703	0.001263
1020.1137	-0.000595
1020.3571	-0.000552
1020.6004	-0.000764
1020.8438	-0.000151
1021.0872	-0.000320
1021.3306	-0.000130
1021.5740	-0.000088
1021.8174	-0.000172
1022.0608	-0.000172
1022.3042	-0.000911
1022.5477	-0.000742
1022.7911	-0.001313
1023.0345	-0.000552
