# Wavelength (nm)	Intensity (a.u.)
197.7802	0.001056
197.9842	0.000761
198.1882	-0.000146
198.3922	-0.000040
198.5963	0.000655
198.8003	0.000803
199.0044	-0.000040
199.2085	0.000339
199.4126	0.001140
199.6168	0.000487
199.8209	0.001162
200.0251	0.000255
200.2292	-0.000420
200.4334	0.002469
200.6376	-0.000399
200.8418	-0.000146
201.0461	-0.000062
201.2503	-0.000525
201.4546	0.000170
201.6589	0.000972
201.8631	-0.000188
202.0674	-0.000167
202.2718	0.001288
202.4761	0.000276
202.6805	0.001836
202.8848	-0.000631
203.0892	0.000381
203.2936	0.000297
203.4980	0.000655
203.7024	0.001288
203.9069	-0.000188
204.1113	0.000170
204.3158	-0.000736
204.5203	0.000360
204.7248	0.000170
204.9293	0.001731
205.1338	0.000677
205.3384	0.000423
205.5430	0.000508
205.7475	-0.000504
205.9521	0.001562
206.1567	0.000719
206.3614	0.001267
206.5660	0.002406
206.7706	-0.000167
206.9753	0.000466
207.1800	0.000740
207.3847	-0.000399
207.5894	0.000170
207.7941	-0.000968
207.9989	0.001625
208.2036	0.000866
208.4084	0.002363
208.6132	0.001077
208.8180	-0.000462
209.0228	0.001457
209.2276	0.001119
209.4325	-0.000715
209.6373	0.001119
209.8422	0.000170
210.0471	0.001668
210.2520	0.001604
210.4569	0.000951
210.6618	0.000276
210.8668	0.001393
211.0718	0.001035
211.2767	0.000993
211.4817	0.000782
211.6867	0.000487
211.8918	-0.001411
212.0968	0.000487
212.3018	0.000761
212.5069	0.001752
212.7120	0.000550
212.9171	0.000402
213.1222	0.000276
213.3273	0.001372
213.5325	0.001035
213.7376	0.001372
213.9428	0.000402
214.1480	0.000445
214.3532	0.000634
214.5584	0.001604
214.7636	0.000107
214.9689	-0.000062
215.1741	-0.000546
215.3794	0.001330
215.5847	0.000571
215.7900	0.000887
215.9953	0.001056
216.2007	-0.000083
216.4060	0.001710
216.6114	0.000782
216.8168	0.000908
217.0222	0.000866
217.2276	0.001056
217.4330	0.000381
217.6384	0.000698
217.8439	0.002342
218.0494	-0.000989
218.2548	0.001393
218.4603	0.001098
218.6659	-0.000525
218.8714	-0.000715
219.0769	0.002110
219.2825	0.000613
219.4881	-0.000336
219.6936	0.000255
219.8992	0.000128
220.1049	0.000276
220.3105	0.001815
220.5161	0.000065
220.7218	0.000803
220.9275	0.000234
221.1332	0.001562
221.3389	0.001436
221.5446	0.000698
221.7503	0.000719
221.9561	0.000529
222.1618	0.000993
222.3676	0.000213
222.5734	-0.000230
222.7792	0.000761
222.9850	0.000276
223.1909	0.001288
223.3967	0.000908
223.6026	0.000149
223.8085	0.001288
224.0144	0.000592
224.2203	0.000845
224.4262	0.000951
224.6322	-0.000125
224.8381	0.000339
225.0441	0.000318
225.2501	0.000655
225.4561	0.001056
225.6621	0.000170
225.8681	0.000234
226.0742	0.001457
226.2802	0.000402
226.4863	0.001330
226.6924	-0.000146
226.8985	0.001098
227.1046	-0.000209
227.3107	0.000803
227.5169	0.000149
227.7230	-0.000462
227.9292	0.000550
228.1354	0.000993
228.3416	0.000234
228.5478	0.001984
228.7541	-0.000293
228.9603	0.000908
229.1666	0.000993
229.3729	0.000318
229.5791	0.000698
229.7855	0.001056
229.9918	0.001436
230.1981	-0.002044
230.4045	0.000655
230.6108	0.000550
230.8172	0.001478
231.0236	0.000782
231.2300	0.000592
231.4364	0.001393
231.6429	0.000107
231.8493	0.000592
232.0558	0.000381
232.2623	0.001752
232.4688	-0.000146
232.6753	0.002300
232.8818	0.000360
233.0884	0.000613
233.2949	0.000866
233.5015	0.000592
233.7081	-0.000040
233.9147	0.002511
234.1213	0.001119
234.3279	0.000023
234.5346	-0.000504
234.7413	-0.000420
234.9479	0.001246
235.1546	0.001140
235.3613	0.001457
235.5680	-0.000525
235.7748	0.000360
235.9815	-0.000272
236.1883	0.000550
236.3951	-0.000251
236.6018	0.000824
236.8087	0.001436
237.0155	0.001035
237.2223	0.000887
237.4292	0.001457
237.6360	0.001520
237.8429	-0.001538
238.0498	0.000719
238.2567	0.002110
238.4636	0.002553
238.6706	0.000972
238.8775	0.001731
239.0845	-0.000357
239.2915	0.000951
239.4985	0.000655
239.7055	-0.000589
239.9125	-0.001664
240.1195	0.001815
240.3266	0.000634
240.5337	0.000086
240.7407	-0.000420
240.9478	-0.000188
241.1549	0.000128
241.3621	-0.000062
241.5692	0.000128
241.7764	0.000972
241.9835	-0.000251
242.1907	0.001815
242.3979	-0.000525
242.6051	0.001119
242.8124	0.000508
243.0196	0.001731
243.2269	-0.001074
243.4341	0.000634
243.6414	-0.000251
243.8487	0.000655
244.0560	0.000318
244.2634	0.001562
244.4707	-0.000293
244.6781	0.001056
244.8854	0.000487
245.0928	0.000466
245.3002	0.000866
245.5076	-0.000272
245.7151	0.000360
245.9225	0.002089
246.1300	0.001415
246.3375	0.000740
246.5449	0.000466
246.7524	0.000445
246.9600	-0.000525
247.1675	0.000634
247.3750	-0.000546
247.5826	0.000128
247.7902	-0.000272
247.9978	0.000297
248.2054	0.001900
248.4130	0.000466
248.6206	0.000655
248.8283	0.000381
249.0359	-0.001031
249.2436	0.000824
249.4513	-0.000040
249.6590	0.002490
249.8667	0.000445
250.0745	0.002869
250.2822	0.000887
250.4900	0.000339
250.6978	-0.000483
250.9056	-0.000736
251.1134	0.000276
251.3212	0.000487
251.5290	0.000508
251.7369	0.000423
251.9447	0.000529
252.1526	0.000698
252.3605	0.000297
252.5684	0.001921
252.7763	-0.000083
252.9843	0.000592
253.1922	-0.000146
253.4002	0.000339
253.6082	-0.000905
253.8162	0.000592
254.0242	0.001689
254.2322	0.001541
254.4402	-0.000019
254.6483	0.000445
254.8564	0.000318
255.0644	0.000360
255.2725	-0.000293
255.4806	0.001583
255.6888	0.000550
255.8969	0.000381
256.1051	0.000782
256.3132	0.000508
256.5214	-0.000083
256.7296	0.001267
256.9378	-0.000357
257.1460	-0.000546
257.3543	0.000276
257.5625	0.000297
257.7708	0.001794
257.9791	-0.000293
258.1874	-0.000483
258.3957	0.002174
258.6040	0.000508
258.8124	-0.000715
259.0207	0.000402
259.2291	0.001056
259.4375	0.000255
259.6459	0.001668
259.8543	0.000002
260.0627	-0.000209
260.2711	0.000086
260.4796	0.000445
260.6881	-0.000336
260.8965	0.000487
261.1050	0.000213
261.3135	0.001562
261.5221	0.000930
261.7306	0.001478
261.9392	-0.000272
262.1477	0.001056
262.3563	0.000487
262.5649	0.000908
262.7735	0.001162
262.9822	0.000782
263.1908	0.000044
263.3995	0.000740
263.6081	0.001246
263.8168	0.000887
264.0255	0.001035
264.2342	0.000845
264.4429	-0.000146
264.6517	0.001162
264.8604	0.000213
265.0692	0.001457
265.2780	0.000698
265.4868	-0.000736
265.6956	-0.000336
265.9044	0.001689
266.1133	0.000402
266.3221	0.001372
266.5310	-0.000504
266.7399	0.000002
266.9488	0.000677
267.1577	0.000887
267.3666	0.000972
267.5755	0.001267
267.7845	0.000402
267.9935	0.000402
268.2024	0.000086
268.4114	0.000887
268.6205	0.000887
268.8295	0.000550
269.0385	0.000402
269.2476	0.000824
269.4566	0.000993
269.6657	0.001140
269.8748	0.000023
270.0839	0.001098
270.2931	0.000571
270.5022	0.001372
270.7114	0.000276
270.9205	0.000908
271.1297	0.000845
271.3389	0.001288
271.5481	-0.000040
271.7573	0.001478
271.9666	-0.000673
272.1758	0.001246
272.3851	0.000107
272.5944	0.000044
272.8037	0.001119
273.0130	-0.000715
273.2223	0.000107
273.4316	0.001393
273.6410	0.000508
273.8504	0.000529
274.0597	0.001225
274.2691	0.001731
274.4785	0.000065
274.6880	0.000023
274.8974	0.000276
275.1069	0.000149
275.3163	0.000276
275.5258	0.001436
275.7353	0.001689
275.9448	0.000086
276.1543	0.000782
276.3639	0.000972
276.5734	0.000107
276.7830	0.000930
276.9926	0.000192
277.2022	-0.000947
277.4118	0.000002
277.6214	-0.000504
277.8310	0.000993
278.0407	0.001625
278.2503	0.000719
278.4600	0.000930
278.6697	0.000951
278.8794	0.000613
279.0891	0.000297
279.2989	0.001162
279.5086	-0.000062
279.7184	0.000845
279.9281	-0.000546
280.1379	0.001056
280.3477	0.000972
280.5576	0.001436
280.7674	-0.000631
280.9772	0.000149
281.1871	0.000908
281.3970	-0.000188
281.6069	0.001225
281.8168	0.000972
282.0267	0.000550
282.2366	0.000423
282.4466	0.000192
282.6565	0.001288
282.8665	0.000866
283.0765	0.000761
283.2865	0.000677
283.4965	-0.000610
283.7065	-0.000568
283.9166	0.001225
284.1266	-0.000673
284.3367	0.001773
284.5468	-0.000083
284.7569	0.001204
284.9670	0.001246
285.1771	0.000107
285.3873	0.000023
285.5974	0.000677
285.8076	0.000023
286.0178	0.000719
286.2280	-0.000525
286.4382	0.001162
286.6484	-0.000926
286.8587	0.001625
287.0689	-0.000884
287.2792	0.001625
287.4895	0.000634
287.6998	-0.000167
287.9101	0.000908
288.1204	0.000930
288.3308	0.000592
288.5411	0.000213
288.7515	0.000255
288.9619	0.000487
289.1723	0.000972
289.3827	0.000571
289.5931	0.001562
289.8035	0.001330
290.0140	0.001204
290.2245	0.001436
290.4349	0.000824
290.6454	0.000951
290.8559	0.002321
291.0665	0.000044
291.2770	0.000002
291.4875	0.001098
291.6981	0.001183
291.9087	0.001162
292.1193	0.001098
292.3299	0.001963
292.5405	0.000002
292.7511	0.000571
292.9618	0.001878
293.1724	0.000592
293.3831	0.001372
293.5938	-0.001010
293.8045	0.000887
294.0152	0.000719
294.2260	0.001246
294.4367	-0.000251
294.6475	0.002469
294.8582	0.000339
295.0690	0.001119
295.2798	0.001077
295.4906	0.002153
295.7015	-0.000336
295.9123	0.000508
296.1232	-0.000968
296.3340	-0.000062
296.5449	0.001646
296.7558	-0.000589
296.9667	-0.000483
297.1777	0.001140
297.3886	0.001436
297.5995	0.001077
297.8105	0.001140
298.0215	0.001183
298.2325	0.001499
298.4435	0.000445
298.6545	0.000845
298.8656	-0.000357
299.0766	0.000339
299.2877	0.001520
299.4988	0.000655
299.7099	0.000655
299.9210	0.001288
300.1321	0.000107
300.3432	0.002258
300.5544	0.000782
300.7655	0.000782
300.9767	0.000740
301.1879	0.000908
301.3991	-0.000441
301.6103	-0.000251
301.8215	-0.000019
302.0328	0.002131
302.2441	0.000044
302.4553	0.001499
302.6666	-0.000019
302.8779	0.001246
303.0892	0.001668
303.3006	0.000592
303.5119	-0.000272
303.7233	0.001372
303.9346	0.001393
304.1460	0.000044
304.3574	-0.000525
304.5688	0.000360
304.7803	0.000719
304.9917	0.000571
305.2031	0.000803
305.4146	0.001119
305.6261	0.000866
305.8376	0.001246
306.0491	0.001267
306.2606	0.000086
306.4722	0.000993
306.6837	0.001204
306.8953	0.000677
307.1069	-0.000673
307.3184	0.000972
307.5301	0.001098
307.7417	0.000423
307.9533	0.001309
308.1650	0.000634
308.3766	0.001900
308.5883	0.001077
308.8000	0.001752
309.0117	0.000698
309.2234	0.001140
309.4351	0.001921
309.6469	0.001963
309.8586	0.000803
310.0704	0.001942
310.2822	0.001436
310.4940	0.001878
310.7058	0.001815
310.9176	0.000613
311.1295	0.000044
311.3413	0.000908
311.5532	0.000276
311.7651	0.002174
311.9770	0.000402
312.1889	0.001140
312.4008	0.001183
312.6127	0.000149
312.8247	0.001520
313.0366	0.000213
313.2486	0.000529
313.4606	0.001457
313.6726	0.002026
313.8846	0.001183
314.0967	0.001393
314.3087	0.000866
314.5208	0.001731
314.7328	0.000866
314.9449	0.001098
315.1570	0.001183
315.3692	0.001562
315.5813	0.003418
315.7934	0.000402
316.0056	0.000677
316.2177	0.000993
316.4299	0.001014
316.6421	-0.000272
316.8543	0.001183
317.0666	0.002047
317.2788	0.002701
317.4911	0.001963
317.7033	0.001836
317.9156	0.001836
318.1279	0.001710
318.3402	0.002026
318.5525	0.002258
318.7649	0.000381
318.9772	0.003312
319.1896	0.001077
319.4019	0.002153
319.6143	0.001625
319.8267	0.002153
320.0392	0.000107
320.2516	0.002363
320.4640	0.001520
320.6765	0.000993
320.8890	0.000655
321.1014	0.001098
321.3139	0.001520
321.5265	0.001499
321.7390	0.001098
321.9515	0.002237
322.1641	0.001162
322.3766	0.001984
322.5892	0.001098
322.8018	0.002427
323.0144	0.001857
323.2270	0.002848
323.4397	0.002469
323.6523	0.001963
323.8650	0.001583
324.0777	0.002891
324.2904	0.001773
324.5031	0.002954
324.7158	0.002806
324.9285	0.004050
325.1412	0.002848
325.3540	0.003650
325.5668	0.002300
325.7796	0.002342
325.9924	0.002532
326.2052	0.002511
326.4180	0.002553
326.6308	0.003439
326.8437	0.003650
327.0566	0.004346
327.2694	0.002363
327.4823	0.003312
327.6952	0.002448
327.9082	0.002110
328.1211	0.001330
328.3340	0.001794
328.5470	0.002616
328.7600	0.004114
328.9730	0.003270
329.1860	0.004388
329.3990	0.001984
329.6120	0.002574
329.8251	0.003144
330.0381	0.002827
330.2512	0.002975
330.4643	0.003882
330.6774	0.003165
330.8905	0.002195
331.1036	0.002954
331.3167	0.002848
331.5299	0.002300
331.7431	0.003038
331.9562	0.002785
332.1694	0.004156
332.3826	0.002848
332.5959	0.003249
332.8091	0.003228
333.0223	0.004050
333.2356	0.004156
333.4489	0.003945
333.6622	0.003713
333.8755	0.003291
334.0888	0.003270
334.3021	0.002785
334.5154	0.003333
334.7288	0.003692
334.9422	0.002806
335.1555	0.003692
335.3689	0.003608
335.5823	0.003270
335.7958	0.003692
336.0092	0.003249
336.2227	0.004156
336.4361	0.003397
336.6496	0.005147
336.8631	0.004114
337.0766	0.003059
337.2901	0.004788
337.5036	0.003460
337.7172	0.004704
337.9307	0.005590
338.1443	0.003861
338.3579	0.003713
338.5715	0.004999
338.7851	0.003755
338.9987	0.005800
339.2124	0.004367
339.4260	0.004957
339.6397	0.002848
339.8533	0.006032
340.0670	0.005400
340.2807	0.003966
340.4945	0.003144
340.7082	0.005400
340.9219	0.005358
341.1357	0.004409
341.3495	0.005168
341.5633	0.004240
341.7771	0.004641
341.9909	0.006749
342.2047	0.005632
342.4185	0.005316
342.6324	0.004198
342.8463	0.004620
343.0601	0.007024
343.2740	0.005041
343.4879	0.004957
343.7019	0.005737
343.9158	0.004894
344.1297	0.004957
344.3437	0.004683
344.5577	0.005590
344.7717	0.005547
344.9857	0.005990
345.1997	0.005210
345.4137	0.006370
345.6277	0.005547
345.8418	0.005168
346.0559	0.005484
346.2699	0.006855
346.4840	0.006075
346.6981	0.006665
346.9123	0.005590
347.1264	0.004535
347.3406	0.006581
347.5547	0.005885
347.7689	0.004514
347.9831	0.007002
348.1973	0.004809
348.4115	0.005737
348.6257	0.006475
348.8400	0.007045
349.0542	0.005843
349.2685	0.008120
349.4828	0.005716
349.6971	0.006918
349.9114	0.007171
350.1257	0.006201
350.3400	0.006665
350.5544	0.007066
350.7687	0.005695
350.9831	0.005400
351.1975	0.006517
351.4119	0.008078
351.6263	0.007487
351.8407	0.007150
352.0552	0.005695
352.2696	0.007066
352.4841	0.007909
352.6986	0.006075
352.9131	0.007825
353.1276	0.007804
353.3421	0.007867
353.5566	0.008036
353.7712	0.006770
353.9858	0.007213
354.2003	0.005927
354.4149	0.007909
354.6295	0.008710
354.8441	0.008837
355.0588	0.006918
355.2734	0.008078
355.4881	0.008985
355.7027	0.007129
355.9174	0.006201
356.1321	0.008331
356.3468	0.007340
356.5615	0.009132
356.7763	0.008225
356.9910	0.007466
357.2058	0.007867
357.4206	0.007298
357.6353	0.007361
357.8501	0.008521
358.0650	0.007698
358.2798	0.007698
358.4946	0.007234
358.7095	0.008795
358.9243	0.007424
359.1392	0.009174
359.3541	0.008057
359.5690	0.007846
359.7839	0.007656
359.9989	0.006897
360.2138	0.008310
360.4288	0.008563
360.6438	0.007762
360.8587	0.008963
361.0737	0.008963
361.2888	0.007255
361.5038	0.009322
361.7188	0.007572
361.9339	0.006834
362.1489	0.009870
362.3640	0.008268
362.5791	0.008795
362.7942	0.007614
363.0093	0.009301
363.2245	0.009195
363.4396	0.008584
363.6548	0.008120
363.8699	0.008015
364.0851	0.008015
364.3003	0.009322
364.5155	0.009090
364.7308	0.009048
364.9460	0.008985
365.1612	0.008753
365.3765	0.009006
365.5918	0.008795
365.8071	0.008542
366.0224	0.008668
366.2377	0.009216
366.4530	0.009153
366.6684	0.009132
366.8837	0.009006
367.0991	0.009933
367.3145	0.010566
367.5299	0.010018
367.7453	0.009195
367.9607	0.010081
368.1761	0.011030
368.3916	0.009786
368.6070	0.010081
368.8225	0.011051
369.0380	0.008563
369.2535	0.010165
369.4690	0.011557
369.6845	0.009828
369.9001	0.008162
370.1156	0.009111
370.3312	0.010482
370.5468	0.008162
370.7624	0.009470
370.9780	0.009533
371.1936	0.010840
371.4092	0.010355
371.6249	0.012886
371.8405	0.011178
372.0562	0.009744
372.2719	0.010735
372.4876	0.012738
372.7033	0.010081
372.9190	0.010629
373.1348	0.009807
373.3505	0.011578
373.5663	0.009912
373.7820	0.011473
373.9978	0.012105
374.2136	0.011536
374.4294	0.011388
374.6453	0.010060
374.8611	0.010882
375.0770	0.012337
375.2928	0.012780
375.5087	0.013244
375.7246	0.012042
375.9405	0.012991
376.1564	0.011641
376.3724	0.013202
376.5883	0.013771
376.8043	0.013834
377.0203	0.011578
377.2362	0.013919
377.4522	0.012886
377.6682	0.014109
377.8843	0.013877
378.1003	0.012654
378.3164	0.012759
378.5324	0.015353
378.7485	0.014825
378.9646	0.014762
379.1807	0.016112
379.3968	0.015374
379.6129	0.015332
379.8291	0.014404
380.0452	0.014699
380.2614	0.014572
380.4776	0.015542
380.6938	0.016091
380.9100	0.015732
381.1262	0.016365
381.3424	0.015774
381.5587	0.016323
381.7749	0.016048
381.9912	0.016301
382.2075	0.015774
382.4238	0.017630
382.6401	0.017040
382.8564	0.017293
383.0728	0.014446
383.2891	0.016386
383.5055	0.017377
383.7219	0.016934
383.9382	0.017609
384.1546	0.017862
384.3711	0.017524
384.5875	0.016259
384.8039	0.017061
385.0204	0.018874
385.2368	0.016976
385.4533	0.017040
385.6698	0.016808
385.8863	0.017778
386.1028	0.017524
386.3194	0.017356
386.5359	0.018705
386.7525	0.018284
386.9690	0.017883
387.1856	0.020898
387.4022	0.018305
387.6188	0.018895
387.8355	0.019064
388.0521	0.019486
388.2687	0.016850
388.4854	0.019486
388.7021	0.020477
388.9188	0.020519
389.1355	0.019359
389.3522	0.020034
389.5689	0.017841
389.7856	0.021362
390.0024	0.019675
390.2192	0.019275
390.4359	0.020224
390.6527	0.019654
390.8695	0.018748
391.0863	0.020434
391.3032	0.021088
391.5200	0.022269
391.7369	0.021847
391.9537	0.020455
392.1706	0.022227
392.3875	0.022754
392.6044	0.024378
392.8213	0.024251
393.0383	0.025643
393.2552	0.024778
393.4722	0.023155
393.6891	0.023534
393.9061	0.022606
394.1231	0.021278
394.3401	0.022838
394.5572	0.022480
394.7742	0.022986
394.9912	0.023471
395.2083	0.021805
395.4254	0.022712
395.6425	0.022353
395.8596	0.021995
396.0767	0.023829
396.2938	0.023387
396.5109	0.022986
396.7281	0.023450
396.9453	0.024462
397.1624	0.026929
397.3796	0.023007
397.5968	0.026254
397.8140	0.026824
398.0313	0.025854
398.2485	0.026592
398.4658	0.026887
398.6830	0.028595
398.9003	0.027730
399.1176	0.025811
399.3349	0.025664
399.5522	0.025706
399.7696	0.026971
399.9869	0.023956
400.2043	0.025116
400.4216	0.024167
400.6390	0.026507
400.8564	0.025242
401.0738	0.025263
401.2912	0.025537
401.5087	0.025010
401.7261	0.025664
401.9436	0.027983
402.1610	0.027751
402.3785	0.025769
402.5960	0.026381
402.8135	0.025601
403.0310	0.023935
403.2486	0.026086
403.4661	0.024905
403.6837	0.026929
403.9013	0.025284
404.1189	0.026254
404.3365	0.026339
404.5541	0.026170
404.7717	0.027056
404.9893	0.028510
405.2070	0.027836
405.4246	0.030113
405.6423	0.028932
405.8600	0.027667
406.0777	0.027583
406.2954	0.026191
406.5131	0.027878
406.7309	0.026423
406.9486	0.026022
407.1664	0.025643
407.3842	0.025369
407.6020	0.024588
407.8198	0.026992
408.0376	0.027013
408.2554	0.028152
408.4733	0.027309
408.6911	0.025790
408.9090	0.025179
409.1269	0.026360
409.3448	0.025980
409.5627	0.027941
409.7806	0.027056
409.9985	0.026360
410.2165	0.025622
410.4344	0.024884
410.6524	0.025643
410.8704	0.024989
411.0884	0.025811
411.3064	0.027498
411.5244	0.025369
411.7424	0.026296
411.9605	0.025073
412.1785	0.027393
412.3966	0.027794
412.6147	0.025685
412.8328	0.029080
413.0509	0.027751
413.2690	0.027562
413.4871	0.029776
413.7053	0.027287
413.9234	0.029670
414.1416	0.027920
414.3598	0.029417
414.5780	0.026423
414.7962	0.028110
415.0144	0.027920
415.2326	0.029333
415.4509	0.026318
415.6692	0.030240
415.8874	0.028152
416.1057	0.027456
416.3240	0.028300
416.5423	0.025980
416.7606	0.026824
416.9790	0.027330
417.1973	0.024863
417.4157	0.027899
417.6341	0.026402
417.8524	0.026001
418.0708	0.026613
418.2893	0.029354
418.5077	0.027224
418.7261	0.028553
418.9446	0.027330
419.1630	0.029354
419.3815	0.029270
419.6000	0.029291
419.8185	0.026802
420.0370	0.027604
420.2555	0.029101
420.4741	0.030408
420.6926	0.032960
420.9112	0.032348
421.1298	0.031610
421.3483	0.033234
421.5669	0.033951
421.7856	0.033466
422.0042	0.033803
422.2228	0.032201
422.4415	0.032369
422.6601	0.033550
422.8788	0.031547
423.0975	0.033276
423.3162	0.032770
423.5349	0.032032
423.7536	0.030999
423.9724	0.031884
424.1911	0.030935
424.4099	0.030514
424.6287	0.029881
424.8475	0.031083
425.0663	0.029944
425.2851	0.029712
425.5039	0.029080
425.7228	0.029797
425.9416	0.029185
426.1605	0.027477
426.3793	0.028004
426.5982	0.029628
426.8171	0.028953
427.0361	0.030366
427.2550	0.030893
427.4739	0.030914
427.6929	0.032348
427.9118	0.030472
428.1308	0.030092
428.3498	0.030429
428.5688	0.029987
428.7878	0.031188
429.0068	0.029185
429.2259	0.030703
429.4449	0.032327
429.6640	0.032369
429.8831	0.033466
430.1022	0.035532
430.3213	0.035574
430.5404	0.035364
430.7595	0.036755
430.9787	0.033782
431.1978	0.035490
431.4170	0.033761
431.6362	0.030809
431.8553	0.028679
432.0745	0.030071
432.2938	0.030071
432.5130	0.029607
432.7322	0.030218
432.9515	0.028721
433.1707	0.029987
433.3900	0.031062
433.6093	0.034689
433.8286	0.034457
434.0479	0.035933
434.2673	0.035511
434.4866	0.033234
434.7059	0.031842
434.9253	0.031631
435.1447	0.032348
435.3641	0.032327
435.5835	0.031863
435.8029	0.033782
436.0223	0.031062
436.2418	0.032770
436.4612	0.033698
436.6807	0.036629
436.9001	0.033550
437.1196	0.034014
437.3391	0.030956
437.5586	0.033255
437.7782	0.032749
437.9977	0.030746
438.2173	0.033149
438.4368	0.035026
438.6564	0.032770
438.8760	0.035111
439.0956	0.034731
439.3152	0.036038
439.5348	0.033761
439.7545	0.036397
439.9741	0.033993
440.1938	0.035574
440.4135	0.030155
440.6331	0.033529
440.8528	0.035490
441.0725	0.037451
441.2923	0.039602
441.5120	0.041521
441.7318	0.042659
441.9515	0.042132
442.1713	0.041162
442.3911	0.039813
442.6109	0.037852
442.8307	0.038695
443.0505	0.038105
443.2703	0.040192
443.4902	0.040867
443.7101	0.042491
443.9299	0.039623
444.1498	0.040551
444.3697	0.042997
444.5896	0.041500
444.8095	0.040361
445.0295	0.040741
445.2494	0.038653
445.4694	0.039201
445.6894	0.039475
445.9093	0.038632
446.1293	0.039286
446.3493	0.039496
446.5694	0.040593
446.7894	0.039918
447.0094	0.037915
447.2295	0.039644
447.4496	0.038906
447.6696	0.042132
447.8897	0.038020
448.1098	0.039981
448.3300	0.036608
448.5501	0.037135
448.7702	0.038400
448.9904	0.038843
449.2106	0.039054
449.4307	0.036987
449.6509	0.038316
449.8711	0.039560
450.0914	0.037641
450.3116	0.039075
450.5318	0.038780
450.7521	0.038295
450.9724	0.039370
451.1926	0.039011
451.4129	0.038463
451.6332	0.037072
451.8535	0.038400
452.0739	0.036249
452.2942	0.037093
452.5146	0.036650
452.7349	0.034604
452.9553	0.036924
453.1757	0.036460
453.3961	0.035216
453.6165	0.033719
453.8369	0.033719
454.0574	0.036207
454.2778	0.035469
454.4983	0.033719
454.7188	0.034689
454.9393	0.034162
455.1597	0.037936
455.3803	0.035933
455.6008	0.038126
455.8213	0.038674
456.0419	0.036207
456.2624	0.035406
456.4830	0.035785
456.7036	0.033613
456.9242	0.033761
457.1448	0.035153
457.3654	0.037156
457.5860	0.036671
457.8067	0.036080
458.0274	0.038316
458.2480	0.037641
458.4687	0.036102
458.6894	0.040530
458.9101	0.037894
459.1308	0.039855
459.3516	0.038864
459.5723	0.039412
459.7931	0.039412
460.0138	0.039391
460.2346	0.038632
460.4554	0.038231
460.6762	0.037008
460.8970	0.038548
461.1178	0.037451
461.3387	0.038674
461.5595	0.038042
461.7804	0.037472
462.0013	0.035047
462.2222	0.033993
462.4431	0.032686
462.6640	0.033149
462.8849	0.035342
463.1059	0.034499
463.3268	0.035638
463.5478	0.035996
463.7687	0.037936
463.9897	0.037367
464.2107	0.038758
464.4317	0.040530
464.6528	0.038780
464.8738	0.042617
465.0948	0.041057
465.3159	0.039960
465.5370	0.040234
465.7581	0.044473
465.9792	0.044367
466.2003	0.042406
466.4214	0.041942
466.6425	0.038632
466.8637	0.037535
467.0848	0.036102
467.3060	0.035870
467.5272	0.035975
467.7484	0.034225
467.9696	0.036376
468.1908	0.036312
468.4120	0.038210
468.6333	0.035047
468.8545	0.032538
469.0758	0.033930
469.2970	0.031758
469.5183	0.034119
469.7396	0.032011
469.9610	0.032116
470.1823	0.032875
470.4036	0.031020
470.6250	0.030366
470.8463	0.030725
471.0677	0.031610
471.2891	0.029776
471.5105	0.029459
471.7319	0.033002
471.9533	0.030556
472.1748	0.033086
472.3962	0.032559
472.6177	0.032960
472.8391	0.032580
473.0606	0.033550
473.2821	0.033634
473.5036	0.034626
473.7251	0.034815
473.9467	0.035722
474.1682	0.036945
474.3898	0.035047
474.6113	0.035406
474.8329	0.035975
475.0545	0.035870
475.2761	0.038737
475.4977	0.038042
475.7193	0.035617
475.9410	0.037346
476.1626	0.035511
476.3843	0.034330
476.6060	0.035912
476.8277	0.036376
477.0494	0.034647
477.2711	0.037008
477.4928	0.034604
477.7145	0.034520
477.9363	0.037852
478.1580	0.036207
478.3798	0.037957
478.6016	0.034984
478.8234	0.037029
479.0452	0.035764
479.2670	0.036608
479.4888	0.035701
479.7107	0.037135
479.9325	0.037346
480.1544	0.039454
480.3763	0.038379
480.5982	0.038695
480.8201	0.038442
481.0420	0.037704
481.2639	0.039581
481.4859	0.039560
481.7078	0.041942
481.9298	0.040108
482.1517	0.039855
482.3737	0.039180
482.5957	0.036439
482.8177	0.036692
483.0398	0.035406
483.2618	0.035996
483.4838	0.038526
483.7059	0.040256
483.9280	0.039454
484.1501	0.040087
484.3721	0.041774
484.5943	0.043524
484.8164	0.045485
485.0385	0.044473
485.2606	0.045611
485.4828	0.063134
485.7050	0.101870
485.9271	0.142229
486.1493	0.148112
486.3715	0.124959
486.5937	0.095776
486.8160	0.084031
487.0382	0.075660
487.2605	0.069671
487.4827	0.057631
487.7050	0.050440
487.9273	0.046160
488.1496	0.043777
488.3719	0.041837
488.5942	0.040719
488.8165	0.040719
489.0389	0.039707
489.2612	0.039159
489.4836	0.040403
489.7060	0.040234
489.9284	0.041141
490.1508	0.039686
490.3732	0.039707
490.5956	0.038400
490.8180	0.038906
491.0405	0.040298
491.2630	0.038611
491.4854	0.037852
491.7079	0.037325
491.9304	0.039286
492.1529	0.036987
492.3755	0.040298
492.5980	0.040087
492.8205	0.037746
493.0431	0.038632
493.2657	0.038105
493.4882	0.039981
493.7108	0.042280
493.9334	0.040150
494.1561	0.038231
494.3787	0.038484
494.6013	0.038906
494.8240	0.037936
495.0466	0.038020
495.2693	0.037050
495.4920	0.034879
495.7147	0.036861
495.9374	0.037599
496.1601	0.039496
496.3829	0.042470
496.6056	0.043608
496.8284	0.040551
497.0511	0.041985
497.2739	0.039876
497.4967	0.039222
497.7195	0.037915
497.9423	0.037557
498.1652	0.037978
498.3880	0.036502
498.6109	0.037978
498.8337	0.039686
499.0566	0.041057
499.2795	0.040593
499.5024	0.041141
499.7253	0.040466
499.9482	0.040909
500.1712	0.039834
500.3941	0.037725
500.6171	0.037514
500.8400	0.036123
501.0630	0.040277
501.2860	0.040551
501.5090	0.041668
501.7320	0.041120
501.9551	0.041500
502.1781	0.039813
502.4012	0.042196
502.6242	0.042702
502.8473	0.043861
503.0704	0.040129
503.2935	0.042680
503.5166	0.042364
503.7397	0.041120
503.9628	0.039391
504.1860	0.041141
504.4092	0.036587
504.6323	0.037873
504.8555	0.037662
505.0787	0.036102
505.3019	0.038379
505.5251	0.041141
505.7483	0.038126
505.9716	0.038505
506.1948	0.039370
506.4181	0.039728
506.6414	0.041753
506.8647	0.041774
507.0880	0.037557
507.3113	0.036355
507.5346	0.034836
507.7579	0.036713
507.9813	0.038231
508.2046	0.037852
508.4280	0.036776
508.6514	0.036270
508.8748	0.037282
509.0982	0.037873
509.3216	0.039159
509.5450	0.035659
509.7685	0.035785
509.9919	0.038273
510.2154	0.034857
510.4388	0.032918
510.6623	0.036418
510.8858	0.036840
511.1093	0.034562
511.3329	0.035659
511.5564	0.035827
511.7799	0.037725
512.0035	0.036755
512.2270	0.035595
512.4506	0.033171
512.6742	0.035089
512.8978	0.035469
513.1214	0.033550
513.3451	0.034626
513.5687	0.034478
513.7923	0.034309
514.0160	0.034056
514.2397	0.034436
514.4634	0.034077
514.6871	0.033276
514.9108	0.032728
515.1345	0.033276
515.3582	0.031610
515.5819	0.032475
515.8057	0.031210
516.0295	0.031188
516.2532	0.032728
516.4770	0.031231
516.7008	0.032875
516.9246	0.032137
517.1485	0.031589
517.3723	0.032243
517.5961	0.031631
517.8200	0.031610
518.0439	0.030472
518.2677	0.031273
518.4916	0.031125
518.7155	0.030872
518.9395	0.030767
519.1634	0.032559
519.3873	0.031357
519.6113	0.030830
519.8352	0.032264
520.0592	0.031779
520.2832	0.028995
520.5072	0.027962
520.7312	0.027730
520.9552	0.027688
521.1792	0.030092
521.4033	0.027962
521.6273	0.028384
521.8514	0.027730
522.0755	0.028510
522.2996	0.028025
522.5237	0.029101
522.7478	0.028426
522.9719	0.027983
523.1960	0.028995
523.4202	0.030408
523.6443	0.027667
523.8685	0.029038
524.0927	0.030155
524.3169	0.030176
524.5411	0.026549
524.7653	0.026908
524.9895	0.027140
525.2138	0.028068
525.4380	0.025664
525.6623	0.029755
525.8865	0.028131
526.1108	0.026444
526.3351	0.028764
526.5594	0.027751
526.7837	0.030176
527.0081	0.028426
527.2324	0.030113
527.4568	0.030155
527.6811	0.028468
527.9055	0.027730
528.1299	0.027435
528.3543	0.027920
528.5787	0.029776
528.8031	0.029944
529.0276	0.031737
529.2520	0.031463
529.4765	0.032433
529.7009	0.030008
529.9254	0.029143
530.1499	0.031926
530.3744	0.030450
530.5989	0.030535
530.8234	0.028489
531.0480	0.029101
531.2725	0.029101
531.4971	0.028721
531.7217	0.030429
531.9462	0.027309
532.1708	0.028236
532.3954	0.028679
532.6200	0.029586
532.8447	0.030071
533.0693	0.028848
533.2940	0.031948
533.5186	0.034056
533.7433	0.033234
533.9680	0.032475
534.1927	0.033887
534.4174	0.034879
534.6421	0.033909
534.8668	0.035132
535.0916	0.035448
535.3163	0.032306
535.5411	0.034351
535.7659	0.034626
535.9907	0.033213
536.2155	0.033487
536.4403	0.029860
536.6651	0.031399
536.8899	0.031125
537.1148	0.028068
537.3396	0.031589
537.5645	0.029017
537.7894	0.030345
538.0143	0.034098
538.2392	0.031884
538.4641	0.035722
538.6890	0.034499
538.9139	0.034689
539.1389	0.035258
539.3638	0.035427
539.5888	0.034921
539.8138	0.034879
540.0388	0.035680
540.2638	0.034836
540.4888	0.032643
540.7138	0.034351
540.9389	0.035532
541.1639	0.035047
541.3890	0.036249
541.6140	0.036376
541.8391	0.034857
542.0642	0.036797
542.2893	0.035279
542.5144	0.036017
542.7396	0.036818
542.9647	0.036418
543.1899	0.035089
543.4150	0.036228
543.6402	0.036144
543.8654	0.037472
544.0906	0.036840
544.3158	0.038189
544.5410	0.037788
544.7662	0.036587
544.9915	0.039728
545.2167	0.039749
545.4420	0.038168
545.6673	0.034836
545.8926	0.034857
546.1179	0.035258
546.3432	0.035490
546.5685	0.036017
546.7938	0.036249
547.0192	0.035427
547.2445	0.038042
547.4699	0.037451
547.6953	0.038990
547.9206	0.041310
548.1460	0.043503
548.3715	0.042744
548.5969	0.042280
548.8223	0.041226
549.0478	0.040382
549.2732	0.035321
549.4987	0.036882
549.7242	0.035722
549.9496	0.036355
550.1751	0.037430
550.4007	0.035511
550.6262	0.036059
550.8517	0.033740
551.0773	0.033445
551.3028	0.033192
551.5284	0.033107
551.7540	0.035511
551.9796	0.036818
552.2052	0.039243
552.4308	0.040825
552.6564	0.040551
552.8820	0.038864
553.1077	0.037219
553.3333	0.038885
553.5590	0.038442
553.7847	0.038737
554.0104	0.039918
554.2361	0.038231
554.4618	0.036523
554.6875	0.036502
554.9132	0.034942
555.1390	0.038358
555.3648	0.037852
555.5905	0.040445
555.8163	0.038653
556.0421	0.041352
556.2679	0.041584
556.4937	0.040382
556.7195	0.038189
556.9454	0.039159
557.1712	0.037303
557.3971	0.039475
557.6230	0.037978
557.8488	0.040466
558.0747	0.040213
558.3006	0.037514
558.5266	0.038442
558.7525	0.033930
558.9784	0.035743
559.2044	0.034836
559.4303	0.036186
559.6563	0.033993
559.8823	0.036460
560.1083	0.037303
560.3343	0.040087
560.5603	0.043039
560.7863	0.044346
561.0124	0.045253
561.2384	0.047509
561.4645	0.045865
561.6905	0.045843
561.9166	0.044262
562.1427	0.043208
562.3688	0.043292
562.5949	0.040698
562.8211	0.042153
563.0472	0.042617
563.2733	0.042048
563.4995	0.043165
563.7257	0.042280
563.9519	0.046813
564.1781	0.043967
564.4043	0.044220
564.6305	0.046054
564.8567	0.042449
565.0829	0.044937
565.3092	0.046919
565.5355	0.047362
565.7617	0.047889
565.9880	0.047172
566.2143	0.048247
566.4406	0.048079
566.6669	0.047003
566.8932	0.046666
567.1196	0.053751
567.3459	0.055480
567.5723	0.058769
567.7987	0.059676
568.0250	0.060794
568.2514	0.062797
568.4778	0.065180
568.7043	0.068933
568.9307	0.075723
569.1571	0.079202
569.3836	0.083567
569.6100	0.090462
569.8365	0.097378
570.0630	0.106382
570.2895	0.109609
570.5160	0.107669
570.7425	0.110832
570.9690	0.114416
571.1956	0.125655
571.4221	0.132782
571.6487	0.130104
571.8752	0.133415
572.1018	0.139193
572.3284	0.137379
572.5550	0.126794
572.7816	0.116293
573.0082	0.118317
573.2349	0.124158
573.4615	0.136051
573.6882	0.146130
573.9149	0.150073
574.1415	0.155535
574.3682	0.163294
574.5949	0.162493
574.8216	0.165382
575.0484	0.166942
575.2751	0.168587
575.5018	0.165508
575.7286	0.159119
575.9554	0.148281
576.1821	0.146552
576.4089	0.150790
576.6357	0.161650
576.8626	0.170421
577.0894	0.173416
577.3162	0.173121
577.5431	0.181597
577.7699	0.202958
577.9968	0.226701
578.2237	0.224234
578.4505	0.206880
578.6774	0.195367
578.9044	0.183010
579.1313	0.173015
579.3582	0.173416
579.5851	0.181576
579.8121	0.182462
580.0391	0.185308
580.2660	0.185098
580.4930	0.187459
580.7200	0.178624
580.9470	0.182462
581.1741	0.219279
581.4011	0.259849
581.6281	0.282348
581.8552	0.288821
582.0822	0.279649
582.3093	0.264783
582.5364	0.251562
582.7635	0.223896
582.9906	0.205615
583.2177	0.191908
583.4449	0.174533
583.6720	0.164707
583.8991	0.159393
584.1263	0.161839
584.3535	0.164918
584.5807	0.171455
584.8079	0.181597
585.0351	0.194080
585.2623	0.201060
585.4895	0.204581
585.7167	0.200343
585.9440	0.196379
586.1713	0.182462
586.3985	0.170063
586.6258	0.163568
586.8531	0.171160
587.0804	0.180290
587.3077	0.188619
587.5350	0.189526
587.7624	0.187164
587.9897	0.176853
588.2171	0.170400
588.4445	0.169304
588.6718	0.163864
588.8992	0.159520
589.1266	0.142313
589.3540	0.137063
589.5815	0.134111
589.8089	0.134469
590.0363	0.129514
590.2638	0.127764
590.4913	0.123863
590.7187	0.118170
590.9462	0.113088
591.1737	0.105033
591.4012	0.105623
591.6288	0.106087
591.8563	0.108006
592.0838	0.105581
592.3114	0.112497
592.5389	0.123968
592.7665	0.151106
592.9941	0.167385
593.2217	0.167554
593.4493	0.163062
593.6769	0.161354
593.9046	0.157959
594.1322	0.149103
594.3598	0.138455
594.5875	0.138750
594.8152	0.146889
595.0429	0.155471
595.2705	0.155450
595.4983	0.154839
595.7260	0.142356
595.9537	0.137801
596.1814	0.128249
596.4092	0.120341
596.6369	0.113741
596.8647	0.113509
597.0925	0.116630
597.3203	0.118507
597.5481	0.120763
597.7759	0.118781
598.0037	0.114037
598.2315	0.109988
598.4594	0.109587
598.6872	0.125993
598.9151	0.142609
599.1430	0.146425
599.3709	0.145729
599.5988	0.140331
599.8267	0.140627
600.0546	0.142124
600.2825	0.146594
600.5105	0.146425
600.7384	0.141765
600.9664	0.145772
601.1944	0.149525
601.4223	0.148260
601.6503	0.135798
601.8783	0.132825
602.1064	0.129788
602.3344	0.130505
602.5624	0.126646
602.7905	0.130885
603.0185	0.134912
603.2466	0.142946
603.4747	0.148935
603.7028	0.147079
603.9309	0.143684
604.1590	0.133626
604.3871	0.128038
604.6152	0.127574
604.8434	0.119856
605.0715	0.119730
605.2997	0.123779
605.5279	0.128312
605.7561	0.133035
605.9843	0.137674
606.2125	0.130104
606.4407	0.127342
606.6689	0.120616
606.8972	0.121164
607.1254	0.121586
607.3537	0.125803
607.5819	0.126372
607.8102	0.121543
608.0385	0.119941
608.2668	0.115260
608.4951	0.116209
608.7235	0.113088
608.9518	0.112223
609.1801	0.106678
609.4085	0.102882
609.6369	0.102798
609.8653	0.108238
610.0936	0.115534
610.3220	0.119371
610.5505	0.112244
610.7789	0.108955
611.0073	0.106614
611.2357	0.104105
611.4642	0.105476
611.6927	0.104590
611.9211	0.104927
612.1496	0.100879
612.3781	0.098433
612.6066	0.098960
612.8351	0.101427
613.0637	0.097779
613.2922	0.099508
613.5208	0.097378
613.7493	0.100478
613.9779	0.099255
614.2065	0.098854
614.4351	0.097378
614.6637	0.096872
614.8923	0.094237
615.1209	0.095481
615.3495	0.099445
615.5782	0.097779
615.8068	0.101785
616.0355	0.096535
616.2642	0.092634
616.4929	0.085212
616.7216	0.087510
616.9503	0.081121
617.1790	0.082154
617.4077	0.082871
617.6365	0.085022
617.8652	0.083693
618.0940	0.085907
618.3227	0.082597
618.5515	0.078548
618.7803	0.072201
619.0091	0.067520
619.2379	0.068111
619.4667	0.067710
619.6956	0.069481
619.9244	0.070999
620.1533	0.076271
620.3821	0.077304
620.6110	0.072370
620.8399	0.066086
621.0688	0.059086
621.2977	0.056513
621.5266	0.057188
621.7556	0.059233
621.9845	0.063514
622.2135	0.062987
622.4424	0.060688
622.6714	0.063914
622.9004	0.065517
623.1294	0.067583
623.3584	0.071484
623.5874	0.069776
623.8164	0.066150
624.0454	0.065222
624.2745	0.065074
624.5035	0.067647
624.7326	0.071295
624.9617	0.068659
625.1908	0.065622
625.4199	0.064779
625.6490	0.062417
625.8781	0.059950
626.1072	0.059360
626.3364	0.057546
626.5655	0.056302
626.7947	0.054151
627.0238	0.052823
627.2530	0.053920
627.4822	0.055037
627.7114	0.054151
627.9406	0.052675
628.1698	0.049702
628.3991	0.046244
628.6283	0.042554
628.8576	0.043545
629.0868	0.046033
629.3161	0.046708
629.5454	0.049070
629.7747	0.049744
630.0040	0.048521
630.2333	0.045401
630.4626	0.045253
630.6920	0.042111
630.9213	0.044135
631.1507	0.041563
631.3801	0.042385
631.6094	0.040719
631.8388	0.042153
632.0682	0.039011
632.2976	0.039728
632.5271	0.037999
632.7565	0.034478
632.9859	0.035174
633.2154	0.033845
633.4448	0.034035
633.6743	0.033149
633.9038	0.034499
634.1333	0.033107
634.3628	0.033128
634.5923	0.032454
634.8218	0.032601
635.0514	0.030999
635.2809	0.031631
635.5105	0.030429
635.7400	0.032791
635.9696	0.032728
636.1992	0.034900
636.4288	0.036481
636.6584	0.035511
636.8880	0.034162
637.1177	0.033192
637.3473	0.031484
637.5770	0.031652
637.8066	0.029291
638.0363	0.032454
638.2660	0.031758
638.4957	0.033824
638.7254	0.032095
638.9551	0.032643
639.1848	0.030577
639.4145	0.030176
639.6443	0.029179
639.8740	0.026288
640.1038	0.028978
640.3336	0.028512
640.5633	0.028654
640.7931	0.027030
641.0229	0.025606
641.2528	0.027774
641.4826	0.025173
641.7124	0.025089
641.9423	0.023694
642.1721	0.024833
642.4020	0.023384
642.6319	0.025826
642.8617	0.023488
643.0916	0.023530
643.3216	0.021808
643.5515	0.023333
643.7814	0.021897
644.0113	0.023530
644.2413	0.019293
644.4712	0.020573
644.7012	0.019822
644.9312	0.020012
645.1612	0.021870
645.3912	0.023358
645.6212	0.020671
645.8512	0.020854
646.0812	0.019949
646.3113	0.019485
646.5413	0.020028
646.7714	0.020069
647.0015	0.019014
647.2316	0.017230
647.4616	0.018359
647.6918	0.020837
647.9219	0.021487
648.1520	0.022835
648.3821	0.023915
648.6123	0.024199
648.8424	0.026714
649.0726	0.027423
649.3028	0.026081
649.5329	0.024586
649.7631	0.026245
649.9933	0.025045
650.2236	0.025035
650.4538	0.022157
650.6840	0.020687
650.9143	0.022182
651.1445	0.022064
651.3748	0.022993
651.6051	0.021500
651.8354	0.022255
652.0657	0.025231
652.2960	0.023885
652.5263	0.024365
652.7566	0.024181
652.9870	0.025057
653.2173	0.024190
653.4477	0.024641
653.6780	0.025897
653.9084	0.025512
654.1388	0.025205
654.3692	0.025726
654.5996	0.028329
654.8300	0.031429
655.0605	0.047140
655.2909	0.125767
655.5213	0.377066
655.7518	0.764028
655.9823	0.993637
656.2128	1.000000
656.4433	1.000000
656.6738	0.950989
656.9043	0.807008
657.1348	0.643003
657.3653	0.516771
657.5959	0.443239
657.8264	0.388582
658.0570	0.345393
658.2875	0.308252
658.5181	0.283977
658.7487	0.269139
658.9793	0.247876
659.2099	0.199719
659.4406	0.143402
659.6712	0.086641
659.9018	0.051974
660.1325	0.035886
660.3632	0.025100
660.5938	0.021251
660.8245	0.020469
661.0552	0.017816
661.2859	0.018683
661.5166	0.016537
661.7474	0.018157
661.9781	0.016054
662.2088	0.018119
662.4396	0.018237
662.6704	0.016778
662.9011	0.016493
663.1319	0.016908
663.3627	0.017488
663.5935	0.015456
663.8243	0.015555
664.0552	0.016589
664.2860	0.016803
664.5168	0.016479
664.7477	0.018245
664.9786	0.018935
665.2094	0.018743
665.4403	0.018479
665.6712	0.018876
665.9021	0.018711
666.1330	0.017748
666.3640	0.017474
666.5949	0.017986
666.8259	0.017017
667.0568	0.017081
667.2878	0.017085
667.5188	0.017255
667.7497	0.016959
667.9807	0.016183
668.2117	0.015794
668.4428	0.016428
668.6738	0.014868
668.9048	0.016723
669.1359	0.013834
669.3669	0.015142
669.5980	0.016829
669.8291	0.015880
670.0602	0.017208
670.2913	0.017630
670.5224	0.016365
670.7535	0.016154
670.9846	0.016365
671.2157	0.016660
671.4469	0.020097
671.6781	0.022501
671.9092	0.022248
672.1404	0.026802
672.3716	0.026064
672.6028	0.027498
672.8340	0.025221
673.0652	0.023724
673.2964	0.022880
673.5277	0.024525
673.7589	0.024230
673.9902	0.023555
674.2214	0.021974
674.4527	0.021257
674.6840	0.021172
674.9153	0.021910
675.1466	0.021510
675.3779	0.020055
675.6093	0.021573
675.8406	0.020139
676.0719	0.020434
676.3033	0.018284
676.5347	0.018874
676.7661	0.017672
676.9974	0.017778
677.2288	0.020034
677.4602	0.020308
677.6917	0.019886
677.9231	0.022121
678.1545	0.023049
678.3860	0.022185
678.6174	0.023302
678.8489	0.022332
679.0804	0.022986
679.3119	0.022501
679.5434	0.027056
679.7749	0.027962
680.0064	0.028342
680.2379	0.026128
680.4694	0.030345
680.7010	0.026254
680.9325	0.026086
681.1641	0.026318
681.3957	0.025833
681.6273	0.027772
681.8589	0.028236
682.0905	0.025727
682.3221	0.025896
682.5537	0.024799
682.7854	0.022648
683.0170	0.022206
683.2487	0.021784
683.4803	0.024272
683.7120	0.024567
683.9437	0.023597
684.1754	0.024757
684.4071	0.027878
684.6388	0.029206
684.8705	0.028785
685.1023	0.032053
685.3340	0.032749
685.5658	0.034246
685.7975	0.036376
686.0293	0.032981
686.2611	0.033445
686.4929	0.033213
686.7247	0.031378
686.9565	0.032201
687.1883	0.034077
687.4202	0.035427
687.6520	0.033255
687.8838	0.031420
688.1157	0.030008
688.3476	0.029438
688.5795	0.027498
688.8114	0.028700
689.0433	0.028236
689.2752	0.029164
689.5071	0.027119
689.7390	0.028742
689.9710	0.026971
690.2029	0.025938
690.4349	0.024905
690.6669	0.027899
690.8988	0.026592
691.1308	0.027056
691.3628	0.029354
691.5948	0.029438
691.8269	0.027519
692.0589	0.029670
692.2909	0.029649
692.5230	0.028173
692.7550	0.029902
692.9871	0.029249
693.2192	0.029586
693.4513	0.030366
693.6834	0.027794
693.9155	0.029923
694.1476	0.026043
694.3797	0.027667
694.6119	0.027393
694.8440	0.026170
695.0762	0.024947
695.3083	0.026318
695.5405	0.024989
695.7727	0.022606
696.0049	0.021995
696.2371	0.021362
696.4693	0.023534
696.7016	0.026191
696.9338	0.030514
697.1660	0.030387
697.3983	0.031294
697.6306	0.029733
697.8628	0.030324
698.0951	0.030092
698.3274	0.028553
698.5597	0.027646
698.7920	0.027646
699.0243	0.028342
699.2567	0.027857
699.4890	0.026043
699.7214	0.027393
699.9537	0.027098
700.1861	0.024293
700.4185	0.022438
700.6509	0.024314
700.8833	0.022438
701.1157	0.022564
701.3481	0.020055
701.5806	0.021868
701.8130	0.023007
702.0454	0.023112
702.2779	0.022585
702.5104	0.022206
702.7429	0.024588
702.9753	0.022606
703.2078	0.022775
703.4403	0.021657
703.6729	0.019739
703.9054	0.022606
704.1379	0.019907
704.3705	0.020983
704.6030	0.022480
704.8356	0.020034
705.0682	0.020013
705.3008	0.018642
705.5334	0.016808
705.7660	0.017714
705.9986	0.017440
706.2312	0.022627
706.4638	0.023787
706.6965	0.027077
706.9291	0.026781
707.1618	0.027983
707.3945	0.028553
707.6272	0.030556
707.8599	0.029396
708.0926	0.028742
708.3253	0.031020
708.5580	0.026824
708.7907	0.027393
709.0235	0.027414
709.2562	0.026022
709.4890	0.025390
709.7217	0.024462
709.9545	0.024799
710.1873	0.026486
710.4201	0.025706
710.6529	0.027541
710.8857	0.027098
711.1186	0.024610
711.3514	0.023661
711.5842	0.023176
711.8171	0.023703
712.0500	0.022206
712.2828	0.022754
712.5157	0.021784
712.7486	0.023408
712.9815	0.022185
713.2144	0.023408
713.4474	0.024757
713.6803	0.025474
713.9132	0.025221
714.1462	0.026528
714.3791	0.026381
714.6121	0.024841
714.8451	0.028089
715.0781	0.028363
715.3111	0.028405
715.5441	0.028215
715.7771	0.025242
716.0102	0.023724
716.2432	0.024314
716.4762	0.021679
716.7093	0.021594
716.9424	0.020983
717.1754	0.022374
717.4085	0.020877
717.6416	0.020329
717.8747	0.020687
718.1078	0.022522
718.3410	0.023703
718.5741	0.021784
718.8072	0.023197
719.0404	0.021826
719.2736	0.024483
719.5067	0.021067
719.7399	0.022923
719.9731	0.020709
720.2063	0.022016
720.4395	0.020666
720.6727	0.022754
720.9060	0.023914
721.1392	0.022100
721.3725	0.023387
721.6057	0.022606
721.8390	0.023513
722.0723	0.022838
722.3055	0.024335
722.5388	0.021025
722.7721	0.020856
723.0055	0.020519
723.2388	0.021468
723.4721	0.021257
723.7055	0.021615
723.9388	0.022712
724.1722	0.021847
724.4056	0.020835
724.6389	0.019675
724.8723	0.022163
725.1057	0.024356
725.3391	0.025284
725.5726	0.025664
725.8060	0.026296
726.0394	0.026718
726.2729	0.026128
726.5063	0.026191
726.7398	0.024968
726.9733	0.024040
727.2068	0.025010
727.4403	0.022691
727.6738	0.025875
727.9073	0.025432
728.1408	0.026971
728.3743	0.026465
728.6079	0.028426
728.8414	0.025706
729.0750	0.025390
729.3086	0.028215
729.5421	0.027667
729.7757	0.029122
730.0093	0.028679
730.2429	0.027456
730.4766	0.031146
730.7102	0.031104
730.9438	0.031863
731.1775	0.032580
731.4111	0.032411
731.6448	0.033866
731.8785	0.032222
732.1122	0.031589
732.3458	0.030661
732.5795	0.031378
732.8133	0.031463
733.0470	0.034372
733.2807	0.034900
733.5145	0.033803
733.7482	0.034520
733.9820	0.034900
734.2157	0.037788
734.4495	0.041120
734.6833	0.038927
734.9171	0.036228
735.1509	0.036439
735.3847	0.035595
735.6185	0.037620
735.8524	0.037472
736.0862	0.038927
736.3201	0.036165
736.5539	0.035764
736.7878	0.038653
737.0217	0.036903
737.2556	0.036629
737.4895	0.036059
737.7234	0.034963
737.9573	0.033276
738.1912	0.030535
738.4252	0.030429
738.6591	0.032896
738.8931	0.033571
739.1271	0.033318
739.3610	0.034984
739.5950	0.035237
739.8290	0.035532
740.0630	0.033107
740.2970	0.033086
740.5310	0.030703
740.7651	0.030598
740.9991	0.028257
741.2332	0.026908
741.4672	0.027794
741.7013	0.025094
741.9354	0.026296
742.1695	0.026465
742.4036	0.026402
742.6377	0.027456
742.8718	0.028047
743.1059	0.025833
743.3400	0.025305
743.5742	0.022754
743.8083	0.024293
744.0425	0.023956
744.2767	0.022100
744.5108	0.023829
744.7450	0.024082
744.9792	0.022332
745.2134	0.020877
745.4477	0.023112
745.6819	0.021594
745.9161	0.019760
746.1504	0.022754
746.3846	0.023049
746.6189	0.019949
746.8532	0.021194
747.0874	0.022965
747.3217	0.024462
747.5560	0.023344
747.7903	0.024884
748.0247	0.022712
748.2590	0.020540
748.4933	0.023914
748.7277	0.022564
748.9620	0.022480
749.1964	0.025453
749.4308	0.024378
749.6652	0.025959
749.8995	0.029017
750.1339	0.029544
750.3684	0.031252
750.6028	0.032327
750.8372	0.030535
751.0717	0.030893
751.3061	0.029227
751.5406	0.029544
751.7750	0.032369
752.0095	0.029143
752.2440	0.030809
752.4785	0.030746
752.7130	0.027034
752.9475	0.027309
753.1820	0.028384
753.4166	0.028553
753.6511	0.032327
753.8856	0.034668
754.1202	0.032201
754.3548	0.032243
754.5894	0.028827
754.8239	0.032011
755.0585	0.031020
755.2931	0.032285
755.5278	0.030978
755.7624	0.033571
755.9970	0.035321
756.2317	0.034689
756.4663	0.036038
756.7010	0.041141
756.9356	0.038252
757.1703	0.040403
757.4050	0.045380
757.6397	0.044325
757.8744	0.047699
758.1091	0.045042
758.3438	0.043144
758.5786	0.042174
758.8133	0.039011
759.0481	0.041373
759.2828	0.041268
759.5176	0.045127
759.7524	0.045042
759.9872	0.044051
760.2220	0.046792
760.4568	0.047636
760.6916	0.050630
760.9264	0.049660
761.1613	0.047298
761.3961	0.047699
761.6310	0.040403
761.8658	0.039033
762.1007	0.037810
762.3356	0.036312
762.5705	0.035406
762.8054	0.037050
763.0403	0.034921
763.2752	0.039117
763.5101	0.035047
763.7450	0.038168
763.9800	0.037093
764.2149	0.039518
764.4499	0.042891
764.6849	0.044367
764.9198	0.044135
765.1548	0.045443
765.3898	0.040783
765.6248	0.041162
765.8599	0.040087
766.0949	0.037683
766.3299	0.036376
766.5650	0.033318
766.8000	0.031294
767.0351	0.028806
767.2701	0.029396
767.5052	0.027920
767.7403	0.030134
767.9754	0.029733
768.2105	0.032475
768.4456	0.033866
768.6808	0.035385
768.9159	0.037873
769.1510	0.038400
769.3862	0.035743
769.6214	0.033171
769.8565	0.034478
770.0917	0.033086
770.3269	0.034077
770.5621	0.035490
770.7973	0.035195
771.0325	0.036228
771.2677	0.035912
771.5030	0.035722
771.7382	0.035827
771.9735	0.031926
772.2087	0.031758
772.4440	0.030176
772.6793	0.030872
772.9146	0.031378
773.1499	0.031378
773.3852	0.030324
773.6205	0.028236
773.8558	0.028574
774.0911	0.026845
774.3265	0.025010
774.5618	0.024525
774.7972	0.023682
775.0326	0.023070
775.2679	0.022480
775.5033	0.021679
775.7387	0.021320
775.9741	0.022944
776.2095	0.021215
776.4450	0.022016
776.6804	0.020434
776.9158	0.019760
777.1513	0.020477
777.3868	0.018073
777.6222	0.018684
777.8577	0.018516
778.0932	0.018347
778.3287	0.019528
778.5642	0.021700
778.7997	0.020645
779.0352	0.022374
779.2707	0.023576
779.5063	0.025348
779.7418	0.023218
779.9774	0.021573
780.2130	0.020814
780.4485	0.021172
780.6841	0.022543
780.9197	0.024947
781.1553	0.025854
781.3909	0.027182
781.6265	0.027013
781.8622	0.026191
782.0978	0.026802
782.3335	0.027836
782.5691	0.027140
782.8048	0.026339
783.0405	0.025622
783.2761	0.026170
783.5118	0.027287
783.7475	0.027013
783.9832	0.027962
784.2190	0.023133
784.4547	0.021868
784.6904	0.022712
784.9262	0.021805
785.1619	0.021995
785.3977	0.023239
785.6335	0.023133
785.8692	0.021784
786.1050	0.023007
786.3408	0.021278
786.5766	0.022100
786.8124	0.020919
787.0483	0.022269
787.2841	0.021004
787.5199	0.022986
787.7558	0.022585
787.9917	0.023302
788.2275	0.023618
788.4634	0.023429
788.6993	0.023682
788.9352	0.024019
789.1711	0.024230
789.4070	0.022606
789.6429	0.022585
789.8789	0.019570
790.1148	0.021151
790.3507	0.020034
790.5867	0.019422
790.8227	0.018874
791.0586	0.018389
791.2946	0.019106
791.5306	0.017735
791.7666	0.019232
792.0026	0.017756
792.2387	0.014783
792.4747	0.016765
792.7107	0.016639
792.9468	0.016850
793.1828	0.016681
793.4189	0.015015
793.6550	0.018726
793.8910	0.019739
794.1271	0.023555
794.3632	0.024293
794.5993	0.026107
794.8355	0.024715
795.0716	0.024694
795.3077	0.025137
795.5439	0.022796
795.7800	0.021362
796.0162	0.020097
796.2523	0.020455
796.4885	0.017904
796.7247	0.016175
796.9609	0.015690
797.1971	0.016934
797.4333	0.015163
797.6695	0.016344
797.9058	0.018916
798.1420	0.017609
798.3783	0.017503
798.6145	0.017040
798.8508	0.017377
799.0871	0.016470
799.3233	0.015795
799.5596	0.016786
799.7959	0.016723
800.0322	0.016259
800.2686	0.015732
800.5049	0.014678
800.7412	0.017061
800.9776	0.015711
801.2139	0.015585
801.4503	0.013708
801.6867	0.013455
801.9230	0.012401
802.1594	0.013223
802.3958	0.013792
802.6322	0.013919
802.8686	0.012822
803.1051	0.013834
803.3415	0.013202
803.5779	0.016491
803.8144	0.014868
804.0508	0.013855
804.2873	0.011768
804.5238	0.012675
804.7603	0.012443
804.9968	0.014446
805.2333	0.013054
805.4698	0.011030
805.7063	0.014256
805.9428	0.013096
806.1794	0.014699
806.4159	0.019338
806.6525	0.018811
806.8890	0.018958
807.1256	0.016808
807.3622	0.017166
807.5988	0.017967
807.8354	0.019654
808.0720	0.017567
808.3086	0.017335
808.5452	0.017778
808.7818	0.019401
809.0185	0.017651
809.2551	0.015627
809.4918	0.016280
809.7284	0.016027
809.9651	0.014678
810.2018	0.016913
810.4385	0.014235
810.6752	0.013982
810.9119	0.013961
811.1486	0.013413
811.3853	0.014868
811.6221	0.012780
811.8588	0.012675
812.0956	0.013792
812.3323	0.011662
812.5691	0.012654
812.8059	0.009491
813.0427	0.011958
813.2795	0.010756
813.5163	0.013307
813.7531	0.013877
813.9899	0.014910
814.2267	0.015690
814.4636	0.015521
814.7004	0.014488
814.9373	0.012485
815.1742	0.012780
815.4110	0.012211
815.6479	0.010819
815.8848	0.010060
816.1217	0.011051
816.3586	0.010439
816.5955	0.011620
816.8324	0.011388
817.0694	0.011156
817.3063	0.010060
817.5433	0.011578
817.7802	0.010524
818.0172	0.011220
818.2542	0.010376
818.4912	0.011409
818.7282	0.009301
818.9652	0.010608
819.2022	0.010208
819.4392	0.009955
819.6762	0.009343
819.9133	0.009955
820.1503	0.012169
820.3874	0.011220
820.6244	0.010313
820.8615	0.012928
821.0986	0.011810
821.3357	0.011894
821.5727	0.011620
821.8099	0.010271
822.0470	0.010292
822.2841	0.011178
822.5212	0.010903
822.7584	0.009427
822.9955	0.010186
823.2327	0.009955
823.4698	0.008331
823.7070	0.008900
823.9442	0.009723
824.1814	0.009216
824.4186	0.008078
824.6558	0.009153
824.8930	0.009090
825.1302	0.009027
825.3675	0.009638
825.6047	0.009723
825.8419	0.010924
826.0792	0.009786
826.3165	0.009891
826.5537	0.011346
826.7910	0.010714
827.0283	0.011494
827.2656	0.010671
827.5029	0.010545
827.7402	0.009132
827.9776	0.010798
828.2149	0.008900
828.4522	0.008879
828.6896	0.009195
828.9270	0.010482
829.1643	0.009807
829.4017	0.008985
829.6391	0.009027
829.8765	0.009997
830.1139	0.007930
830.3513	0.007993
830.5887	0.008542
830.8261	0.006960
831.0636	0.007192
831.3010	0.008521
831.5385	0.006454
831.7759	0.005927
832.0134	0.006201
832.2509	0.007825
832.4884	0.007171
832.7259	0.005294
832.9634	0.007698
833.2009	0.006412
833.4384	0.006454
833.6759	0.006749
833.9135	0.008753
834.1510	0.007888
834.3886	0.008837
834.6261	0.008394
834.8637	0.007129
835.1013	0.009385
835.3389	0.007572
835.5765	0.007129
835.8141	0.008225
836.0517	0.008436
836.2893	0.007298
836.5269	0.006433
836.7646	0.006222
837.0022	0.005505
837.2399	0.006011
837.4775	0.006243
837.7152	0.005906
837.9529	0.003818
838.1906	0.004936
838.4283	0.006285
838.6660	0.005632
838.9037	0.004156
839.1414	0.005632
839.3791	0.006117
839.6169	0.004725
839.8546	0.005020
840.0924	0.005505
840.3302	0.004831
840.5679	0.006180
840.8057	0.005590
841.0435	0.005168
841.2813	0.005337
841.5191	0.005379
841.7569	0.006117
841.9947	0.005316
842.2326	0.004514
842.4704	0.004282
842.7082	0.004746
842.9461	0.005463
843.1840	0.004430
843.4218	0.002933
843.6597	0.005252
843.8976	0.004114
844.1355	0.004324
844.3734	0.005337
844.6113	0.003228
844.8492	0.004050
845.0872	0.004409
845.3251	0.003376
845.5631	0.004894
845.8010	0.005927
846.0390	0.004029
846.2770	0.004008
846.5149	0.005294
846.7529	0.003376
846.9909	0.003692
847.2289	0.004662
847.4669	0.004135
847.7050	0.004915
847.9430	0.004472
848.1810	0.004093
848.4191	0.004451
848.6571	0.004156
848.8952	0.004219
849.1333	0.003586
849.3713	0.004282
849.6094	0.003207
849.8475	0.003481
850.0856	0.004915
850.3237	0.002869
850.5619	0.004704
850.8000	0.004303
851.0381	0.005379
851.2763	0.003397
851.5144	0.003038
851.7526	0.003629
851.9908	0.004493
852.2289	0.004472
852.4671	0.005463
852.7053	0.007045
852.9435	0.008626
853.1817	0.009596
853.4200	0.010123
853.6582	0.011852
853.8964	0.011641
854.1347	0.009364
854.3729	0.010102
854.6112	0.011409
854.8495	0.011916
855.0877	0.011831
855.3260	0.010714
855.5643	0.010102
855.8026	0.009427
856.0409	0.009617
856.2792	0.008753
856.5176	0.009533
856.7559	0.009048
856.9942	0.009006
857.2326	0.007993
857.4710	0.009617
857.7093	0.008373
857.9477	0.008668
858.1861	0.007698
858.4245	0.007698
858.6629	0.006918
858.9013	0.005843
859.1397	0.007234
859.3781	0.007108
859.6166	0.006770
859.8550	0.007382
860.0935	0.005737
860.3319	0.006728
860.5704	0.005337
860.8089	0.004725
861.0473	0.006433
861.2858	0.005653
861.5243	0.004978
861.7628	0.005484
862.0013	0.004240
862.2399	0.005632
862.4784	0.004831
862.7169	0.005316
862.9555	0.004915
863.1940	0.005273
863.4326	0.005674
863.6712	0.007002
863.9098	0.004936
864.1483	0.006201
864.3869	0.003861
864.6255	0.002912
864.8642	0.005210
865.1028	0.004198
865.3414	0.003861
865.5800	0.003903
865.8187	0.004535
866.0573	0.004303
866.2960	0.004409
866.5347	0.005084
866.7733	0.004535
867.0120	0.004535
867.2507	0.005231
867.4894	0.003017
867.7281	0.004662
867.9669	0.003713
868.2056	0.002764
868.4443	0.005843
868.6831	0.003502
868.9218	0.004029
869.1606	0.004029
869.3993	0.004156
869.6381	0.004029
869.8769	0.003207
870.1157	0.003144
870.3545	0.003228
870.5933	0.004050
870.8321	0.005210
871.0709	0.005126
871.3097	0.004915
871.5486	0.005611
871.7874	0.005189
872.0263	0.003123
872.2651	0.003755
872.5040	0.004135
872.7429	0.004093
872.9818	0.002068
873.2207	0.003924
873.4596	0.003924
873.6985	0.003797
873.9374	0.003017
874.1763	0.005231
874.4153	0.005020
874.6542	0.004261
874.8932	0.004620
875.1321	0.005041
875.3711	0.005547
875.6101	0.004599
875.8491	0.004957
876.0880	0.004240
876.3270	0.005316
876.5661	0.004367
876.8051	0.004852
877.0441	0.004050
877.2831	0.004451
877.5222	0.005316
877.7612	0.005526
878.0003	0.004472
878.2393	0.006264
878.4784	0.005927
878.7175	0.005168
878.9566	0.003713
879.1957	0.005526
879.4348	0.006054
879.6739	0.006222
879.9130	0.007487
880.1521	0.007951
880.3913	0.005547
880.6304	0.006581
880.8696	0.006834
881.1087	0.006517
881.3479	0.006138
881.5871	0.005379
881.8262	0.004388
882.0654	0.005463
882.3046	0.004346
882.5438	0.005337
882.7831	0.005653
883.0223	0.005674
883.2615	0.005547
883.5007	0.005421
883.7400	0.004620
883.9792	0.004219
884.2185	0.004894
884.4578	0.007192
884.6971	0.004936
884.9363	0.006897
885.1756	0.005442
885.4149	0.005906
885.6542	0.006981
885.8936	0.006011
886.1329	0.005590
886.3722	0.004788
886.6116	0.005442
886.8509	0.005590
887.0903	0.005505
887.3296	0.005400
887.5690	0.003101
887.8084	0.004641
888.0478	0.004620
888.2872	0.005442
888.5266	0.003776
888.7660	0.004641
889.0054	0.003059
889.2448	0.004788
889.4843	0.005189
889.7237	0.003565
889.9632	0.003270
890.2026	0.004240
890.4421	0.003481
890.6816	0.004303
890.9211	0.002764
891.1606	0.004535
891.4001	0.004451
891.6396	0.003270
891.8791	0.003144
892.1186	0.004704
892.3581	0.004029
892.5977	0.004999
892.8372	0.003101
893.0768	0.004071
893.3163	0.002342
893.5559	0.004261
893.7955	0.003144
894.0351	0.004071
894.2747	0.002110
894.5143	0.003376
894.7539	0.004093
894.9935	0.003839
895.2331	0.005252
895.4727	0.004367
895.7124	0.001921
895.9520	0.003903
896.1917	0.004999
896.4314	0.003692
896.6710	0.003586
896.9107	0.006391
897.1504	0.003987
897.3901	0.004324
897.6298	0.003101
897.8695	0.003818
898.1092	0.004177
898.3489	0.004303
898.5887	0.003586
898.8284	0.004198
899.0682	0.002848
899.3079	0.004261
899.5477	0.003460
899.7875	0.002595
900.0272	0.002258
900.2670	0.003608
900.5068	0.003565
900.7466	0.003903
900.9864	0.004641
901.2263	0.003903
901.4661	0.002427
901.7059	0.004346
901.9458	0.004050
902.1856	0.003797
902.4255	0.004071
902.6654	0.002363
902.9052	0.003270
903.1451	0.004050
903.3850	0.003144
903.6249	0.003945
903.8648	0.004493
904.1047	0.003312
904.3446	0.003924
904.5846	0.003629
904.8245	0.003312
905.0644	0.003755
905.3044	0.002954
905.5444	0.003544
905.7843	0.004071
906.0243	0.003439
906.2643	0.003608
906.5043	0.005674
906.7443	0.003776
906.9843	0.003987
907.2243	0.002869
907.4643	0.003586
907.7043	0.002933
907.9444	0.003924
908.1844	0.003017
908.4245	0.002975
908.6645	0.003165
908.9046	0.003523
909.1447	0.002616
909.3847	0.004156
909.6248	0.003460
909.8649	0.002891
910.1050	0.003586
910.3452	0.002701
910.5853	0.003797
910.8254	0.001984
911.0655	0.003165
911.3057	0.003123
911.5458	0.002237
911.7860	0.004915
912.0262	0.003818
912.2663	0.003291
912.5065	0.003861
912.7467	0.003713
912.9869	0.003586
913.2271	0.003312
913.4673	0.001963
913.7075	0.003818
913.9478	0.002300
914.1880	0.003291
914.4283	0.003839
914.6685	0.001393
914.9088	0.002342
915.1490	0.003903
915.3893	0.003734
915.6296	0.004388
915.8699	0.001773
916.1102	0.002406
916.3505	0.003734
916.5908	0.002764
916.8311	0.002680
917.0714	0.004114
917.3118	0.002363
917.5521	0.004324
917.7925	0.003544
918.0328	0.004071
918.2732	0.003713
918.5136	0.003523
918.7539	0.002975
918.9943	0.004093
919.2347	0.003418
919.4751	0.003544
919.7155	0.002638
919.9560	0.003481
920.1964	0.003776
920.4368	0.003291
920.6773	0.002300
920.9177	0.002722
921.1582	0.002195
921.3986	0.003101
921.6391	0.001984
921.8796	0.002574
922.1201	0.002616
922.3606	0.002469
922.6011	0.001836
922.8416	0.003038
923.0821	0.002680
923.3226	0.002680
923.5631	0.001372
923.8037	0.003692
924.0442	0.002110
924.2848	0.002996
924.5254	0.003987
924.7659	0.003017
925.0065	0.001372
925.2471	0.003249
925.4877	0.002616
925.7283	0.001984
925.9689	0.002975
926.2095	0.002469
926.4501	0.000930
926.6908	0.003312
926.9314	0.000866
927.1720	0.002574
927.4127	0.001520
927.6533	0.003249
927.8940	0.001162
928.1347	0.003439
928.3754	0.002933
928.6161	0.000466
928.8568	0.002427
929.0975	0.002047
929.3382	0.000698
929.5789	0.002005
929.8196	0.001309
930.0604	0.002047
930.3011	0.000466
930.5419	0.001330
930.7826	0.001246
931.0234	0.002216
931.2642	0.002511
931.5049	0.002638
931.7457	0.000487
931.9865	0.002153
932.2273	0.002216
932.4681	0.000908
932.7089	0.002131
932.9498	0.002764
933.1906	0.002068
933.4314	0.000677
933.6723	0.001857
933.9131	0.001478
934.1540	0.002469
934.3949	0.002089
934.6358	0.000761
934.8766	0.003734
935.1175	0.001794
935.3584	0.002300
935.5993	0.001436
935.8403	0.002722
936.0812	0.001794
936.3221	0.001857
936.5630	0.000719
936.8040	0.002195
937.0449	0.002005
937.2859	0.001499
937.5269	0.000276
937.7678	0.001267
938.0088	0.001393
938.2498	0.000255
938.4908	0.001857
938.7318	0.000930
938.9728	0.002321
939.2138	0.002680
939.4549	0.001499
939.6959	0.000908
939.9369	0.001183
940.1780	0.001836
940.4190	0.001541
940.6601	0.001140
940.9012	0.001330
941.1422	0.001541
941.3833	0.001541
941.6244	0.000655
941.8655	0.001794
942.1066	0.001815
942.3477	0.001436
942.5889	0.001162
942.8300	0.000887
943.0711	0.000908
943.3123	0.001204
943.5534	0.001583
943.7946	0.001436
944.0357	0.000149
944.2769	0.001225
944.5181	0.000824
944.7593	0.002237
945.0005	0.001752
945.2417	0.001372
945.4829	0.000972
945.7241	0.001077
945.9653	0.000993
946.2066	0.001625
946.4478	0.000445
946.6891	0.001330
946.9303	0.002595
947.1716	0.001878
947.4128	0.000170
947.6541	0.000993
947.8954	-0.000631
948.1367	-0.001179
948.3780	0.000677
948.6193	0.002616
948.8606	0.001140
949.1019	0.001710
949.3433	0.001225
949.5846	0.001541
949.8259	0.001457
950.0673	0.000192
950.3086	-0.000399
950.5500	0.000951
950.7914	-0.000715
951.0327	0.001520
951.2741	0.001562
951.5155	0.001014
951.7569	0.001014
951.9983	0.003017
952.2398	0.000255
952.4812	0.001098
952.7226	0.000951
952.9640	0.000782
953.2055	0.000993
953.4469	0.003186
953.6884	0.001393
953.9299	0.000845
954.1713	-0.000504
954.4128	0.001309
954.6543	-0.000062
954.8958	0.001119
955.1373	0.001436
955.3788	0.000255
955.6203	0.000677
955.8618	0.001267
956.1034	0.000529
956.3449	0.000845
956.5865	0.000930
956.8280	0.002848
957.0696	0.001077
957.3111	0.000972
957.5527	-0.000441
957.7943	0.000297
958.0359	0.001309
958.2775	0.001183
958.5191	0.000677
958.7607	0.001794
959.0023	0.001035
959.2439	0.000613
959.4856	-0.000736
959.7272	0.001162
959.9688	0.000023
960.2105	0.001077
960.4522	0.000740
960.6938	0.000234
960.9355	0.000972
961.1772	0.000592
961.4189	0.002237
961.6606	0.000508
961.9023	0.000613
962.1440	0.001689
962.3857	0.001119
962.6274	0.000149
962.8692	0.002131
963.1109	0.001393
963.3527	0.001267
963.5944	0.001984
963.8362	-0.000040
964.0779	-0.000272
964.3197	0.000170
964.5615	0.001014
964.8033	0.001963
965.0451	0.000023
965.2869	0.000719
965.5287	0.001119
965.7705	0.000107
966.0123	0.000803
966.2542	0.000571
966.4960	-0.000104
966.7379	0.001372
966.9797	0.001246
967.2216	0.000824
967.4634	0.001267
967.7053	0.000318
967.9472	0.001857
968.1891	0.001204
968.4310	0.000002
968.6729	0.000065
968.9148	0.001267
969.1567	0.000845
969.3987	0.000445
969.6406	0.000824
969.8825	0.001309
970.1245	0.000107
970.3664	0.002131
970.6084	0.000634
970.8504	0.001562
971.0923	0.000550
971.3343	0.000360
971.5763	0.000023
971.8183	0.000508
972.0603	0.001604
972.3023	0.000170
972.5443	-0.000546
972.7864	0.000234
973.0284	0.000698
973.2704	0.001393
973.5125	-0.000083
973.7545	0.000951
973.9966	0.000571
974.2387	0.001878
974.4807	0.001415
974.7228	0.001288
974.9649	0.000951
975.2070	0.000740
975.4491	0.000677
975.6912	0.000213
975.9333	0.000023
976.1755	0.000297
976.4176	0.001309
976.6597	0.000592
976.9019	0.000592
977.1440	0.000571
977.3862	0.001520
977.6283	0.000065
977.8705	0.000887
978.1127	0.000318
978.3549	0.001204
978.5971	0.001140
978.8393	0.000761
979.0815	0.000719
979.3237	0.001646
979.5659	0.001225
979.8082	0.000740
980.0504	0.000487
980.2926	0.000381
980.5349	0.000297
980.7771	0.000634
981.0194	0.001288
981.2617	0.000508
981.5040	0.001541
981.7462	0.000993
981.9885	0.001119
982.2308	0.000107
982.4731	0.000930
982.7155	-0.000062
982.9578	0.000866
983.2001	0.001077
983.4424	0.001710
983.6848	0.000107
983.9271	0.000761
984.1695	0.000170
984.4118	0.000908
984.6542	-0.000188
984.8966	0.000508
985.1390	0.000381
985.3814	0.000993
985.6238	0.001457
985.8662	0.000529
986.1086	0.001204
986.3510	0.000234
986.5934	0.001162
986.8358	0.000466
987.0783	0.000086
987.3207	0.000719
987.5632	0.000866
987.8056	0.001436
988.0481	-0.000568
988.2906	0.001562
988.5331	0.000192
988.7756	0.000107
989.0180	0.000107
989.2605	0.001478
989.5031	0.001436
989.7456	-0.000019
989.9881	0.000276
990.2306	0.000339
990.4732	0.001246
990.7157	0.001098
990.9582	0.000761
991.2008	0.001183
991.4434	0.000276
991.6859	-0.000104
991.9285	0.000423
992.1711	-0.000842
992.4137	-0.000757
992.6563	0.002279
992.8989	-0.000504
993.1415	0.000107
993.3841	-0.000546
993.6267	0.000824
993.8694	-0.000083
994.1120	0.003165
994.3547	0.000402
994.5973	0.001646
994.8400	-0.000652
995.0826	0.001183
995.3253	0.000613
995.5680	0.002047
995.8107	-0.000357
996.0534	0.000908
996.2961	0.000107
996.5388	0.001710
996.7815	-0.000694
997.0242	0.000571
997.2670	0.001204
997.5097	0.001309
997.7524	-0.000272
997.9952	0.000908
998.2379	0.000655
998.4807	0.001457
998.7235	0.001646
998.9662	0.000740
999.2090	0.000318
999.4518	-0.000104
999.6946	-0.000293
999.9374	-0.000399
1000.1802	0.002174
1000.4230	0.000445
1000.6659	0.001372
1000.9087	-0.000778
1001.1515	0.001710
1001.3944	0.000824
1001.6372	0.000360
1001.8801	0.000529
1002.1230	0.000318
1002.3658	0.000213
1002.6087	0.002089
1002.8516	0.000402
1003.0945	0.002216
1003.3374	0.000192
1003.5803	0.001372
1003.8232	-0.000884
1004.0661	0.000170
1004.3091	0.000803
1004.5520	0.002005
1004.7949	0.001077
1005.0379	0.000381
1005.2808	-0.000062
1005.5238	0.001246
1005.7667	0.001393
1006.0097	0.000192
1006.2527	-0.000525
1006.4957	0.000824
1006.7387	-0.000399
1006.9817	0.000951
1007.2247	-0.000019
1007.4677	0.000740
1007.7107	-0.000800
1007.9538	0.000360
1008.1968	0.000381
1008.4398	-0.000230
1008.6829	0.000761
1008.9259	0.000192
1009.1690	0.000740
1009.4121	0.000951
1009.6551	-0.000019
1009.8982	0.002385
1010.1413	-0.000441
1010.3844	0.000402
1010.6275	0.000423
1010.8706	0.001183
1011.1137	0.001246
1011.3568	0.001246
1011.6000	0.000866
1011.8431	-0.000146
1012.0863	-0.000357
1012.3294	0.001815
1012.5726	0.000149
1012.8157	0.000782
1013.0589	0.000339
1013.3021	0.000149
1013.5452	0.000740
1013.7884	0.000445
1014.0316	0.000149
1014.2748	-0.000230
1014.5180	0.001604
1014.7613	0.001372
1015.0045	0.000529
1015.2477	0.000381
1015.4909	0.000192
1015.7342	0.000128
1015.9774	0.001604
1016.2207	-0.000462
1016.4640	-0.000441
1016.7072	-0.000293
1016.9505	0.000487
1017.1938	0.001056
1017.4371	0.001309
1017.6804	0.000044
1017.9237	0.000192
1018.1670	0.000571
1018.4103	0.000402
1018.6536	-0.000209
1018.8969	0.001225
1019.1403	0.001415
1019.3836	-0.001221
1019.6270	0.000023
1019.8703	0.000487
1020.1137	0.000297
1020.3571	0.001246
1020.6004	0.000213
1020.8438	0.000276
1021.0872	0.000845
1021.3306	0.000445
1021.5740	0.000550
1021.8174	-0.000610
1022.0608	0.000192
1022.3042	0.000107
1022.5477	0.001162
1022.7911	0.000318
1023.0345	0.001098
