# Wavelength (nm)	Intensity (a.u.)
197.7802	0.002118
197.9842	-0.000056
198.1882	0.000218
198.3922	0.000091
198.5963	0.001232
198.8003	0.000683
199.0044	-0.000204
199.2085	0.001738
199.4126	0.000028
199.6168	-0.000457
199.8209	0.001950
200.0251	-0.000415
200.2292	-0.000479
200.4334	-0.000521
200.6376	0.001379
200.8418	-0.001302
201.0461	-0.000816
201.2503	-0.000479
201.4546	0.000640
201.6589	-0.000605
201.8631	0.001232
202.0674	0.000873
202.2718	0.000999
202.4761	-0.000099
202.6805	0.000218
202.8848	-0.000901
203.0892	0.001295
203.2936	-0.000056
203.4980	0.000155
203.7024	-0.000943
203.9069	-0.000647
204.1113	0.000218
204.3158	0.001253
204.5203	-0.000120
204.7248	0.000408
204.9293	-0.000415
205.1338	-0.000035
205.3384	-0.000690
205.5430	0.000767
205.7475	0.000408
205.9521	0.000556
206.1567	0.000577
206.3614	-0.000014
206.5660	0.001358
206.7706	0.001401
206.9753	-0.001091
207.1800	-0.000647
207.3847	-0.000162
207.5894	-0.000985
207.7941	0.000134
207.9989	0.001401
208.2036	-0.000521
208.4084	-0.000289
208.6132	-0.000500
208.8180	0.001126
209.0228	-0.000310
209.2276	-0.000077
209.4325	0.000514
209.6373	0.001548
209.8422	0.000113
210.0471	0.000514
210.2520	0.000450
210.4569	0.000091
210.6618	-0.001028
210.8668	0.000155
211.0718	0.001591
211.2767	-0.000120
211.4817	-0.001534
211.6867	0.000746
211.8918	0.000113
212.0968	-0.000436
212.3018	-0.000183
212.5069	-0.000289
212.7120	0.000366
212.9171	0.000894
213.1222	-0.001598
213.3273	-0.000077
213.5325	0.000450
213.7376	-0.001070
213.9428	0.000091
214.1480	-0.000331
214.3532	-0.000077
214.5584	-0.000162
214.7636	0.000049
214.9689	0.000514
215.1741	0.001443
215.3794	0.000218
215.5847	-0.001112
215.7900	0.000429
215.9953	-0.000310
216.2007	0.001105
216.4060	0.000809
216.6114	0.001316
216.8168	-0.000669
217.0222	-0.000647
217.2276	0.000978
217.4330	0.000472
217.6384	-0.000120
217.8439	0.001802
218.0494	-0.001028
218.2548	0.000345
218.4603	0.000049
218.6659	0.000577
218.8714	-0.000479
219.0769	0.000155
219.2825	-0.000289
219.4881	-0.000014
219.6936	-0.000099
219.8992	-0.000479
220.1049	-0.001175
220.3105	-0.000647
220.5161	0.000978
220.7218	-0.001513
220.9275	-0.000415
221.1332	0.000894
221.3389	0.000387
221.5446	0.001485
221.7503	0.000472
221.9561	0.000999
222.1618	-0.000394
222.3676	-0.000141
222.5734	-0.000774
222.7792	0.000366
222.9850	-0.000141
223.1909	0.000493
223.3967	0.001042
223.6026	0.001971
223.8085	-0.002020
224.0144	-0.000162
224.2203	-0.000943
224.4262	0.000809
224.6322	-0.000626
224.8381	0.000662
225.0441	-0.000141
225.2501	0.000640
225.4561	-0.000690
225.6621	0.000070
225.8681	-0.000542
226.0742	0.000493
226.2802	0.000450
226.4863	0.000725
226.6924	0.000830
226.8985	0.001548
227.1046	-0.000289
227.3107	0.000028
227.5169	-0.001682
227.7230	0.000176
227.9292	-0.001112
228.1354	-0.001175
228.3416	-0.001576
228.5478	-0.000922
228.7541	-0.000373
228.9603	0.001759
229.1666	-0.000669
229.3729	0.000155
229.5791	0.000028
229.7855	0.000577
229.9918	-0.000204
230.1981	0.001105
230.4045	-0.000373
230.6108	-0.000310
230.8172	0.002224
231.0236	0.000598
231.2300	0.000725
231.4364	0.000155
231.6429	0.000746
231.8493	0.001084
232.0558	-0.000289
232.2623	0.000556
232.4688	0.000598
232.6753	-0.000120
232.8818	-0.002294
233.0884	0.000809
233.2949	0.000450
233.5015	0.000218
233.7081	0.000915
233.9147	0.001675
234.1213	-0.000795
234.3279	-0.000352
234.5346	-0.000120
234.7413	-0.000310
234.9479	-0.000056
235.1546	-0.000542
235.3613	-0.000225
235.5680	0.001422
235.7748	0.000028
235.9815	0.000049
236.1883	-0.000457
236.3951	0.000619
236.6018	0.000830
236.8087	-0.000225
237.0155	-0.000500
237.2223	-0.000352
237.4292	0.000091
237.6360	-0.000542
237.8429	0.000007
238.0498	-0.000816
238.2567	0.000704
238.4636	0.000450
238.6706	0.000218
238.8775	0.000239
239.0845	-0.000479
239.2915	0.000260
239.4985	0.000134
239.7055	-0.000816
239.9125	0.000070
240.1195	0.000788
240.3266	0.000007
240.5337	-0.000246
240.7407	-0.000099
240.9478	-0.000331
241.1549	-0.001006
241.3621	-0.000711
241.5692	0.000091
241.7764	0.001548
241.9835	-0.000943
242.1907	0.000429
242.3979	-0.000964
242.6051	-0.000331
242.8124	0.001633
243.0196	0.001443
243.2269	0.000472
243.4341	-0.000457
243.6414	-0.000859
243.8487	0.000429
244.0560	0.000662
244.2634	-0.000141
244.4707	-0.000394
244.6781	0.000472
244.8854	-0.000521
245.0928	-0.000162
245.3002	0.000387
245.5076	0.001295
245.7151	0.000535
245.9225	-0.000289
246.1300	0.000957
246.3375	-0.000901
246.5449	0.000598
246.7524	0.000830
246.9600	-0.000331
247.1675	0.000577
247.3750	0.001358
247.5826	0.000197
247.7902	-0.001112
247.9978	0.000999
248.2054	-0.000859
248.4130	-0.000373
248.6206	-0.000690
248.8283	-0.000204
249.0359	0.000070
249.2436	-0.001260
249.4513	0.000704
249.6590	0.000767
249.8667	0.000366
250.0745	0.000197
250.2822	-0.001344
250.4900	0.000218
250.6978	-0.000711
250.9056	0.001907
251.1134	-0.001260
251.3212	0.000493
251.5290	0.000429
251.7369	-0.000373
251.9447	-0.000563
252.1526	0.000197
252.3605	0.000218
252.5684	-0.000436
252.7763	-0.000394
252.9843	0.000028
253.1922	0.000049
253.4002	-0.000457
253.6082	0.000999
253.8162	-0.000901
254.0242	0.000704
254.2322	0.001211
254.4402	0.000155
254.6483	0.000134
254.8564	0.000640
255.0644	-0.000394
255.2725	-0.001028
255.4806	-0.000077
255.6888	0.000239
255.8969	0.000239
256.1051	-0.000289
256.3132	0.000640
256.5214	-0.000711
256.7296	-0.000120
256.9378	0.000239
257.1460	-0.000922
257.3543	-0.000479
257.5625	0.000408
257.7708	-0.001239
257.9791	0.000472
258.1874	-0.000056
258.3957	0.000514
258.6040	-0.000035
258.8124	-0.001281
259.0207	0.000662
259.2291	0.000746
259.4375	0.000493
259.6459	0.000725
259.8543	0.000662
260.0627	0.000640
260.2711	-0.001028
260.4796	-0.000310
260.6881	0.000978
260.8965	0.000809
261.1050	0.000429
261.3135	0.000091
261.5221	-0.001365
261.7306	0.000493
261.9392	0.000493
262.1477	0.001569
262.3563	0.000598
262.5649	0.000007
262.7735	0.000894
262.9822	0.000915
263.1908	-0.000521
263.3995	-0.000943
263.6081	-0.000669
263.8168	0.000218
264.0255	0.000345
264.2342	0.001042
264.4429	-0.000394
264.6517	-0.000056
264.8604	0.000619
265.0692	0.000450
265.2780	-0.000225
265.4868	0.000387
265.6956	-0.000056
265.9044	0.000113
266.1133	0.000134
266.3221	0.000113
266.5310	-0.000457
266.7399	0.000894
266.9488	0.000218
267.1577	0.002076
267.3666	0.000239
267.5755	0.000514
267.7845	-0.000500
267.9935	-0.000563
268.2024	-0.000774
268.4114	0.001042
268.6205	-0.000542
268.8295	-0.000056
269.0385	-0.000436
269.2476	-0.000014
269.4566	0.000472
269.6657	0.000493
269.8748	-0.000099
270.0839	0.000134
270.2931	-0.001154
270.5022	0.001084
270.7114	0.001232
270.9205	-0.000563
271.1297	0.000324
271.3389	0.000176
271.5481	-0.000795
271.7573	-0.000605
271.9666	0.001211
272.1758	-0.000563
272.3851	-0.001408
272.5944	0.000746
272.8037	-0.000183
273.0130	-0.001260
273.2223	0.000662
273.4316	0.000239
273.6410	-0.000880
273.8504	0.000282
274.0597	-0.000711
274.2691	-0.000141
274.4785	0.001232
274.6880	0.001021
274.8974	-0.000056
275.1069	0.000746
275.3163	-0.001661
275.5258	0.000197
275.7353	-0.001070
275.9448	-0.000141
276.1543	-0.000267
276.3639	0.000957
276.5734	0.000556
276.7830	0.000176
276.9926	-0.000310
277.2022	0.000873
277.4118	0.000535
277.6214	0.001084
277.8310	-0.000563
278.0407	-0.000859
278.2503	-0.000563
278.4600	0.001316
278.6697	-0.001450
278.8794	-0.000289
279.0891	-0.000626
279.2989	0.000767
279.5086	-0.000289
279.7184	-0.000310
279.9281	0.000429
280.1379	-0.000394
280.3477	0.000028
280.5576	0.000197
280.7674	-0.000774
280.9772	0.000894
281.1871	0.000873
281.3970	0.001422
281.6069	-0.000204
281.8168	-0.000246
282.0267	0.000282
282.2366	-0.001049
282.4466	-0.000901
282.6565	0.001042
282.8665	0.000472
283.0765	0.001548
283.2865	-0.001112
283.4965	0.000577
283.7065	-0.001239
283.9166	-0.000838
284.1266	0.000873
284.3367	-0.000077
284.5468	-0.000605
284.7569	0.000366
284.9670	0.000957
285.1771	-0.000753
285.3873	-0.000647
285.5974	0.000155
285.8076	0.000788
286.0178	0.000155
286.2280	-0.001070
286.4382	0.000640
286.6484	-0.000774
286.8587	0.000218
287.0689	-0.002020
287.2792	0.000915
287.4895	-0.000436
287.6998	-0.000267
287.9101	-0.000014
288.1204	0.000704
288.3308	-0.000901
288.5411	-0.000204
288.7515	-0.000838
288.9619	0.000408
289.1723	-0.000436
289.3827	0.000704
289.5931	0.000366
289.8035	-0.000647
290.0140	0.000936
290.2245	-0.000141
290.4349	0.000387
290.6454	0.000957
290.8559	0.000218
291.0665	0.000091
291.2770	0.000113
291.4875	0.000894
291.6981	-0.000732
291.9087	0.000640
292.1193	0.000408
292.3299	0.000345
292.5405	-0.000289
292.7511	-0.000162
292.9618	-0.001218
293.1724	0.001738
293.3831	-0.000732
293.5938	0.000408
293.8045	0.001295
294.0152	-0.000014
294.2260	-0.000880
294.4367	-0.000500
294.6475	0.000197
294.8582	-0.000077
295.0690	0.000894
295.2798	0.000999
295.4906	0.001021
295.7015	0.000155
295.9123	0.001886
296.1232	0.000830
296.3340	-0.000922
296.5449	-0.000479
296.7558	-0.001112
296.9667	0.000556
297.1777	0.001337
297.3886	-0.000246
297.5995	0.000091
297.8105	0.000493
298.0215	0.000176
298.2325	-0.000457
298.4435	0.000239
298.6545	0.000830
298.8656	0.001844
299.0766	-0.001028
299.2877	0.000134
299.4988	0.000472
299.7099	0.000239
299.9210	0.000387
300.1321	0.001021
300.3432	0.000091
300.5544	0.000514
300.7655	0.000218
300.9767	-0.000584
301.1879	-0.001323
301.3991	-0.000985
301.6103	0.000873
301.8215	0.000366
302.0328	-0.000014
302.2441	-0.000457
302.4553	0.001358
302.6666	0.000387
302.8779	0.000577
303.0892	0.000598
303.3006	-0.000267
303.5119	-0.000162
303.7233	-0.000415
303.9346	0.001401
304.1460	-0.000225
304.3574	-0.000436
304.5688	0.000345
304.7803	0.001147
304.9917	-0.000626
305.2031	0.000450
305.4146	0.000113
305.6261	-0.001788
305.8376	0.000852
306.0491	0.000957
306.2606	0.001591
306.4722	-0.001239
306.6837	-0.001070
306.8953	-0.000647
307.1069	0.001316
307.3184	-0.000922
307.5301	0.000028
307.7417	-0.000014
307.9533	0.000324
308.1650	0.001105
308.3766	0.000999
308.5883	0.000408
308.8000	0.000746
309.0117	0.001084
309.2234	0.000091
309.4351	-0.000479
309.6469	0.000155
309.8586	0.001063
310.0704	0.001802
310.2822	0.000746
310.4940	-0.000690
310.7058	-0.000563
310.9176	0.001211
311.1295	-0.000521
311.3413	0.001464
311.5532	-0.000626
311.7651	0.000788
311.9770	-0.000436
312.1889	0.000894
312.4008	0.000472
312.6127	-0.000774
312.8247	-0.000120
313.0366	0.001379
313.2486	0.000303
313.4606	-0.000120
313.6726	0.000366
313.8846	0.001358
314.0967	0.000809
314.3087	0.000260
314.5208	-0.000964
314.7328	0.000746
314.9449	0.000260
315.1570	0.000619
315.3692	0.000662
315.5813	0.000324
315.7934	-0.001112
316.0056	0.000704
316.2177	0.000725
316.4299	-0.000056
316.6421	-0.000690
316.8543	0.000514
317.0666	0.000535
317.2788	0.000387
317.4911	0.000472
317.7033	-0.000035
317.9156	0.000366
318.1279	0.001696
318.3402	0.000176
318.5525	0.000514
318.7649	0.000514
318.9772	0.001063
319.1896	0.000725
319.4019	0.002308
319.6143	0.000324
319.8267	0.000387
320.0392	-0.000289
320.2516	0.000873
320.4640	-0.000542
320.6765	-0.000626
320.8890	0.000218
321.1014	0.001401
321.3139	0.000028
321.5265	0.000429
321.7390	0.000091
321.9515	0.000493
322.1641	-0.000479
322.3766	0.000725
322.5892	-0.000310
322.8018	0.001232
323.0144	-0.000310
323.2270	-0.000563
323.4397	-0.000436
323.6523	0.001485
323.8650	-0.000394
324.0777	-0.000563
324.2904	0.000746
324.5031	-0.000521
324.7158	-0.000225
324.9285	-0.000035
325.1412	-0.000099
325.3540	0.001527
325.5668	0.001274
325.7796	0.000387
325.9924	-0.000267
326.2052	-0.000626
326.4180	0.000260
326.6308	0.000282
326.8437	-0.000521
327.0566	-0.000626
327.2694	-0.000690
327.4823	-0.001260
327.6952	-0.000331
327.9082	0.000493
328.1211	-0.000099
328.3340	0.000155
328.5470	-0.000816
328.7600	0.000028
328.9730	-0.000647
329.1860	-0.000584
329.3990	0.000450
329.6120	0.001823
329.8251	0.000809
330.0381	-0.000035
330.2512	0.000619
330.4643	0.000282
330.6774	0.000640
330.8905	0.000028
331.1036	-0.001534
331.3167	0.001464
331.5299	-0.001196
331.7431	-0.000246
331.9562	0.000957
332.1694	-0.000626
332.3826	-0.000584
332.5959	0.001232
332.8091	0.000619
333.0223	0.000936
333.2356	0.000640
333.4489	-0.000310
333.6622	0.000704
333.8755	0.000303
334.0888	-0.000204
334.3021	0.001232
334.5154	-0.000056
334.7288	0.001042
334.9422	-0.001260
335.1555	0.000873
335.3689	-0.001070
335.5823	0.000176
335.7958	0.001506
336.0092	0.001591
336.2227	0.000070
336.4361	0.000028
336.6496	-0.000267
336.8631	0.001612
337.0766	0.001591
337.2901	0.000556
337.5036	-0.000014
337.7172	0.000493
337.9307	-0.000267
338.1443	-0.001196
338.3579	-0.000077
338.5715	0.000007
338.7851	-0.000035
338.9987	0.000725
339.2124	-0.001196
339.4260	-0.000774
339.6397	0.001126
339.8533	-0.000077
340.0670	-0.000626
340.2807	0.000303
340.4945	-0.000584
340.7082	0.001738
340.9219	0.000725
341.1357	0.000155
341.3495	0.000345
341.5633	0.001147
341.7771	-0.000669
341.9909	0.001738
342.2047	-0.000267
342.4185	-0.000162
342.6324	0.000176
342.8463	-0.000690
343.0601	0.000535
343.2740	0.001168
343.4879	-0.000816
343.7019	0.001168
343.9158	0.000894
344.1297	-0.000162
344.3437	-0.001450
344.5577	0.001844
344.7717	0.000830
344.9857	0.000830
345.1997	-0.000816
345.4137	-0.000584
345.6277	0.001042
345.8418	-0.000310
346.0559	0.001105
346.2699	-0.000479
346.4840	0.000028
346.6981	0.000915
346.9123	0.000218
347.1264	0.000218
347.3406	0.000260
347.5547	0.001337
347.7689	0.000704
347.9831	-0.000985
348.1973	-0.001154
348.4115	0.000155
348.6257	0.000472
348.8400	-0.000099
349.0542	-0.002231
349.2685	0.000809
349.4828	-0.000310
349.6971	0.001211
349.9114	0.000429
350.1257	0.001443
350.3400	0.000915
350.5544	0.000366
350.7687	0.000493
350.9831	0.000429
351.1975	0.000852
351.4119	0.000197
351.6263	-0.000711
351.8407	0.000662
352.0552	-0.000457
352.2696	-0.000669
352.4841	0.000556
352.6986	0.000746
352.9131	0.000619
353.1276	-0.000183
353.3421	-0.000880
353.5566	-0.000563
353.7712	0.001591
353.9858	0.000873
354.2003	-0.000521
354.4149	0.000915
354.6295	-0.000457
354.8441	0.000345
355.0588	0.000218
355.2734	-0.000077
355.4881	-0.000373
355.7027	0.000324
355.9174	0.001042
356.1321	-0.000056
356.3468	0.000429
356.5615	0.001147
356.7763	-0.000352
356.9910	0.001211
357.2058	-0.000880
357.4206	0.001021
357.6353	-0.000415
357.8501	0.000239
358.0650	-0.000394
358.2798	0.001401
358.4946	0.000366
358.7095	0.001021
358.9243	0.000472
359.1392	-0.000162
359.3541	0.001147
359.5690	0.000535
359.7839	-0.000394
359.9989	-0.000563
360.2138	0.000218
360.4288	-0.000035
360.6438	-0.000267
360.8587	0.000113
361.0737	-0.000183
361.2888	0.000873
361.5038	-0.000056
361.7188	0.000450
361.9339	-0.001513
362.1489	-0.000204
362.3640	-0.000626
362.5791	-0.000267
362.7942	-0.001408
363.0093	0.000070
363.2245	-0.000647
363.4396	-0.000795
363.6548	-0.000542
363.8699	0.000176
364.0851	-0.000479
364.3003	0.000746
364.5155	0.000197
364.7308	-0.000816
364.9460	0.000113
365.1612	0.000366
365.3765	0.000598
365.5918	0.000366
365.8071	-0.001576
366.0224	0.000683
366.2377	0.000366
366.4530	0.000704
366.6684	0.000704
366.8837	0.000725
367.0991	0.000239
367.3145	0.000366
367.5299	0.001443
367.7453	0.000577
367.9607	0.000007
368.1761	0.001337
368.3916	0.000725
368.6070	0.000894
368.8225	0.000176
369.0380	0.000091
369.2535	0.000070
369.4690	0.000091
369.6845	-0.000795
369.9001	0.000662
370.1156	0.000260
370.3312	0.000324
370.5468	0.000387
370.7624	0.000978
370.9780	0.000324
371.1936	0.001717
371.4092	0.000408
371.6249	0.000091
371.8405	0.000155
372.0562	-0.000162
372.2719	0.000408
372.4876	0.000830
372.7033	0.000514
372.9190	0.000197
373.1348	0.000345
373.3505	0.000957
373.5663	-0.000521
373.7820	0.000640
373.9978	-0.000183
374.2136	0.001464
374.4294	-0.000647
374.6453	0.001443
374.8611	-0.001555
375.0770	-0.000267
375.2928	0.001295
375.5087	0.000387
375.7246	-0.000225
375.9405	-0.000204
376.1564	0.000282
376.3724	0.001612
376.5883	0.001063
376.8043	0.000028
377.0203	-0.000605
377.2362	0.000324
377.4522	0.000113
377.6682	0.000999
377.8843	-0.000141
378.1003	0.000767
378.3164	-0.001175
378.5324	0.001126
378.7485	0.000091
378.9646	-0.000225
379.1807	0.000873
379.3968	0.000873
379.6129	0.000303
379.8291	0.000514
380.0452	-0.001893
380.2614	0.000556
380.4776	0.000746
380.6938	0.000324
380.9100	-0.000901
381.1262	0.001189
381.3424	0.000070
381.5587	0.001569
381.7749	-0.000225
381.9912	0.000999
382.2075	0.001168
382.4238	0.001147
382.6401	0.000049
382.8564	0.001274
383.0728	-0.000077
383.2891	0.000429
383.5055	0.000239
383.7219	0.000894
383.9382	0.001717
384.1546	0.001865
384.3711	-0.000711
384.5875	0.001717
384.8039	0.000007
385.0204	0.001443
385.2368	0.000662
385.4533	0.001992
385.6698	0.001147
385.8863	0.000852
386.1028	0.000028
386.3194	0.000809
386.5359	0.000366
386.7525	0.000662
386.9690	0.000704
387.1856	0.002013
387.4022	0.002055
387.6188	0.002097
387.8355	0.001105
388.0521	0.001569
388.2687	0.001738
388.4854	0.002203
388.7021	0.000070
388.9188	0.003111
389.1355	0.001738
389.3522	0.002351
389.5689	0.002076
389.7856	0.002731
390.0024	0.001548
390.2192	0.001738
390.4359	0.003385
390.6527	0.002076
390.8695	0.003237
391.0863	0.004547
391.3032	0.003216
391.5200	0.005011
391.7369	0.003237
391.9537	0.003132
392.1706	0.001548
392.3875	0.005750
392.6044	0.004737
392.8213	0.005497
393.0383	0.006637
393.2552	0.006383
393.4722	0.004884
393.6891	0.007144
393.9061	0.006046
394.1231	0.006848
394.3401	0.006806
394.5572	0.007165
394.7742	0.005644
394.9912	0.008579
395.2083	0.008812
395.4254	0.008664
395.6425	0.006742
395.8596	0.008980
396.0767	0.007376
396.2938	0.009994
396.5109	0.008875
396.7281	0.010458
396.9453	0.009994
397.1624	0.011472
397.3796	0.012739
397.5968	0.011599
397.8140	0.012422
398.0313	0.014238
398.2485	0.013815
398.4658	0.012950
398.6830	0.014512
398.9003	0.013900
399.1176	0.014977
399.3349	0.016032
399.5522	0.014111
399.7696	0.013647
399.9869	0.014681
400.2043	0.015652
400.4216	0.016011
400.6390	0.014935
400.8564	0.014259
401.0738	0.016117
401.2912	0.017236
401.5087	0.017426
401.7261	0.015547
401.9436	0.016687
402.1610	0.016391
402.3785	0.017489
402.5960	0.017363
402.8135	0.017468
403.0310	0.017890
403.2486	0.018545
403.4661	0.016560
403.6837	0.021459
403.9013	0.019706
404.1189	0.019791
404.3365	0.020825
404.5541	0.018017
404.7717	0.020551
404.9893	0.020023
405.2070	0.021015
405.4246	0.020572
405.6423	0.020445
405.8600	0.023148
406.0777	0.021416
406.2954	0.021163
406.5131	0.020973
406.7309	0.018967
406.9486	0.020192
407.1664	0.022261
407.3842	0.019812
407.6020	0.019178
407.8198	0.022177
408.0376	0.021311
408.2554	0.022789
408.4733	0.021248
408.6911	0.022493
408.9090	0.020255
409.1269	0.022134
409.3448	0.021902
409.5627	0.020424
409.7806	0.023401
409.9985	0.023971
410.2165	0.022683
410.4344	0.023063
410.6524	0.022219
410.8704	0.022873
411.0884	0.022578
411.3064	0.022894
411.5244	0.023296
411.7424	0.023000
411.9605	0.022282
412.1785	0.024161
412.3966	0.024731
412.6147	0.025111
412.8328	0.026822
413.0509	0.025724
413.2690	0.026632
413.4871	0.026399
413.7053	0.026230
413.9234	0.025618
414.1416	0.026040
414.3598	0.024267
414.5780	0.024077
414.7962	0.024520
415.0144	0.025534
415.2326	0.024858
415.4509	0.025027
415.6692	0.024795
415.8874	0.023507
416.1057	0.024858
416.3240	0.025323
416.5423	0.027307
416.7606	0.024520
416.9790	0.026104
417.1973	0.025196
417.4157	0.025111
417.6341	0.024246
417.8524	0.026146
418.0708	0.025428
418.2893	0.024858
418.5077	0.025491
418.7261	0.026885
418.9446	0.024774
419.1630	0.026610
419.3815	0.026568
419.6000	0.027666
419.8185	0.028616
420.0370	0.026948
420.2555	0.026864
420.4741	0.029672
420.6926	0.030305
420.9112	0.029271
421.1298	0.029904
421.3483	0.031298
421.5669	0.031910
421.7856	0.031973
422.0042	0.032142
422.2228	0.033304
422.4415	0.030622
422.6601	0.030981
422.8788	0.029799
423.0975	0.030453
423.3162	0.031952
423.5349	0.033325
423.7536	0.030685
423.9724	0.031340
424.1911	0.029355
424.4099	0.029313
424.6287	0.031044
424.8475	0.029397
425.0663	0.030559
425.2851	0.028933
425.5039	0.029165
425.7228	0.028680
425.9416	0.026505
426.1605	0.025977
426.3793	0.027666
426.5982	0.027307
426.8171	0.027181
427.0361	0.025639
427.2550	0.027561
427.4739	0.030939
427.6929	0.029419
427.9118	0.029714
428.1308	0.029017
428.3498	0.029440
428.5688	0.028046
428.7878	0.030453
429.0068	0.030474
429.2259	0.028321
429.4449	0.032206
429.6640	0.031129
429.8831	0.032839
430.1022	0.034423
430.3213	0.032227
430.5404	0.034169
430.7595	0.033874
430.9787	0.033747
431.1978	0.031171
431.4170	0.031551
431.6362	0.030770
431.8553	0.029799
432.0745	0.026568
432.2938	0.027729
432.5130	0.028215
432.7322	0.026315
432.9515	0.025175
433.1707	0.026336
433.3900	0.027223
433.6093	0.030495
433.8286	0.030918
434.0479	0.034549
434.2673	0.031952
434.4866	0.029440
434.7059	0.028912
434.9253	0.030200
435.1447	0.029355
435.3641	0.028849
435.5835	0.031044
435.8029	0.029102
436.0223	0.027413
436.2418	0.028384
436.4612	0.030115
436.6807	0.030685
436.9001	0.029968
437.1196	0.027856
437.3391	0.028827
437.5586	0.031636
437.7782	0.028257
437.9977	0.028912
438.2173	0.028447
438.4368	0.030812
438.6564	0.030791
438.8760	0.029735
439.0956	0.028173
439.3152	0.030221
439.5348	0.030115
439.7545	0.026146
439.9741	0.027497
440.1938	0.028067
440.4135	0.028025
440.6331	0.027349
440.8528	0.027920
441.0725	0.030833
441.2923	0.032142
441.5120	0.033451
441.7318	0.032860
441.9515	0.033219
442.1713	0.031762
442.3911	0.035879
442.6109	0.029292
442.8307	0.032565
443.0505	0.031593
443.2703	0.031234
443.4902	0.030918
443.7101	0.032987
443.9299	0.033092
444.1498	0.032902
444.3697	0.032227
444.5896	0.031044
444.8095	0.031741
445.0295	0.030474
445.2494	0.031467
445.4694	0.031234
445.6894	0.029229
445.9093	0.030348
446.1293	0.030411
446.3493	0.030559
446.5694	0.031467
446.7894	0.030559
447.0094	0.030474
447.2295	0.030643
447.4496	0.025428
447.6696	0.028088
447.8897	0.027920
448.1098	0.029123
448.3300	0.028300
448.5501	0.026610
448.7702	0.028743
448.9904	0.028996
449.2106	0.028236
449.4307	0.025998
449.6509	0.025787
449.8711	0.027159
450.0914	0.025534
450.3116	0.026040
450.5318	0.025956
450.7521	0.027181
450.9724	0.025513
451.1926	0.024035
451.4129	0.023106
451.6332	0.025132
451.8535	0.024330
452.0739	0.025132
452.2942	0.024035
452.5146	0.025154
452.7349	0.025893
452.9553	0.022873
453.1757	0.021564
453.3961	0.022683
453.6165	0.021944
453.8369	0.021606
454.0574	0.022535
454.2778	0.021839
454.4983	0.021670
454.7188	0.021015
454.9393	0.021248
455.1597	0.022282
455.3803	0.021543
455.6008	0.022599
455.8213	0.022240
456.0419	0.022177
456.2624	0.020931
456.4830	0.020720
456.7036	0.019601
456.9242	0.020276
457.1448	0.019770
457.3654	0.021501
457.5860	0.019727
457.8067	0.021839
458.0274	0.021987
458.2480	0.022979
458.4687	0.022388
458.6894	0.021416
458.9101	0.020931
459.1308	0.020593
459.3516	0.019516
459.5723	0.020804
459.7931	0.019622
460.0138	0.020086
460.2346	0.021100
460.4554	0.019390
460.6762	0.019664
460.8970	0.019073
461.1178	0.019432
461.3387	0.019242
461.5595	0.019115
461.7804	0.018334
462.0013	0.017405
462.2222	0.017447
462.4431	0.013984
462.6640	0.016222
462.8849	0.017025
463.1059	0.015230
463.3268	0.016560
463.5478	0.018059
463.7687	0.017616
463.9897	0.016391
464.2107	0.015821
464.4317	0.017320
464.6528	0.018186
464.8738	0.017722
465.0948	0.017278
465.3159	0.018123
465.5370	0.016898
465.7581	0.018207
465.9792	0.018735
466.2003	0.016032
466.4214	0.015568
466.6425	0.015589
466.8637	0.015082
467.0848	0.014449
467.3060	0.012950
467.5272	0.013245
467.7484	0.013119
467.9696	0.013098
468.1908	0.015209
468.4120	0.013773
468.6333	0.013076
468.8545	0.011789
469.0758	0.012971
469.2970	0.011007
469.5183	0.012570
469.7396	0.010606
469.9610	0.011324
470.1823	0.010247
470.4036	0.010458
470.6250	0.010944
470.8463	0.011007
471.0677	0.010184
471.2891	0.010965
471.5105	0.009614
471.7319	0.010923
471.9533	0.010099
472.1748	0.009888
472.3962	0.008790
472.6177	0.010648
472.8391	0.010036
473.0606	0.010374
473.2821	0.008833
473.5036	0.010311
473.7251	0.010670
473.9467	0.009825
474.1682	0.010374
474.3898	0.007904
474.6113	0.010691
474.8329	0.009487
475.0545	0.009656
475.2761	0.009783
475.4977	0.009276
475.7193	0.010881
475.9410	0.009445
476.1626	0.009614
476.3843	0.009698
476.6060	0.007629
476.8277	0.010142
477.0494	0.009255
477.2711	0.007629
477.4928	0.007840
477.7145	0.008579
477.9363	0.009234
478.1580	0.005961
478.3798	0.008621
478.6016	0.006975
478.8234	0.006869
479.0452	0.009255
479.2670	0.008938
479.4888	0.008389
479.7107	0.007840
479.9325	0.008347
480.1544	0.007861
480.3763	0.007460
480.5982	0.007334
480.8201	0.006024
481.0420	0.007566
481.2639	0.009128
481.4859	0.008136
481.7078	0.006552
481.9298	0.007418
482.1517	0.007291
482.3737	0.007566
482.5957	0.007418
482.8177	0.007714
483.0398	0.006320
483.2618	0.006953
483.4838	0.006616
483.7059	0.006362
483.9280	0.007186
484.1501	0.006573
484.3721	0.007059
484.5943	0.005856
484.8164	0.008263
485.0385	0.008157
485.2606	0.006405
485.4828	0.009318
485.7050	0.015167
485.9271	0.021649
486.1493	0.021395
486.3715	0.016898
486.5937	0.015082
486.8160	0.012422
487.0382	0.010712
487.2605	0.010036
487.4827	0.008917
487.7050	0.009550
487.9273	0.008030
488.1496	0.006953
488.3719	0.006046
488.5942	0.006193
488.8165	0.006510
489.0389	0.004356
489.2612	0.004610
489.4836	0.004631
489.7060	0.004589
489.9284	0.004547
490.1508	0.004272
490.3732	0.005560
490.5956	0.004568
490.8180	0.003913
491.0405	0.005771
491.2630	0.004969
491.4854	0.004547
491.7079	0.005792
491.9304	0.003449
492.1529	0.004399
492.3755	0.004230
492.5980	0.005117
492.8205	0.003913
493.0431	0.004314
493.2657	0.002541
493.4882	0.004462
493.7108	0.002224
493.9334	0.004884
494.1561	0.003618
494.3787	0.004145
494.6013	0.004927
494.8240	0.004082
495.0466	0.004124
495.2693	0.004884
495.4920	0.003470
495.7147	0.004927
495.9374	0.002836
496.1601	0.003934
496.3829	0.004378
496.6056	0.006067
496.8284	0.004209
497.0511	0.004610
497.2739	0.003998
497.4967	0.001781
497.7195	0.003998
497.9423	0.002562
498.1652	0.004673
498.3880	0.003491
498.6109	0.003596
498.8337	0.003111
499.0566	0.004927
499.2795	0.003364
499.5024	0.003934
499.7253	0.003596
499.9482	0.003153
500.1712	0.003491
500.3941	0.002667
500.6171	0.003069
500.8400	0.002034
501.0630	0.003744
501.2860	0.002963
501.5090	0.004082
501.7320	0.003005
501.9551	0.003343
502.1781	0.003533
502.4012	0.004568
502.6242	0.003596
502.8473	0.003174
503.0704	0.004040
503.2935	0.003723
503.5166	0.005180
503.7397	0.002942
503.9628	0.003618
504.1860	0.004209
504.4092	0.003449
504.6323	0.003005
504.8555	0.002773
505.0787	0.003512
505.3019	0.002604
505.5251	0.003512
505.7483	0.003047
505.9716	0.003871
506.1948	0.001802
506.4181	0.003702
506.6414	0.003364
506.8647	0.003955
507.0880	0.002857
507.3113	0.003406
507.5346	0.001928
507.7579	0.001633
507.9813	0.002308
508.2046	0.003512
508.4280	0.003026
508.6514	0.002752
508.8748	0.003491
509.0982	0.002815
509.3216	0.003554
509.5450	0.003660
509.7685	0.002245
509.9919	0.002857
510.2154	0.003026
510.4388	0.003132
510.6623	0.001886
510.8858	0.002646
511.1093	0.002942
511.3329	0.002921
511.5564	0.004504
511.7799	0.002857
512.0035	0.002076
512.2270	0.004568
512.4506	0.002034
512.6742	0.002963
512.8978	0.002710
513.1214	0.004251
513.3451	0.003786
513.5687	0.004779
513.7923	0.000978
514.0160	0.003111
514.2397	0.002498
514.4634	0.003596
514.6871	0.002330
514.9108	0.003427
515.1345	0.001971
515.3582	0.002330
515.5819	0.001506
515.8057	0.004209
516.0295	0.004145
516.2532	0.002351
516.4770	0.003153
516.7008	0.003808
516.9246	0.001992
517.1485	0.004040
517.3723	0.002815
517.5961	0.002562
517.8200	0.002984
518.0439	0.003723
518.2677	0.004694
518.4916	0.003998
518.7155	0.003491
518.9395	0.002477
519.1634	0.003280
519.3873	0.004019
519.6113	0.003322
519.8352	0.003237
520.0592	0.001992
520.2832	0.002414
520.5072	0.002646
520.7312	0.001971
520.9552	0.002942
521.1792	0.003090
521.4033	0.005011
521.6273	0.003998
521.8514	0.003829
522.0755	0.003259
522.2996	0.003702
522.5237	0.002815
522.7478	0.001950
522.9719	0.003491
523.1960	0.004124
523.4202	0.003681
523.6443	0.003005
523.8685	0.003047
524.0927	0.003533
524.3169	0.004272
524.5411	0.004019
524.7653	0.003343
524.9895	0.003786
525.2138	0.003786
525.4380	0.002435
525.6623	0.003364
525.8865	0.003934
526.1108	0.003998
526.3351	0.003723
526.5594	0.004188
526.7837	0.004293
527.0081	0.003976
527.2324	0.003934
527.4568	0.003660
527.6811	0.004758
527.9055	0.004145
528.1299	0.004251
528.3543	0.003955
528.5787	0.006024
528.8031	0.004589
529.0276	0.004610
529.2520	0.005729
529.4765	0.003829
529.7009	0.004040
529.9254	0.006046
530.1499	0.005391
530.3744	0.005750
530.5989	0.004737
530.8234	0.006975
531.0480	0.004019
531.2725	0.005264
531.4971	0.005834
531.7217	0.005285
531.9462	0.006869
532.1708	0.006637
532.3954	0.004230
532.6200	0.006426
532.8447	0.004166
533.0693	0.007777
533.2940	0.005877
533.5186	0.005940
533.7433	0.007735
533.9680	0.007038
534.1927	0.007481
534.4174	0.007798
534.6421	0.007228
534.8668	0.009234
535.0916	0.007122
535.3163	0.008241
535.5411	0.007228
535.7659	0.008917
535.9907	0.007840
536.2155	0.006890
536.4403	0.008284
536.6651	0.008495
536.8899	0.007101
537.1148	0.008305
537.3396	0.006003
537.5645	0.008537
537.7894	0.007777
538.0143	0.009931
538.2392	0.009044
538.4641	0.008980
538.6890	0.009297
538.9139	0.010754
539.1389	0.010289
539.3638	0.010142
539.5888	0.010184
539.8138	0.010670
540.0388	0.012190
540.2638	0.010374
540.4888	0.008917
540.7138	0.009508
540.9389	0.010838
541.1639	0.011324
541.3890	0.011535
541.6140	0.012549
541.8391	0.011218
542.0642	0.011366
542.2893	0.011979
542.5144	0.011873
542.7396	0.012316
542.9647	0.011007
543.1899	0.011472
543.4150	0.012380
543.6402	0.013119
543.8654	0.014132
544.0906	0.013055
544.3158	0.015758
544.5410	0.014428
544.7662	0.015357
544.9915	0.014956
545.2167	0.014660
545.4420	0.015631
545.6673	0.015230
545.8926	0.013309
546.1179	0.014850
546.3432	0.014744
546.5685	0.016244
546.7938	0.014512
547.0192	0.016054
547.2445	0.015906
547.4699	0.015272
547.6953	0.016771
547.9206	0.017637
548.1460	0.018017
548.3715	0.019537
548.5969	0.020192
548.8223	0.020213
549.0478	0.021754
549.2732	0.017299
549.4987	0.018439
549.7242	0.016708
549.9496	0.017722
550.1751	0.020107
550.4007	0.017257
550.6262	0.018651
550.8517	0.017194
551.0773	0.019221
551.3028	0.019727
551.5284	0.018482
551.7540	0.019347
551.9796	0.022493
552.2052	0.021606
552.4308	0.023211
552.6564	0.023063
552.8820	0.020889
553.1077	0.022198
553.3333	0.022050
553.5590	0.024372
553.7847	0.024752
554.0104	0.023718
554.2361	0.023570
554.4618	0.022493
554.6875	0.021142
554.9132	0.021987
555.1390	0.025618
555.3648	0.024647
555.5905	0.026695
555.8163	0.025681
556.0421	0.025977
556.2679	0.026653
556.4937	0.027159
556.7195	0.025027
556.9454	0.025196
557.1712	0.025639
557.3971	0.024816
557.6230	0.026484
557.8488	0.024605
558.0747	0.027898
558.3006	0.026040
558.5266	0.025259
558.7525	0.023823
558.9784	0.026463
559.2044	0.028236
559.4303	0.024858
559.6563	0.025618
559.8823	0.028236
560.1083	0.030158
560.3343	0.031530
560.5603	0.033008
560.7863	0.034169
561.0124	0.035542
561.2384	0.035647
561.4645	0.038075
561.6905	0.034929
561.9166	0.036027
562.1427	0.032353
562.3688	0.033979
562.5949	0.032290
562.8211	0.033979
563.0472	0.033156
563.2733	0.034972
563.4995	0.033684
563.7257	0.037526
563.9519	0.039237
564.1781	0.035943
564.4043	0.038666
564.6305	0.038540
564.8567	0.037716
565.0829	0.041876
565.3092	0.039680
565.5355	0.038308
565.7617	0.037526
565.9880	0.040672
566.2143	0.041327
566.4406	0.044325
566.6669	0.043079
566.8932	0.045233
567.1196	0.046985
567.3459	0.050511
567.5723	0.051630
567.7987	0.057584
568.0250	0.054713
568.2514	0.058830
568.4778	0.061702
568.7043	0.064214
568.9307	0.068437
569.1571	0.071161
569.3836	0.076671
569.6100	0.088516
569.8365	0.095695
570.0630	0.102451
570.2895	0.106357
570.5160	0.104415
570.7425	0.107688
570.9690	0.112523
571.1956	0.122256
571.4221	0.124916
571.6487	0.127197
571.8752	0.132517
572.1018	0.138915
572.3284	0.142272
572.5550	0.130385
572.7816	0.124389
573.0082	0.121813
573.2349	0.126964
573.4615	0.136846
573.6882	0.149240
573.9149	0.153230
574.1415	0.158044
574.3682	0.168981
574.5949	0.172950
574.8216	0.174682
575.0484	0.170121
575.2751	0.179939
575.5018	0.175801
575.7286	0.171388
575.9554	0.163850
576.1821	0.163344
576.4089	0.166109
576.6357	0.174935
576.8626	0.184669
577.0894	0.185809
577.3162	0.190686
577.5431	0.198203
577.7699	0.216445
577.9968	0.249847
578.2237	0.243027
578.4505	0.233125
578.6774	0.214481
578.9044	0.205339
579.1313	0.193959
579.3582	0.190031
579.5851	0.201285
579.8121	0.205656
580.0391	0.210427
580.2660	0.215600
580.4930	0.209541
580.7200	0.205445
580.9470	0.209287
581.1741	0.244125
581.4011	0.291188
581.6281	0.319565
581.8552	0.323407
582.0822	0.316862
582.3093	0.307973
582.5364	0.291526
582.7635	0.267751
582.9906	0.240198
583.2177	0.224046
583.4449	0.210385
583.6720	0.198815
583.8991	0.191826
584.1263	0.198625
584.3535	0.199723
584.5807	0.202489
584.8079	0.214840
585.0351	0.225798
585.2623	0.239142
585.4895	0.239586
585.7167	0.236756
585.9440	0.228965
586.1713	0.217923
586.3985	0.204684
586.6258	0.201306
586.8531	0.204030
587.0804	0.216825
587.3077	0.227656
587.5350	0.228923
587.7624	0.227424
587.9897	0.221723
588.2171	0.205656
588.4445	0.204579
588.6718	0.197316
588.8992	0.189968
589.1266	0.178651
589.3540	0.169234
589.5815	0.161654
589.8089	0.167862
590.0363	0.164484
590.2638	0.158572
590.4913	0.151942
590.7187	0.147867
590.9462	0.138070
591.1737	0.133911
591.4012	0.134059
591.6288	0.133679
591.8563	0.136212
592.0838	0.132581
592.3114	0.137859
592.5389	0.154328
592.7665	0.180024
592.9941	0.200166
593.2217	0.202277
593.4493	0.205909
593.6769	0.196154
593.9046	0.196851
594.1322	0.184669
594.3598	0.174027
594.5875	0.173668
594.8152	0.186104
595.0429	0.193769
595.2705	0.198625
595.4983	0.200863
595.7260	0.189187
595.9537	0.176371
596.1814	0.166384
596.4092	0.155785
596.6369	0.144383
596.8647	0.141069
597.0925	0.144953
597.3203	0.149641
597.5481	0.153568
597.7759	0.151541
598.0037	0.146664
598.2315	0.140752
598.4594	0.144151
598.6872	0.159818
598.9151	0.177046
599.1430	0.189588
599.3709	0.187878
599.5988	0.178651
599.8267	0.178799
600.0546	0.183212
600.2825	0.180868
600.5105	0.182029
600.7384	0.182853
600.9664	0.186928
601.1944	0.189609
601.4223	0.183550
601.6503	0.177173
601.8783	0.170755
602.1064	0.168875
602.3344	0.169340
602.5624	0.169889
602.7905	0.171494
603.0185	0.178250
603.2466	0.180762
603.4747	0.189039
603.7028	0.191678
603.9309	0.186294
604.1590	0.177933
604.3871	0.170966
604.6152	0.160937
604.8434	0.158171
605.0715	0.155764
605.2997	0.158382
605.5279	0.167355
605.7561	0.169361
605.9843	0.176139
606.2125	0.177236
606.4407	0.165371
606.6689	0.160409
606.8972	0.157833
607.1254	0.156376
607.3537	0.159311
607.5819	0.161845
607.8102	0.159163
608.0385	0.158466
608.2668	0.154328
608.4951	0.146157
608.7235	0.144827
608.9518	0.143497
609.1801	0.137310
609.4085	0.134143
609.6369	0.134692
609.8653	0.141322
610.0936	0.147930
610.3220	0.155785
610.5505	0.150190
610.7789	0.142715
611.0073	0.137627
611.2357	0.139802
611.4642	0.137690
611.6927	0.138999
611.9211	0.139633
612.1496	0.133763
612.3781	0.137880
612.6066	0.130638
612.8351	0.130110
613.0637	0.129456
613.2922	0.130617
613.5208	0.128654
613.7493	0.131082
613.9779	0.128654
614.2065	0.127091
614.4351	0.126057
614.6637	0.129730
614.8923	0.127577
615.1209	0.125128
615.3495	0.132496
615.5782	0.132348
615.8068	0.132475
616.0355	0.125613
616.2642	0.122594
616.4929	0.115584
616.7216	0.110876
616.9503	0.111847
617.1790	0.111002
617.4077	0.110960
617.6365	0.111594
617.8652	0.110876
618.0940	0.112692
618.3227	0.110855
618.5515	0.103866
618.7803	0.097849
619.0091	0.094576
619.2379	0.091472
619.4667	0.091937
619.6956	0.090522
619.9244	0.093035
620.1533	0.096413
620.3821	0.096518
620.6110	0.095315
620.8399	0.087629
621.0688	0.081316
621.2977	0.077875
621.5266	0.072829
621.7556	0.078487
621.9845	0.082076
622.2135	0.085138
622.4424	0.086004
622.6714	0.086151
622.9004	0.086278
623.1294	0.088284
623.3584	0.086806
623.5874	0.087482
623.8164	0.088727
624.0454	0.085602
624.2745	0.087439
624.5035	0.088938
624.7326	0.089804
624.9617	0.090691
625.1908	0.087228
625.4199	0.084146
625.6490	0.082499
625.8781	0.081886
626.1072	0.079163
626.3364	0.076629
626.5655	0.075932
626.7947	0.070527
627.0238	0.071330
627.2530	0.070422
627.4822	0.072470
627.7114	0.072322
627.9406	0.069957
628.1698	0.064235
628.3991	0.062082
628.6283	0.059485
628.8576	0.059949
629.0868	0.061744
629.3161	0.062504
629.5454	0.062251
629.7747	0.062314
630.0040	0.064700
630.2333	0.060878
630.4626	0.058345
630.6920	0.058471
630.9213	0.055790
631.1507	0.056128
631.3801	0.053552
631.6094	0.052243
631.8388	0.053911
632.0682	0.054713
632.2976	0.049392
632.5271	0.046500
632.7565	0.049498
632.9859	0.045993
633.2154	0.046267
633.4448	0.046141
633.6743	0.044431
633.9038	0.044409
634.1333	0.043734
634.3628	0.041960
634.5923	0.042277
634.8218	0.040588
635.0514	0.042024
635.2809	0.039279
635.5105	0.041855
635.7400	0.041686
635.9696	0.040693
636.1992	0.044747
636.4288	0.048337
636.6584	0.048337
636.8880	0.043607
637.1177	0.045697
637.3473	0.043628
637.5770	0.041538
637.8066	0.041285
638.0363	0.042340
638.2660	0.042488
638.4957	0.043628
638.7254	0.042361
638.9551	0.042214
639.1848	0.039553
639.4145	0.040757
639.6443	0.037617
639.8740	0.038690
640.1038	0.036576
640.3336	0.038406
640.5633	0.035167
640.7931	0.036532
641.0229	0.033560
641.2528	0.035640
641.4826	0.034800
641.7124	0.033883
641.9423	0.032452
642.1721	0.032513
642.4020	0.029327
642.6319	0.030037
642.8617	0.030336
643.0916	0.029571
643.3216	0.031042
643.5515	0.030794
643.7814	0.028058
644.0113	0.028664
644.2413	0.027274
644.4712	0.028118
644.7012	0.026105
644.9312	0.026908
645.1612	0.029262
645.3912	0.026037
645.6212	0.026690
645.8512	0.028731
646.0812	0.024952
646.3113	0.025937
646.5413	0.026021
646.7714	0.024991
647.0015	0.025183
647.2316	0.022196
647.4616	0.026092
647.6918	0.025541
647.9219	0.025634
648.1520	0.030733
648.3821	0.029516
648.6123	0.030062
648.8424	0.033272
649.0726	0.034285
649.3028	0.031664
649.5329	0.032094
649.7631	0.034817
649.9933	0.032968
650.2236	0.033723
650.4538	0.028647
650.6840	0.028047
650.9143	0.029633
651.1445	0.029235
651.3748	0.029722
651.6051	0.029288
651.8354	0.028768
652.0657	0.028349
652.2960	0.031787
652.5263	0.030795
652.7566	0.030943
652.9870	0.032918
653.2173	0.031772
653.4477	0.032803
653.6780	0.030697
653.9084	0.033917
654.1388	0.034310
654.3692	0.033856
654.5996	0.036808
654.8300	0.039359
655.0605	0.067307
655.2909	0.192629
655.5213	0.532461
655.7518	0.959045
655.9823	1.000000
656.2128	1.000000
656.4433	1.000000
656.6738	1.000000
656.9043	1.000000
657.1348	0.874358
657.3653	0.721387
657.5959	0.618042
657.8264	0.537561
658.0570	0.482487
658.2875	0.454132
658.5181	0.412797
658.7487	0.383562
658.9793	0.367062
659.2099	0.335804
659.4406	0.258758
659.6712	0.172354
659.9018	0.102797
660.1325	0.060530
660.3632	0.037255
660.5938	0.032524
660.8245	0.027410
661.0552	0.024874
661.2859	0.024764
661.5166	0.024316
661.7474	0.023201
661.9781	0.023957
662.2088	0.023122
662.4396	0.022674
662.6704	0.022582
662.9011	0.021586
663.1319	0.023231
663.3627	0.020892
663.5935	0.020528
663.8243	0.021345
664.0552	0.022160
664.2860	0.021664
664.5168	0.021843
664.7477	0.023607
664.9786	0.024221
665.2094	0.024552
665.4403	0.024078
665.6712	0.024333
665.9021	0.023138
666.1330	0.023678
666.3640	0.022997
666.5949	0.023018
666.8259	0.019634
667.0568	0.021389
667.2878	0.020344
667.5188	0.022704
667.7497	0.020614
667.9807	0.023135
668.2117	0.020197
668.4428	0.019833
668.6738	0.020720
668.9048	0.022367
669.1359	0.019748
669.3669	0.020150
669.5980	0.021290
669.8291	0.022198
670.0602	0.022092
670.2913	0.023232
670.5224	0.021670
670.7535	0.023296
670.9846	0.021142
671.2157	0.023992
671.4469	0.028447
671.6781	0.030664
671.9092	0.029820
672.1404	0.033092
672.3716	0.034739
672.6028	0.036133
672.8340	0.033789
673.0652	0.033747
673.2964	0.031572
673.5277	0.031847
673.7589	0.031382
673.9902	0.029672
674.2214	0.029904
674.4527	0.029313
674.6840	0.026273
674.9153	0.027624
675.1466	0.025850
675.3779	0.027265
675.6093	0.025766
675.8406	0.025027
676.0719	0.026969
676.3033	0.025111
676.5347	0.023528
676.7661	0.023676
676.9974	0.024161
677.2288	0.022873
677.4602	0.025576
677.6917	0.028532
677.9231	0.029165
678.1545	0.028743
678.3860	0.028405
678.6174	0.028933
678.8489	0.030495
679.0804	0.031446
679.3119	0.032860
679.5434	0.033261
679.7749	0.034824
680.0064	0.036766
680.2379	0.033979
680.4694	0.035035
680.7010	0.035098
680.9325	0.034444
681.1641	0.032565
681.3957	0.033831
681.6273	0.036935
681.8589	0.035795
682.0905	0.034380
682.3221	0.033895
682.5537	0.033177
682.7854	0.029904
683.0170	0.030200
683.2487	0.029693
683.4803	0.030115
683.7120	0.031931
683.9437	0.031467
684.1754	0.032311
684.4071	0.034507
684.6388	0.037611
684.8705	0.038075
685.1023	0.039933
685.3340	0.042910
685.5658	0.047661
685.7975	0.045740
686.0293	0.045106
686.2611	0.043945
686.4929	0.043860
686.7247	0.042108
686.9565	0.042784
687.1883	0.043692
687.4202	0.044578
687.6520	0.044050
687.8838	0.040778
688.1157	0.038920
688.3476	0.038941
688.5795	0.038709
688.8114	0.039595
689.0433	0.036217
689.2752	0.036851
689.5071	0.036471
689.7390	0.037590
689.9710	0.034655
690.2029	0.034803
690.4349	0.034549
690.6669	0.034676
690.8988	0.034465
691.1308	0.037041
691.3628	0.037336
691.5948	0.038540
691.8269	0.038181
692.0589	0.038308
692.2909	0.037759
692.5230	0.037505
692.7550	0.034486
692.9871	0.038688
693.2192	0.039152
693.4513	0.040820
693.6834	0.037357
693.9155	0.035858
694.1476	0.036956
694.3797	0.034887
694.6119	0.031614
694.8440	0.034549
695.0762	0.033071
695.3083	0.034993
695.5405	0.031931
695.7727	0.029609
696.0049	0.030221
696.2371	0.031424
696.4693	0.031657
696.7016	0.036492
696.9338	0.042108
697.1660	0.039701
697.3983	0.038540
697.6306	0.037885
697.8628	0.039321
698.0951	0.038096
698.3274	0.039237
698.5597	0.037927
698.7920	0.038920
699.0243	0.036808
699.2567	0.034423
699.4890	0.035183
699.7214	0.033557
699.9537	0.031467
700.1861	0.032839
700.4185	0.031023
700.6509	0.030136
700.8833	0.030791
701.1157	0.031023
701.3481	0.029946
701.5806	0.028553
701.8130	0.026969
702.0454	0.029039
702.2779	0.031023
702.5104	0.029756
702.7429	0.029588
702.9753	0.029946
703.2078	0.029566
703.4403	0.027751
703.6729	0.027582
703.9054	0.027033
704.1379	0.029820
704.3705	0.027708
704.6030	0.026695
704.8356	0.024499
705.0682	0.024562
705.3008	0.024520
705.5334	0.025449
705.7660	0.025871
705.9986	0.023845
706.2312	0.027307
706.4638	0.030812
706.6965	0.032923
706.9291	0.033029
707.1618	0.038603
707.3945	0.038730
707.6272	0.037801
707.8599	0.037357
708.0926	0.037569
708.3253	0.036851
708.5580	0.036238
708.7907	0.036154
709.0235	0.037104
709.2562	0.035816
709.4890	0.034634
709.7217	0.034211
709.9545	0.035753
710.1873	0.030707
710.4201	0.034338
710.6529	0.036281
710.8857	0.034233
711.1186	0.031530
711.3514	0.035732
711.5842	0.030622
711.8171	0.030939
712.0500	0.031044
712.2828	0.028595
712.5157	0.028131
712.7486	0.030432
712.9815	0.031002
713.2144	0.030411
713.4474	0.032396
713.6803	0.033810
713.9132	0.036302
714.1462	0.034739
714.3791	0.034401
714.6121	0.034000
714.8451	0.035098
715.0781	0.035584
715.3111	0.034845
715.5441	0.033515
715.7771	0.032185
716.0102	0.032417
716.2432	0.031614
716.4762	0.029862
716.7093	0.030136
716.9424	0.027666
717.1754	0.029102
717.4085	0.029524
717.6416	0.027413
717.8747	0.027582
718.1078	0.030369
718.3410	0.028912
718.5741	0.027729
718.8072	0.027920
719.0404	0.027392
719.2736	0.030538
719.5067	0.030031
719.7399	0.029186
719.9731	0.027983
720.2063	0.029250
720.4395	0.027814
720.6727	0.028553
720.9060	0.028701
721.1392	0.031614
721.3725	0.028447
721.6057	0.029756
721.8390	0.030770
722.0723	0.030158
722.3055	0.029904
722.5388	0.028300
722.7721	0.026420
723.0055	0.028490
723.2388	0.026294
723.4721	0.028257
723.7055	0.028173
723.9388	0.027202
724.1722	0.026927
724.4056	0.027687
724.6389	0.027687
724.8723	0.027455
725.1057	0.030897
725.3391	0.030812
725.5726	0.031973
725.8060	0.032670
726.0394	0.032987
726.2729	0.035520
726.5063	0.033937
726.7398	0.033219
726.9733	0.031952
727.2068	0.032628
727.4403	0.033114
727.6738	0.033008
727.9073	0.034549
728.1408	0.035879
728.3743	0.033177
728.6079	0.036006
728.8414	0.032290
729.0750	0.033325
729.3086	0.036640
729.5421	0.037379
729.7757	0.036682
730.0093	0.038624
730.2429	0.035837
730.4766	0.038730
730.7102	0.038244
730.9438	0.044642
731.1775	0.044367
731.4111	0.041390
731.6448	0.041327
731.8785	0.040440
732.1122	0.039532
732.3458	0.041749
732.5795	0.039870
732.8133	0.043459
733.0470	0.041242
733.2807	0.041855
733.5145	0.041369
733.7482	0.045254
733.9820	0.045697
734.2157	0.052538
734.4495	0.053594
734.6833	0.051440
734.9171	0.048062
735.1509	0.047703
735.3847	0.046352
735.6185	0.046943
735.8524	0.049181
736.0862	0.049646
736.3201	0.046626
736.5539	0.049097
736.7878	0.046816
737.0217	0.046816
737.2556	0.050321
737.4895	0.047661
737.7234	0.045001
737.9573	0.043164
738.1912	0.043333
738.4252	0.040018
738.6591	0.039891
738.8931	0.042002
739.1271	0.043544
739.3610	0.045402
739.5950	0.048527
739.8290	0.045528
740.0630	0.042235
740.2970	0.043396
740.5310	0.041137
740.7651	0.039068
740.9991	0.039448
741.2332	0.037695
741.4672	0.035922
741.7013	0.033261
741.9354	0.035352
742.1695	0.034021
742.4036	0.035457
742.6377	0.036851
742.8718	0.036006
743.1059	0.034824
743.3400	0.031488
743.5742	0.032417
743.8083	0.032100
744.0425	0.027962
744.2767	0.028933
744.5108	0.029799
744.7450	0.028574
744.9792	0.029799
745.2134	0.029714
745.4477	0.027518
745.6819	0.027054
745.9161	0.027624
746.1504	0.028595
746.3846	0.027159
746.6189	0.027265
746.8532	0.027983
747.0874	0.028152
747.3217	0.032206
747.5560	0.031762
747.7903	0.031783
748.0247	0.029419
748.2590	0.029630
748.4933	0.028088
748.7277	0.029503
748.9620	0.030559
749.1964	0.030622
749.4308	0.030538
749.6652	0.034444
749.8995	0.036112
750.1339	0.037167
750.3684	0.041432
750.6028	0.040144
750.8372	0.038033
751.0717	0.038814
751.3061	0.037104
751.5406	0.039933
751.7750	0.040166
752.0095	0.039089
752.2440	0.039300
752.4785	0.038540
752.7130	0.034549
752.9475	0.037949
753.1820	0.038329
753.4166	0.037357
753.6511	0.040905
753.8856	0.040630
754.1202	0.041559
754.3548	0.040989
754.5894	0.037822
754.8239	0.040693
755.0585	0.039448
755.2931	0.039046
755.5278	0.043206
755.7624	0.043311
755.9970	0.043121
756.2317	0.045613
756.4663	0.047408
756.7010	0.049815
756.9356	0.049456
757.1703	0.051483
757.4050	0.057563
757.6397	0.060245
757.8744	0.059696
758.1091	0.057880
758.3438	0.058408
758.5786	0.056064
758.8133	0.052200
759.0481	0.054227
759.2828	0.055853
759.5176	0.057711
759.7524	0.058260
759.9872	0.059654
760.2220	0.059611
760.4568	0.063243
760.6916	0.062905
760.9264	0.061279
761.1613	0.062462
761.3961	0.058471
761.6310	0.055346
761.8658	0.052433
762.1007	0.051081
762.3356	0.048210
762.5705	0.049519
762.8054	0.049181
763.0403	0.050237
763.2752	0.048294
763.5101	0.050722
763.7450	0.047133
763.9800	0.048294
764.2149	0.052179
764.4499	0.056128
764.6849	0.056930
764.9198	0.060920
765.1548	0.057289
765.3898	0.057606
765.6248	0.054945
765.8599	0.053129
766.0949	0.050554
766.3299	0.046816
766.5650	0.045296
766.8000	0.040588
767.0351	0.040905
767.2701	0.038160
767.5052	0.036956
767.7403	0.039933
767.9754	0.041306
768.2105	0.044325
768.4456	0.043037
768.6808	0.048907
768.9159	0.049308
769.1510	0.047661
769.3862	0.046943
769.6214	0.048189
769.8565	0.045444
770.0917	0.044198
770.3269	0.045993
770.5621	0.046669
770.7973	0.043333
771.0325	0.046310
771.2677	0.047809
771.5030	0.048738
771.7382	0.043206
771.9735	0.044029
772.2087	0.042657
772.4440	0.042298
772.6793	0.039511
772.9146	0.041728
773.1499	0.039553
773.3852	0.037864
773.6205	0.038160
773.8558	0.038561
774.0911	0.036027
774.3265	0.033810
774.5618	0.032945
774.7972	0.030517
775.0326	0.029778
775.2679	0.030390
775.5033	0.029165
775.7387	0.028468
775.9741	0.027898
776.2095	0.025196
776.4450	0.024858
776.6804	0.025069
776.9158	0.025956
777.1513	0.025111
777.3868	0.024478
777.6222	0.024309
777.8577	0.024710
778.0932	0.023823
778.3287	0.025850
778.5642	0.028595
778.7997	0.026653
779.0352	0.029017
779.2707	0.031488
779.5063	0.031298
779.7418	0.032375
779.9774	0.029989
780.2130	0.029566
780.4485	0.027856
780.6841	0.028975
780.9197	0.032142
781.1553	0.033810
781.3909	0.034739
781.6265	0.035753
781.8622	0.034760
782.0978	0.035647
782.3335	0.035119
782.5691	0.033008
782.8048	0.036682
783.0405	0.031424
783.2761	0.035626
783.5118	0.035162
783.7475	0.036238
783.9832	0.033768
784.2190	0.031065
784.4547	0.032290
784.6904	0.029545
784.9262	0.028342
785.1619	0.028912
785.3977	0.028257
785.6335	0.026568
785.8692	0.029862
786.1050	0.029545
786.3408	0.030538
786.5766	0.027983
786.8124	0.028131
787.0483	0.027497
787.2841	0.026927
787.5199	0.028764
787.7558	0.029334
787.9917	0.030284
788.2275	0.029841
788.4634	0.030812
788.6993	0.030538
788.9352	0.030981
789.1711	0.033008
789.4070	0.029186
789.6429	0.029735
789.8789	0.027349
790.1148	0.029081
790.3507	0.027941
790.5867	0.024795
790.8227	0.025344
791.0586	0.025301
791.2946	0.022324
791.5306	0.026568
791.7666	0.025048
792.0026	0.024752
792.2387	0.024077
792.4747	0.022937
792.7107	0.021670
792.9468	0.022747
793.1828	0.023464
793.4189	0.022261
793.6550	0.023486
793.8910	0.027138
794.1271	0.030517
794.3632	0.029841
794.5993	0.031530
794.8355	0.029651
795.0716	0.032311
795.3077	0.033451
795.5439	0.031530
795.7800	0.026568
796.0162	0.026568
796.2523	0.024098
796.4885	0.023507
796.7247	0.021754
796.9609	0.020804
797.1971	0.021902
797.4333	0.022261
797.6695	0.023612
797.9058	0.023971
798.1420	0.022747
798.3783	0.023929
798.6145	0.022008
798.8508	0.023063
799.0871	0.024752
799.3233	0.022324
799.5596	0.020910
799.7959	0.021839
800.0322	0.020825
800.2686	0.019009
800.5049	0.020234
800.7412	0.019094
800.9776	0.019390
801.2139	0.020044
801.4503	0.019453
801.6867	0.018777
801.9230	0.016624
802.1594	0.017806
802.3958	0.015293
802.6322	0.016265
802.8686	0.017489
803.1051	0.016919
803.3415	0.018376
803.5779	0.018418
803.8144	0.018313
804.0508	0.016708
804.2873	0.017532
804.5238	0.017637
804.7603	0.014744
804.9968	0.016814
805.2333	0.017468
805.4698	0.017130
805.7063	0.016138
805.9428	0.019390
806.1794	0.022050
806.4159	0.021881
806.6525	0.024541
806.8890	0.024098
807.1256	0.021522
807.3622	0.022979
807.5988	0.023084
807.8354	0.023380
808.0720	0.023148
808.3086	0.023338
808.5452	0.022831
808.7818	0.021944
809.0185	0.021058
809.2551	0.022958
809.4918	0.021395
809.7284	0.019622
809.9651	0.019284
810.2018	0.019200
810.4385	0.018165
810.6752	0.018841
810.9119	0.018756
811.1486	0.019685
811.3853	0.019791
811.6221	0.017954
811.8588	0.016687
812.0956	0.017912
812.3323	0.015568
812.5691	0.015357
812.8059	0.014829
813.0427	0.013203
813.2795	0.012929
813.5163	0.016054
813.7531	0.018545
813.9899	0.019178
814.2267	0.018186
814.4636	0.018144
814.7004	0.017616
814.9373	0.016539
815.1742	0.015061
815.4110	0.014554
815.6479	0.015103
815.8848	0.013731
816.1217	0.014343
816.3586	0.014407
816.5955	0.015293
816.8324	0.013815
817.0694	0.014744
817.3063	0.013583
817.5433	0.014512
817.7802	0.012675
818.0172	0.016117
818.2542	0.012865
818.4912	0.013942
818.7282	0.013034
818.9652	0.012612
819.2022	0.012844
819.4392	0.013414
819.6762	0.010986
819.9133	0.012464
820.1503	0.012316
820.3874	0.013879
820.6244	0.014998
820.8615	0.017384
821.0986	0.015040
821.3357	0.016222
821.5727	0.014301
821.8099	0.014132
822.0470	0.011514
822.2841	0.013393
822.5212	0.011535
822.7584	0.014048
822.9955	0.011472
823.2327	0.013288
823.4698	0.011957
823.7070	0.011810
823.9442	0.010712
824.1814	0.011007
824.4186	0.010543
824.6558	0.012000
824.8930	0.011514
825.1302	0.012739
825.3675	0.010332
825.6047	0.012718
825.8419	0.011071
826.0792	0.011599
826.3165	0.012591
826.5537	0.011852
826.7910	0.013098
827.0283	0.013330
827.2656	0.013161
827.5029	0.014787
827.7402	0.013604
827.9776	0.014301
828.2149	0.010944
828.4522	0.013752
828.6896	0.011409
828.9270	0.013879
829.1643	0.010691
829.4017	0.011894
829.6391	0.012042
829.8765	0.011240
830.1139	0.011303
830.3513	0.011535
830.5887	0.009107
830.8261	0.008980
831.0636	0.009677
831.3010	0.007756
831.5385	0.008980
831.7759	0.008009
832.0134	0.007882
832.2509	0.006806
832.4884	0.007925
832.7259	0.009403
832.9634	0.008748
833.2009	0.008938
833.4384	0.007671
833.6759	0.011071
833.9135	0.009741
834.1510	0.010606
834.3886	0.009909
834.6261	0.010627
834.8637	0.009846
835.1013	0.012063
835.3389	0.010289
835.5765	0.009909
835.8141	0.010142
836.0517	0.008980
836.2893	0.008685
836.5269	0.009825
836.7646	0.006236
837.0022	0.007777
837.2399	0.008030
837.4775	0.007376
837.7152	0.006405
837.9529	0.006489
838.1906	0.008094
838.4283	0.006088
838.6660	0.005497
838.9037	0.008009
839.1414	0.005792
839.3791	0.007017
839.6169	0.006637
839.8546	0.007946
840.0924	0.007671
840.3302	0.007481
840.5679	0.007017
840.8057	0.007671
841.0435	0.006996
841.2813	0.006172
841.5191	0.007481
841.7569	0.006637
841.9947	0.006046
842.2326	0.006236
842.4704	0.005623
842.7082	0.007144
842.9461	0.003913
843.1840	0.005159
843.4218	0.005159
843.6597	0.006046
843.8976	0.003913
844.1355	0.006531
844.3734	0.004504
844.6113	0.004715
844.8492	0.004758
845.0872	0.006024
845.3251	0.005349
845.5631	0.006278
845.8010	0.005074
846.0390	0.006003
846.2770	0.005412
846.5149	0.005792
846.7529	0.005159
846.9909	0.005454
847.2289	0.004335
847.4669	0.004124
847.7050	0.005644
847.9430	0.004356
848.1810	0.006785
848.4191	0.004990
848.6571	0.002308
848.8952	0.006024
849.1333	0.005729
849.3713	0.004652
849.6094	0.004927
849.8475	0.004504
850.0856	0.004293
850.3237	0.003512
850.5619	0.005307
850.8000	0.003596
851.0381	0.003195
851.2763	0.005708
851.5144	0.006552
851.7526	0.006890
851.9908	0.004715
852.2289	0.004314
852.4671	0.005771
852.7053	0.008305
852.9435	0.009403
853.1817	0.012021
853.4200	0.012612
853.6582	0.015716
853.8964	0.013689
854.1347	0.013858
854.3729	0.012126
854.6112	0.014132
854.8495	0.014660
855.0877	0.013457
855.3260	0.012865
855.5643	0.011767
855.8026	0.012971
856.0409	0.012865
856.2792	0.012380
856.5176	0.010036
856.7559	0.011324
856.9942	0.010479
857.2326	0.010944
857.4710	0.010057
857.7093	0.011514
857.9477	0.010585
858.1861	0.010332
858.4245	0.009128
858.6629	0.007861
858.9013	0.010860
859.1397	0.008178
859.3781	0.008157
859.6166	0.010332
859.8550	0.010247
860.0935	0.008896
860.3319	0.007144
860.5704	0.007460
860.8089	0.008410
861.0473	0.006426
861.2858	0.006383
861.5243	0.006278
861.7628	0.006953
862.0013	0.006742
862.2399	0.006299
862.4784	0.004948
862.7169	0.004694
862.9555	0.004905
863.1940	0.006869
863.4326	0.007629
863.6712	0.006172
863.9098	0.007228
864.1483	0.006742
864.3869	0.005560
864.6255	0.007376
864.8642	0.005053
865.1028	0.006046
865.3414	0.006151
865.5800	0.005666
865.8187	0.005095
866.0573	0.005159
866.2960	0.003871
866.5347	0.004547
866.7733	0.004715
867.0120	0.005750
867.2507	0.005581
867.4894	0.004990
867.7281	0.005222
867.9669	0.005877
868.2056	0.004504
868.4443	0.005349
868.6831	0.003427
868.9218	0.005919
869.1606	0.004927
869.3993	0.005328
869.6381	0.005201
869.8769	0.004547
870.1157	0.004251
870.3545	0.004251
870.5933	0.003005
870.8321	0.005180
871.0709	0.005834
871.3097	0.005095
871.5486	0.005771
871.7874	0.005602
872.0263	0.003660
872.2651	0.006088
872.5040	0.003153
872.7429	0.005138
872.9818	0.003259
873.2207	0.004758
873.4596	0.005032
873.6985	0.006024
873.9374	0.004378
874.1763	0.005687
874.4153	0.005919
874.6542	0.004631
874.8932	0.005201
875.1321	0.006151
875.3711	0.005370
875.6101	0.005349
875.8491	0.005053
876.0880	0.006278
876.3270	0.005454
876.5661	0.005201
876.8051	0.004251
877.0441	0.004314
877.2831	0.005834
877.5222	0.005623
877.7612	0.006426
878.0003	0.006024
878.2393	0.006468
878.4784	0.006785
878.7175	0.006616
878.9566	0.007122
879.1957	0.008516
879.4348	0.007291
879.6739	0.008051
879.9130	0.007608
880.1521	0.008812
880.3913	0.007460
880.6304	0.008833
880.8696	0.008896
881.1087	0.008347
881.3479	0.008157
881.5871	0.007397
881.8262	0.006996
882.0654	0.007207
882.3046	0.005644
882.5438	0.005581
882.7831	0.007017
883.0223	0.007777
883.2615	0.005856
883.5007	0.007101
883.7400	0.006024
883.9792	0.004694
884.2185	0.005560
884.4578	0.005497
884.6971	0.003174
884.9363	0.007249
885.1756	0.006362
885.4149	0.006721
885.6542	0.006172
885.8936	0.009065
886.1329	0.005095
886.3722	0.005391
886.6116	0.006088
886.8509	0.004842
887.0903	0.004589
887.3296	0.006996
887.5690	0.004758
887.8084	0.006151
888.0478	0.006426
888.2872	0.005264
888.5266	0.004737
888.7660	0.005877
889.0054	0.004715
889.2448	0.005264
889.4843	0.004715
889.7237	0.004863
889.9632	0.004842
890.2026	0.006848
890.4421	0.004715
890.6816	0.005117
890.9211	0.004145
891.1606	0.003132
891.4001	0.003005
891.6396	0.004884
891.8791	0.004863
892.1186	0.005222
892.3581	0.005560
892.5977	0.005264
892.8372	0.004547
893.0768	0.005011
893.3163	0.005264
893.5559	0.004631
893.7955	0.005095
894.0351	0.004314
894.2747	0.003005
894.5143	0.002625
894.7539	0.003702
894.9935	0.004103
895.2331	0.004694
895.4727	0.005032
895.7124	0.005117
895.9520	0.005391
896.1917	0.004441
896.4314	0.003871
896.6710	0.004990
896.9107	0.003892
897.1504	0.005285
897.3901	0.004673
897.6298	0.005539
897.8695	0.004124
898.1092	0.004209
898.3489	0.005581
898.5887	0.005053
898.8284	0.005222
899.0682	0.004082
899.3079	0.005476
899.5477	0.003681
899.7875	0.004779
900.0272	0.003702
900.2670	0.003618
900.5068	0.003301
900.7466	0.005666
900.9864	0.003955
901.2263	0.004462
901.4661	0.004694
901.7059	0.005834
901.9458	0.005666
902.1856	0.003892
902.4255	0.003681
902.6654	0.004927
902.9052	0.004652
903.1451	0.003406
903.3850	0.003829
903.6249	0.003871
903.8648	0.004420
904.1047	0.006067
904.3446	0.003237
904.5846	0.005813
904.8245	0.004694
905.0644	0.006109
905.3044	0.004715
905.5444	0.005264
905.7843	0.004715
906.0243	0.005370
906.2643	0.004019
906.5043	0.006067
906.7443	0.003090
906.9843	0.002900
907.2243	0.004420
907.4643	0.004272
907.7043	0.003744
907.9444	0.005264
908.1844	0.005138
908.4245	0.003618
908.6645	0.004715
908.9046	0.004251
909.1447	0.002604
909.3847	0.003047
909.6248	0.002879
909.8649	0.004525
910.1050	0.004610
910.3452	0.003259
910.5853	0.003934
910.8254	0.005391
911.0655	0.003533
911.3057	0.003322
911.5458	0.003406
911.7860	0.005138
912.0262	0.002520
912.2663	0.003512
912.5065	0.003237
912.7467	0.002984
912.9869	0.003829
913.2271	0.003090
913.4673	0.003575
913.7075	0.004335
913.9478	0.002055
914.1880	0.003998
914.4283	0.003069
914.6685	0.002435
914.9088	0.001232
915.1490	0.002414
915.3893	0.002815
915.6296	0.002921
915.8699	0.003998
916.1102	0.003871
916.3505	0.002308
916.5908	0.003786
916.8311	0.003512
917.0714	0.002879
917.3118	0.002900
917.5521	0.005792
917.7925	0.003913
918.0328	0.005412
918.2732	0.003681
918.5136	0.004842
918.7539	0.003174
918.9943	0.002794
919.2347	0.005539
919.4751	0.004990
919.7155	0.003829
919.9560	0.003090
920.1964	0.004293
920.4368	0.002604
920.6773	0.003216
920.9177	0.003364
921.1582	0.003026
921.3986	0.003723
921.6391	0.003406
921.8796	0.002456
922.1201	0.002520
922.3606	0.002625
922.6011	0.003237
922.8416	0.003427
923.0821	0.003153
923.3226	0.004272
923.5631	0.002794
923.8037	0.001696
924.0442	0.002245
924.2848	0.001886
924.5254	0.003237
924.7659	0.003681
925.0065	0.002203
925.2471	0.003069
925.4877	0.002688
925.7283	0.002752
925.9689	0.001232
926.2095	0.002794
926.4501	0.000999
926.6908	0.002118
926.9314	0.001971
927.1720	0.003385
927.4127	-0.000542
927.6533	0.003090
927.8940	0.001189
928.1347	0.002330
928.3754	0.002013
928.6161	0.003322
928.8568	0.002477
929.0975	0.002942
929.3382	0.002287
929.5789	0.002984
929.8196	0.002224
930.0604	0.002308
930.3011	0.001211
930.5419	0.003195
930.7826	-0.000035
931.0234	0.002477
931.2642	0.002562
931.5049	0.001527
931.7457	0.000894
931.9865	0.002330
932.2273	0.001527
932.4681	0.001253
932.7089	0.003449
932.9498	0.003237
933.1906	0.002287
933.4314	0.002076
933.6723	0.001907
933.9131	0.003237
934.1540	0.002604
934.3949	0.002900
934.6358	0.001886
934.8766	0.003575
935.1175	0.000957
935.3584	0.002963
935.5993	0.001316
935.8403	0.003195
936.0812	0.002034
936.3221	0.001527
936.5630	0.002520
936.8040	0.002182
937.0449	0.000978
937.2859	0.002013
937.5269	0.002140
937.7678	-0.000352
938.0088	0.001548
938.2498	0.002203
938.4908	0.000999
938.7318	0.002583
938.9728	0.001337
939.2138	0.001907
939.4549	0.003026
939.6959	0.001696
939.9369	0.002815
940.1780	0.001063
940.4190	0.002034
940.6601	-0.000035
940.9012	0.000936
941.1422	0.001464
941.3833	0.000830
941.6244	0.000493
941.8655	0.000239
942.1066	0.002245
942.3477	0.001971
942.5889	0.002076
942.8300	0.001612
943.0711	-0.000077
943.3123	0.000218
943.5534	0.000809
943.7946	0.001337
944.0357	0.001548
944.2769	0.002330
944.5181	0.001485
944.7593	0.001337
945.0005	0.000852
945.2417	0.001654
945.4829	0.001612
945.7241	0.001211
945.9653	0.001971
946.2066	0.001147
946.4478	0.002182
946.6891	0.002118
946.9303	0.000429
947.1716	0.000260
947.4128	-0.000246
947.6541	0.000007
947.8954	0.001147
948.1367	0.001569
948.3780	0.000662
948.6193	0.000091
948.8606	0.001084
949.1019	0.001274
949.3433	0.000408
949.5846	0.001654
949.8259	0.000239
950.0673	0.000366
950.3086	0.001548
950.5500	0.000345
950.7914	0.000493
951.0327	0.001548
951.2741	0.001274
951.5155	0.001802
951.7569	0.000957
951.9983	0.001358
952.2398	0.000007
952.4812	0.000577
952.7226	0.000493
952.9640	0.002055
953.2055	0.001464
953.4469	0.001865
953.6884	0.000239
953.9299	0.001612
954.1713	0.001295
954.4128	0.000683
954.6543	0.000978
954.8958	0.001675
955.1373	0.001548
955.3788	0.001844
955.6203	0.001147
955.8618	-0.000077
956.1034	0.000387
956.3449	0.000830
956.5865	0.001675
956.8280	0.000978
957.0696	0.000577
957.3111	0.001232
957.5527	0.000113
957.7943	0.001316
958.0359	0.000472
958.2775	0.001971
958.5191	-0.000014
958.7607	0.000704
959.0023	0.000577
959.2439	0.001612
959.4856	0.001379
959.7272	0.002308
959.9688	-0.000331
960.2105	0.000155
960.4522	-0.000584
960.6938	0.000028
960.9355	0.000028
961.1772	0.000999
961.4189	0.001464
961.6606	0.000197
961.9023	0.001717
962.1440	0.001464
962.3857	0.000028
962.6274	0.000324
962.8692	0.000028
963.1109	0.000345
963.3527	0.000472
963.5944	-0.000141
963.8362	0.000788
964.0779	0.001591
964.3197	0.000028
964.5615	0.002140
964.8033	-0.001112
965.0451	0.001992
965.2869	0.002351
965.5287	0.000113
965.7705	0.000957
966.0123	-0.000141
966.2542	0.000915
966.4960	0.002013
966.7379	0.001126
966.9797	0.000260
967.2216	0.000218
967.4634	0.001506
967.7053	0.000197
967.9472	0.000387
968.1891	0.000894
968.4310	0.000324
968.6729	-0.000669
968.9148	0.001548
969.1567	0.001211
969.3987	0.001506
969.6406	0.000049
969.8825	0.001633
970.1245	0.000197
970.3664	0.002351
970.6084	-0.000141
970.8504	0.000830
971.0923	-0.000690
971.3343	0.000598
971.5763	-0.000289
971.8183	0.001189
972.0603	0.000830
972.3023	0.001189
972.5443	0.000683
972.7864	0.001422
973.0284	0.000472
973.2704	0.001612
973.5125	0.000387
973.7545	0.000619
973.9966	-0.000204
974.2387	0.002372
974.4807	-0.000436
974.7228	0.001126
974.9649	0.000767
975.2070	-0.000120
975.4491	0.000556
975.6912	0.000725
975.9333	0.000387
976.1755	0.000788
976.4176	0.000324
976.6597	0.000472
976.9019	-0.000415
977.1440	0.000345
977.3862	-0.000436
977.6283	0.001211
977.8705	-0.000014
978.1127	0.000049
978.3549	0.000788
978.5971	0.000767
978.8393	0.001211
979.0815	0.000535
979.3237	0.000070
979.5659	0.001401
979.8082	0.000113
980.0504	-0.000457
980.2926	0.000049
980.5349	0.000619
980.7771	0.000155
981.0194	0.002118
981.2617	0.000155
981.5040	-0.000120
981.7462	-0.000141
981.9885	0.000155
982.2308	-0.000690
982.4731	0.001379
982.7155	-0.000289
982.9578	-0.001323
983.2001	0.000345
983.4424	0.000493
983.6848	-0.000922
983.9271	0.000345
984.1695	-0.000690
984.4118	0.001485
984.6542	-0.001957
984.8966	0.000767
985.1390	0.000070
985.3814	-0.000415
985.6238	-0.000141
985.8662	0.001506
986.1086	0.001422
986.3510	0.001232
986.5934	0.002140
986.8358	-0.000901
987.0783	0.000282
987.3207	0.000028
987.5632	0.000767
987.8056	-0.000120
988.0481	0.000809
988.2906	-0.001239
988.5331	-0.000563
988.7756	0.000091
989.0180	0.000450
989.2605	0.000514
989.5031	-0.000225
989.7456	-0.000099
989.9881	-0.000838
990.2306	0.001443
990.4732	0.001211
990.7157	0.001485
990.9582	-0.000479
991.2008	0.001168
991.4434	-0.000500
991.6859	0.000535
991.9285	-0.000542
992.1711	-0.000120
992.4137	0.000134
992.6563	0.000450
992.8989	0.001717
993.1415	-0.000415
993.3841	-0.000056
993.6267	0.000640
993.8694	0.000197
994.1120	-0.000479
994.3547	0.000260
994.5973	0.000028
994.8400	-0.001196
995.0826	0.000282
995.3253	0.001422
995.5680	0.000894
995.8107	0.000809
996.0534	0.000915
996.2961	0.000788
996.5388	0.000535
996.7815	-0.000563
997.0242	0.000450
997.2670	-0.000605
997.5097	0.000725
997.7524	-0.000289
997.9952	0.000830
998.2379	-0.000246
998.4807	0.001464
998.7235	-0.000901
998.9662	-0.000394
999.2090	-0.000394
999.4518	-0.000225
999.6946	0.000915
999.9374	-0.000626
1000.1802	0.000345
1000.4230	0.000091
1000.6659	0.001274
1000.9087	0.001042
1001.1515	0.000176
1001.3944	-0.000985
1001.6372	0.001337
1001.8801	-0.000626
1002.1230	-0.000099
1002.3658	-0.000795
1002.6087	0.000324
1002.8516	0.000662
1003.0945	-0.000225
1003.3374	0.000324
1003.5803	0.000197
1003.8232	0.000091
1004.0661	0.000028
1004.3091	0.001168
1004.5520	0.001506
1004.7949	-0.000077
1005.0379	0.000852
1005.2808	0.000746
1005.5238	0.001211
1005.7667	-0.000605
1006.0097	0.000894
1006.2527	-0.000542
1006.4957	0.001358
1006.7387	0.000028
1006.9817	-0.000035
1007.2247	0.000070
1007.4677	0.000260
1007.7107	-0.000267
1007.9538	0.000493
1008.1968	-0.001386
1008.4398	0.001506
1008.6829	-0.000626
1008.9259	0.000662
1009.1690	0.000915
1009.4121	0.000725
1009.6551	0.000028
1009.8982	-0.001070
1010.1413	-0.000985
1010.3844	0.000577
1010.6275	0.001379
1010.8706	0.000978
1011.1137	-0.001830
1011.3568	-0.000099
1011.6000	0.000640
1011.8431	0.000767
1012.0863	0.000134
1012.3294	0.002182
1012.5726	-0.000162
1012.8157	0.000852
1013.0589	0.000915
1013.3021	-0.001028
1013.5452	-0.000647
1013.7884	0.001126
1014.0316	0.000788
1014.2748	0.000007
1014.5180	-0.000267
1014.7613	0.001548
1015.0045	0.001612
1015.2477	-0.000056
1015.4909	0.000028
1015.7342	0.000535
1015.9774	0.000514
1016.2207	0.000640
1016.4640	0.000957
1016.7072	-0.000584
1016.9505	-0.000626
1017.1938	-0.000162
1017.4371	0.000091
1017.6804	0.000366
1017.9237	0.001232
1018.1670	0.000408
1018.4103	0.001886
1018.6536	0.001253
1018.8969	-0.002041
1019.1403	0.000493
1019.3836	0.000957
1019.6270	-0.000120
1019.8703	0.000450
1020.1137	0.001464
1020.3571	-0.000605
1020.6004	0.001147
1020.8438	0.000408
1021.0872	-0.000774
1021.3306	0.000450
1021.5740	0.000725
1021.8174	-0.000943
1022.0608	0.000873
1022.3042	0.000429
1022.5477	-0.001534
1022.7911	-0.001218
1023.0345	-0.001640
