# Wavelength (nm)	Intensity (a.u.)
197.7802	0.000922
197.9842	-0.001295
198.1882	0.000436
198.3922	-0.001295
198.5963	0.000795
198.8003	0.000035
199.0044	0.000838
199.2085	-0.001739
199.4126	0.000500
199.6168	0.000605
199.8209	0.000458
200.0251	-0.000556
200.2292	0.000246
200.4334	-0.000282
200.6376	-0.000176
200.8418	0.000711
201.0461	0.002295
201.2503	-0.000619
201.4546	-0.001063
201.6589	-0.000472
201.8631	0.000014
202.0674	0.000753
202.2718	-0.000451
202.4761	-0.000514
202.6805	0.001851
202.8848	-0.000451
203.0892	-0.000176
203.2936	-0.000176
203.4980	0.000711
203.7024	0.000922
203.9069	0.000056
204.1113	0.000289
204.3158	0.000500
204.5203	-0.000873
204.7248	0.000077
204.9293	-0.000535
205.1338	0.000859
205.3384	-0.000155
205.5430	-0.000345
205.7475	-0.000429
205.9521	0.000415
206.1567	-0.000408
206.3614	-0.000683
206.5660	-0.001168
206.7706	-0.000451
206.9753	0.000880
207.1800	-0.000028
207.3847	-0.000514
207.5894	-0.000641
207.7941	-0.001105
207.9989	-0.000218
208.2036	-0.000366
208.4084	0.000099
208.6132	0.000732
208.8180	0.000880
209.0228	-0.000197
209.2276	0.000077
209.4325	-0.000429
209.6373	0.000753
209.8422	-0.000429
210.0471	0.000310
210.2520	-0.001000
210.4569	0.000542
210.6618	-0.001591
210.8668	-0.000387
211.0718	-0.000472
211.2767	0.000162
211.4817	-0.001464
211.6867	-0.000429
211.8918	-0.000007
212.0968	0.000690
212.3018	-0.000429
212.5069	-0.000218
212.7120	0.000563
212.9171	-0.000092
213.1222	-0.000641
213.3273	0.000373
213.5325	0.000648
213.7376	0.000373
213.9428	-0.000345
214.1480	0.000817
214.3532	-0.000556
214.5584	-0.000176
214.7636	-0.001380
214.9689	0.000162
215.1741	-0.000683
215.3794	-0.000831
215.5847	0.000732
215.7900	0.000183
215.9953	-0.001042
216.2007	0.000458
216.4060	0.000753
216.6114	0.001492
216.8168	-0.000007
217.0222	0.000415
217.2276	-0.000894
217.4330	0.000289
217.6384	0.000584
217.8439	-0.000387
218.0494	-0.000260
218.2548	0.000204
218.4603	0.000331
218.6659	-0.000683
218.8714	0.000690
219.0769	-0.000113
219.2825	-0.001063
219.4881	0.000352
219.6936	-0.001126
219.8992	0.000289
220.1049	-0.000134
220.3105	0.000774
220.5161	-0.000197
220.7218	-0.000451
220.9275	-0.001168
221.1332	0.000183
221.3389	-0.001316
221.5446	0.000331
221.7503	0.000373
221.9561	0.001091
222.1618	-0.000197
222.3676	0.000141
222.5734	-0.000260
222.7792	0.001133
222.9850	0.000099
223.1909	-0.000767
223.3967	-0.001232
223.6026	0.000669
223.8085	0.000056
224.0144	-0.001253
224.2203	-0.000007
224.4262	-0.000704
224.6322	0.000120
224.8381	-0.000514
225.0441	-0.000303
225.2501	-0.000746
225.4561	0.000225
225.6621	0.000838
225.8681	0.000289
226.0742	0.000648
226.2802	-0.000007
226.4863	-0.000429
226.6924	0.000648
226.8985	0.000373
227.1046	0.000880
227.3107	0.001239
227.5169	-0.000007
227.7230	0.000099
227.9292	0.000415
228.1354	-0.000472
228.3416	-0.000788
228.5478	0.000521
228.7541	0.000225
228.9603	0.000711
229.1666	0.000985
229.3729	-0.000218
229.5791	-0.000028
229.7855	0.000690
229.9918	-0.000028
230.1981	0.000289
230.4045	-0.001000
230.6108	-0.000345
230.8172	-0.000831
231.0236	0.000225
231.2300	0.000774
231.4364	-0.000218
231.6429	0.000436
231.8493	0.000373
232.0558	0.000584
232.2623	0.000901
232.4688	-0.000788
232.6753	0.000458
232.8818	0.000141
233.0884	0.000922
233.2949	-0.000408
233.5015	0.001851
233.7081	-0.000197
233.9147	-0.000852
234.1213	-0.001253
234.3279	0.000246
234.5346	0.000204
234.7413	-0.000324
234.9479	0.000246
235.1546	-0.000282
235.3613	-0.000260
235.5680	0.001703
235.7748	0.000436
235.9815	0.000352
236.1883	0.000310
236.3951	0.001915
236.6018	-0.000725
236.8087	0.001112
237.0155	-0.000514
237.2223	0.000246
237.4292	0.000289
237.6360	0.000014
237.8429	-0.000556
238.0498	0.000204
238.2567	0.000795
238.4636	0.001556
238.6706	-0.000218
238.8775	-0.000028
239.0845	-0.000408
239.2915	0.000563
239.4985	-0.000894
239.7055	0.000162
239.9125	0.000014
240.1195	0.001302
240.3266	-0.000704
240.5337	-0.000070
240.7407	-0.000303
240.9478	-0.000260
241.1549	-0.000788
241.3621	0.000985
241.5692	-0.000788
241.7764	-0.001549
241.9835	0.000141
242.1907	0.002147
242.3979	-0.000514
242.6051	0.000458
242.8124	-0.000070
243.0196	-0.000049
243.2269	-0.000915
243.4341	-0.000324
243.6414	-0.000683
243.8487	-0.000028
244.0560	-0.000598
244.2634	0.000246
244.4707	0.000373
244.6781	-0.000725
244.8854	-0.000345
245.0928	-0.001168
245.3002	-0.001443
245.5076	0.000964
245.7151	-0.000556
245.9225	-0.000134
246.1300	-0.000493
246.3375	-0.000852
246.5449	-0.000282
246.7524	0.001197
246.9600	-0.000282
247.1675	0.001450
247.3750	0.000479
247.5826	0.000943
247.7902	-0.001253
247.9978	-0.000683
248.2054	0.000331
248.4130	0.000162
248.6206	-0.000852
248.8283	-0.000831
249.0359	-0.000176
249.2436	-0.000155
249.4513	-0.000704
249.6590	-0.000598
249.8667	-0.000176
250.0745	-0.000239
250.2822	0.000162
250.4900	0.001197
250.6978	0.000289
250.9056	-0.000282
251.1134	-0.000619
251.3212	0.000795
251.5290	0.000584
251.7369	-0.000598
251.9447	0.002569
252.1526	0.000479
252.3605	-0.000070
252.5684	0.000331
252.7763	-0.000282
252.9843	0.000985
253.1922	0.001344
253.4002	0.000436
253.6082	0.000077
253.8162	-0.000809
254.0242	0.001028
254.2322	-0.000493
254.4402	0.000563
254.6483	0.001556
254.8564	0.000141
255.0644	0.000795
255.2725	0.000521
255.4806	-0.000957
255.6888	-0.000641
255.8969	0.001661
256.1051	0.000077
256.3132	0.000901
256.5214	0.000141
256.7296	0.000394
256.9378	-0.000197
257.1460	-0.000303
257.3543	0.000584
257.5625	0.000648
257.7708	-0.000619
257.9791	0.000099
258.1874	0.000859
258.3957	-0.000260
258.6040	-0.000282
258.8124	0.000774
259.0207	-0.000324
259.2291	0.000753
259.4375	-0.000366
259.6459	-0.000028
259.8543	-0.000324
260.0627	-0.000831
260.2711	-0.000683
260.4796	0.000648
260.6881	-0.000725
260.8965	-0.000472
261.1050	-0.000788
261.3135	-0.002077
261.5221	-0.000197
261.7306	0.001978
261.9392	0.000204
262.1477	-0.001105
262.3563	0.000373
262.5649	-0.000070
262.7735	-0.000514
262.9822	0.000753
263.1908	0.000225
263.3995	-0.000788
263.6081	-0.000303
263.8168	-0.000641
264.0255	-0.000303
264.2342	0.001176
264.4429	0.000310
264.6517	0.000289
264.8604	-0.000092
265.0692	0.001112
265.2780	0.000415
265.4868	0.000985
265.6956	-0.000324
265.9044	0.001302
266.1133	-0.000809
266.3221	-0.000767
266.5310	-0.000915
266.7399	0.001197
266.9488	0.000584
267.1577	0.000985
267.3666	0.000605
267.5755	0.000458
267.7845	0.000584
267.9935	-0.001021
268.2024	-0.000514
268.4114	-0.000873
268.6205	0.000922
268.8295	0.000753
269.0385	-0.001042
269.2476	-0.000070
269.4566	-0.000260
269.6657	0.000120
269.8748	0.000880
270.0839	0.001408
270.2931	-0.000113
270.5022	-0.000725
270.7114	0.000141
270.9205	0.000415
271.1297	-0.000155
271.3389	0.000436
271.5481	0.000943
271.7573	-0.000619
271.9666	0.000120
272.1758	0.000289
272.3851	0.000626
272.5944	0.001408
272.8037	0.001176
273.0130	-0.000197
273.2223	-0.001211
273.4316	0.000669
273.6410	0.000289
273.8504	0.000880
274.0597	-0.000070
274.2691	-0.000113
274.4785	-0.001084
274.6880	0.000204
274.8974	-0.000767
275.1069	-0.000260
275.3163	-0.001147
275.5258	0.000838
275.7353	-0.000092
275.9448	0.000289
276.1543	0.000394
276.3639	0.000563
276.5734	0.000310
276.7830	0.001429
276.9926	0.000120
277.2022	-0.000134
277.4118	0.000352
277.6214	0.000077
277.8310	0.000352
278.0407	0.000035
278.2503	-0.000429
278.4600	0.000943
278.6697	-0.000303
278.8794	0.001999
279.0891	-0.001232
279.2989	0.000479
279.5086	0.000373
279.7184	0.001154
279.9281	-0.000451
280.1379	-0.000176
280.3477	0.000458
280.5576	-0.001126
280.7674	0.001049
280.9772	0.001197
281.1871	-0.000429
281.3970	-0.000619
281.6069	0.000246
281.8168	-0.000007
282.0267	0.000985
282.2366	-0.000472
282.4466	0.000774
282.6565	-0.000809
282.8665	-0.001316
283.0765	-0.000260
283.2865	0.000056
283.4965	0.001429
283.7065	-0.000155
283.9166	0.000943
284.1266	-0.000451
284.3367	0.001408
284.5468	-0.000873
284.7569	-0.000767
284.9670	-0.000725
285.1771	0.001112
285.3873	-0.000176
285.5974	0.000458
285.8076	0.000711
286.0178	0.000077
286.2280	-0.000049
286.4382	-0.000155
286.6484	-0.000007
286.8587	0.001809
287.0689	-0.000809
287.2792	-0.000282
287.4895	0.001239
287.6998	0.000436
287.9101	-0.000683
288.1204	0.000711
288.3308	-0.000451
288.5411	0.000669
288.7515	0.000352
288.9619	0.000141
289.1723	-0.000049
289.3827	0.000436
289.5931	0.001154
289.8035	-0.000873
290.0140	-0.000641
290.2245	0.000458
290.4349	0.000838
290.6454	0.000415
290.8559	-0.001570
291.0665	0.001513
291.2770	-0.001316
291.4875	0.000331
291.6981	-0.000324
291.9087	-0.001126
292.1193	-0.000873
292.3299	-0.001506
292.5405	0.000648
292.7511	-0.000408
292.9618	0.000711
293.1724	-0.000007
293.3831	-0.000007
293.5938	0.000880
293.8045	0.000225
294.0152	0.000690
294.2260	-0.000303
294.4367	-0.000345
294.6475	-0.000092
294.8582	0.000711
295.0690	0.000964
295.2798	0.000373
295.4906	0.000225
295.7015	0.000035
295.9123	-0.001021
296.1232	0.001028
296.3340	0.000289
296.5449	-0.000028
296.7558	-0.000641
296.9667	0.001746
297.1777	0.000141
297.3886	-0.000788
297.5995	0.000542
297.8105	0.000310
298.0215	0.000056
298.2325	0.001535
298.4435	-0.000641
298.6545	0.000373
298.8656	0.000479
299.0766	0.000943
299.2877	0.001535
299.4988	0.000099
299.7099	-0.000598
299.9210	0.000985
300.1321	0.000584
300.3432	0.000521
300.5544	-0.000260
300.7655	0.000479
300.9767	-0.000028
301.1879	0.000035
301.3991	0.000373
301.6103	-0.000324
301.8215	-0.001781
302.0328	-0.000007
302.2441	-0.000683
302.4553	-0.000662
302.6666	-0.000134
302.8779	0.000880
303.0892	-0.000598
303.3006	-0.000007
303.5119	0.000626
303.7233	-0.000070
303.9346	0.000605
304.1460	-0.000049
304.3574	-0.000619
304.5688	0.000077
304.7803	-0.001506
304.9917	0.000394
305.2031	0.000626
305.4146	0.000331
305.6261	-0.001274
305.8376	0.000542
306.0491	-0.000176
306.2606	0.000669
306.4722	-0.000408
306.6837	-0.000619
306.8953	-0.000070
307.1069	-0.000429
307.3184	-0.000767
307.5301	0.000563
307.7417	-0.000303
307.9533	-0.000049
308.1650	-0.000092
308.3766	0.000246
308.5883	0.000817
308.8000	-0.000429
309.0117	-0.000282
309.2234	0.001450
309.4351	-0.000641
309.6469	-0.000577
309.8586	-0.000809
310.0704	0.001176
310.2822	-0.001021
310.4940	-0.000429
310.7058	-0.000767
310.9176	0.000373
311.1295	0.000711
311.3413	-0.000451
311.5532	0.000479
311.7651	0.000458
311.9770	0.001915
312.1889	0.000394
312.4008	0.001725
312.6127	0.001535
312.8247	0.000035
313.0366	0.001661
313.2486	0.001767
313.4606	0.000289
313.6726	-0.000049
313.8846	0.000859
314.0967	-0.000704
314.3087	0.000310
314.5208	-0.000619
314.7328	-0.000725
314.9449	-0.001126
315.1570	0.001260
315.3692	-0.000725
315.5813	0.000774
315.7934	0.000859
316.0056	-0.000366
316.2177	-0.000493
316.4299	0.001703
316.6421	-0.000514
316.8543	0.000732
317.0666	0.000246
317.2788	0.000521
317.4911	0.000035
317.7033	-0.000429
317.9156	0.000415
318.1279	0.000394
318.3402	-0.001802
318.5525	0.000014
318.7649	-0.000028
318.9772	-0.000218
319.1896	0.000795
319.4019	-0.000387
319.6143	0.001091
319.8267	0.000458
320.0392	-0.000556
320.2516	0.000352
320.4640	-0.000493
320.6765	0.001028
320.8890	-0.001274
321.1014	-0.000239
321.3139	-0.000408
321.5265	-0.000683
321.7390	-0.000092
321.9515	0.000774
322.1641	-0.000641
322.3766	0.000035
322.5892	0.000373
322.8018	-0.000113
323.0144	0.000352
323.2270	0.001872
323.4397	0.000246
323.6523	0.000584
323.8650	-0.001316
324.0777	-0.000619
324.2904	0.000289
324.5031	0.000056
324.7158	0.000500
324.9285	0.000120
325.1412	0.000648
325.3540	0.001598
325.5668	-0.000915
325.7796	-0.000535
325.9924	0.000436
326.2052	-0.000556
326.4180	-0.000514
326.6308	0.000648
326.8437	-0.000936
327.0566	0.000225
327.2694	0.000479
327.4823	0.000183
327.6952	-0.000704
327.9082	-0.000725
328.1211	0.000838
328.3340	0.000479
328.5470	0.000077
328.7600	0.000289
328.9730	0.000901
329.1860	-0.001021
329.3990	-0.001063
329.6120	0.000690
329.8251	0.000711
330.0381	-0.000007
330.2512	-0.000387
330.4643	0.001703
330.6774	-0.000408
330.8905	-0.000514
331.1036	0.000183
331.3167	-0.000176
331.5299	0.000901
331.7431	0.000500
331.9562	-0.000218
332.1694	0.000394
332.3826	0.000352
332.5959	-0.000092
332.8091	-0.000092
333.0223	0.000056
333.2356	-0.000936
333.4489	0.000605
333.6622	0.000795
333.8755	-0.002245
334.0888	-0.001443
334.3021	0.001028
334.5154	0.000077
334.7288	-0.000514
334.9422	0.001007
335.1555	-0.000746
335.3689	0.000436
335.5823	0.000584
335.7958	-0.000429
336.0092	0.000648
336.2227	0.000648
336.4361	-0.000134
336.6496	-0.001380
336.8631	0.000056
337.0766	-0.000092
337.2901	-0.000134
337.5036	-0.000134
337.7172	-0.000662
337.9307	0.001344
338.1443	-0.000556
338.3579	-0.000873
338.5715	0.000394
338.7851	-0.000049
338.9987	0.000732
339.2124	0.000711
339.4260	0.000479
339.6397	-0.000641
339.8533	-0.000725
340.0670	0.000690
340.2807	0.000500
340.4945	0.000521
340.7082	-0.000873
340.9219	0.001049
341.1357	0.000521
341.3495	-0.000704
341.5633	0.000753
341.7771	0.001450
341.9909	0.000331
342.2047	-0.000809
342.4185	0.000120
342.6324	-0.001105
342.8463	0.001408
343.0601	-0.000155
343.2740	0.000626
343.4879	-0.000134
343.7019	0.000521
343.9158	0.000690
344.1297	0.000964
344.3437	-0.001042
344.5577	-0.000155
344.7717	0.000732
344.9857	0.001007
345.1997	-0.000007
345.4137	0.001154
345.6277	0.000415
345.8418	0.001028
346.0559	-0.000451
346.2699	-0.000514
346.4840	0.000183
346.6981	-0.000155
346.9123	-0.000303
347.1264	-0.000092
347.3406	-0.001506
347.5547	0.000584
347.7689	-0.000978
347.9831	-0.001654
348.1973	-0.000535
348.4115	0.001408
348.6257	-0.001781
348.8400	0.000817
349.0542	0.000605
349.2685	0.000479
349.4828	0.000774
349.6971	-0.001633
349.9114	0.000183
350.1257	-0.000134
350.3400	0.001007
350.5544	-0.000134
350.7687	0.000500
350.9831	-0.000070
351.1975	-0.001274
351.4119	0.000310
351.6263	0.000648
351.8407	-0.000092
352.0552	0.001344
352.2696	-0.000451
352.4841	0.000732
352.6986	0.000753
352.9131	0.000246
353.1276	-0.000197
353.3421	0.000141
353.5566	0.000394
353.7712	-0.000662
353.9858	0.001323
354.2003	-0.000556
354.4149	-0.000260
354.6295	0.001408
354.8441	0.000120
355.0588	0.001323
355.2734	0.000035
355.4881	-0.000176
355.7027	0.001788
355.9174	-0.000049
356.1321	0.001049
356.3468	0.000542
356.5615	0.001070
356.7763	-0.000092
356.9910	-0.000514
357.2058	0.000753
357.4206	-0.001126
357.6353	0.000479
357.8501	-0.000831
358.0650	0.000859
358.2798	-0.001211
358.4946	0.000458
358.7095	0.001070
358.9243	-0.000641
359.1392	-0.000092
359.3541	-0.001359
359.5690	-0.001105
359.7839	0.000035
359.9989	0.000014
360.2138	0.001556
360.4288	0.000985
360.6438	-0.001168
360.8587	-0.000577
361.0737	-0.000641
361.2888	-0.000746
361.5038	-0.001084
361.7188	-0.000134
361.9339	0.000605
362.1489	-0.000451
362.3640	0.000584
362.5791	-0.000260
362.7942	-0.000936
363.0093	0.002358
363.2245	-0.000429
363.4396	0.001450
363.6548	0.000246
363.8699	-0.000282
364.0851	0.001133
364.3003	0.001640
364.5155	-0.001844
364.7308	0.000690
364.9460	0.000753
365.1612	0.001239
365.3765	-0.000303
365.5918	-0.000451
365.8071	0.000162
366.0224	0.000141
366.2377	-0.000324
366.4530	0.000099
366.6684	0.000225
366.8837	-0.000113
367.0991	0.000690
367.3145	-0.000725
367.5299	0.000035
367.7453	0.000817
367.9607	-0.000619
368.1761	-0.000514
368.3916	0.000563
368.6070	0.000331
368.8225	0.000563
369.0380	0.000099
369.2535	-0.000049
369.4690	0.000964
369.6845	0.001408
369.9001	0.000035
370.1156	-0.001168
370.3312	0.001302
370.5468	0.000985
370.7624	-0.000303
370.9780	0.000774
371.1936	0.000289
371.4092	-0.001190
371.6249	0.000141
371.8405	-0.001908
372.0562	0.001725
372.2719	-0.001063
372.4876	-0.000662
372.7033	0.000626
372.9190	0.000648
373.1348	0.000711
373.3505	0.000141
373.5663	0.000373
373.7820	0.001176
373.9978	0.000204
374.2136	0.000774
374.4294	0.000183
374.6453	0.001302
374.8611	-0.000641
375.0770	0.001851
375.2928	0.000479
375.5087	-0.000282
375.7246	0.000838
375.9405	-0.001401
376.1564	-0.000493
376.3724	0.000077
376.5883	0.000458
376.8043	0.000246
377.0203	-0.000324
377.2362	-0.000260
377.4522	0.001197
377.6682	0.000774
377.8843	-0.000915
378.1003	0.000838
378.3164	-0.000936
378.5324	0.000120
378.7485	-0.000134
378.9646	0.002041
379.1807	0.000373
379.3968	-0.000260
379.6129	0.000141
379.8291	0.000373
380.0452	0.000563
380.2614	0.000985
380.4776	0.000014
380.6938	-0.000429
380.9100	-0.001168
381.1262	0.000056
381.3424	-0.000176
381.5587	0.000035
381.7749	0.000056
381.9912	0.000964
382.2075	-0.000387
382.4238	-0.000007
382.6401	0.000859
382.8564	0.000394
383.0728	-0.002034
383.2891	0.001767
383.5055	0.000289
383.7219	-0.000451
383.9382	0.000331
384.1546	-0.000451
384.3711	0.000711
384.5875	0.000500
384.8039	-0.000070
385.0204	0.000795
385.2368	0.000436
385.4533	-0.000809
385.6698	0.000331
385.8863	0.001556
386.1028	0.000120
386.3194	0.000436
386.5359	-0.000641
386.7525	0.001091
386.9690	0.001323
387.1856	0.000753
387.4022	0.001387
387.6188	0.002168
387.8355	0.000394
388.0521	0.000732
388.2687	0.000141
388.4854	0.001978
388.7021	0.002527
388.9188	0.001577
389.1355	0.000922
389.3522	0.002780
389.5689	0.000669
389.7856	0.002084
390.0024	0.000056
390.2192	0.002400
390.4359	0.002400
390.6527	0.003076
390.8695	0.001344
391.0863	0.003435
391.3032	0.001746
391.5200	0.003456
391.7369	0.001978
391.9537	0.003710
392.1706	0.003435
392.3875	0.003604
392.6044	0.003266
392.8213	0.007511
393.0383	0.005188
393.2552	0.005040
393.4722	0.004723
393.6891	0.006011
393.9061	0.004195
394.1231	0.005209
394.3401	0.004765
394.5572	0.006011
394.7742	0.006117
394.9912	0.007067
395.2083	0.006307
395.4254	0.005589
395.6425	0.005864
395.8596	0.005948
396.0767	0.007321
396.2938	0.006962
396.5109	0.007300
396.7281	0.006708
396.9453	0.008208
397.1624	0.007849
397.3796	0.008735
397.5968	0.009665
397.8140	0.010171
398.0313	0.010003
398.2485	0.010235
398.4658	0.011248
398.6830	0.010805
398.9003	0.011164
399.1176	0.011776
399.3349	0.012959
399.5522	0.011164
399.7696	0.011396
399.9869	0.011544
400.2043	0.011755
400.4216	0.010847
400.6390	0.012938
400.8564	0.012220
401.0738	0.012621
401.2912	0.011312
401.5087	0.013445
401.7261	0.012325
401.9436	0.012621
402.1610	0.013740
402.3785	0.012874
402.5960	0.014986
402.8135	0.012663
403.0310	0.015366
403.2486	0.014859
403.4661	0.014374
403.6837	0.016190
403.9013	0.014522
404.1189	0.015641
404.3365	0.015028
404.5541	0.016887
404.7717	0.016380
404.9893	0.016443
405.2070	0.017541
405.4246	0.019716
405.6423	0.016823
405.8600	0.017710
406.0777	0.016507
406.2954	0.015197
406.5131	0.015873
406.7309	0.017182
406.9486	0.017985
407.1664	0.018069
407.3842	0.015282
407.6020	0.016591
407.8198	0.018766
408.0376	0.018872
408.2554	0.018830
408.4733	0.019505
408.6911	0.019822
408.9090	0.019400
409.1269	0.018872
409.3448	0.018724
409.5627	0.019231
409.7806	0.020033
409.9985	0.018154
410.2165	0.019484
410.4344	0.018365
410.6524	0.018323
410.8704	0.018534
411.0884	0.019062
411.3064	0.021469
411.5244	0.018386
411.7424	0.019484
411.9605	0.019632
412.1785	0.020857
412.3966	0.020962
412.6147	0.021701
412.8328	0.020498
413.0509	0.021385
413.2690	0.022757
413.4871	0.023518
413.7053	0.022525
413.9234	0.020582
414.1416	0.022715
414.3598	0.020667
414.5780	0.021807
414.7962	0.024278
415.0144	0.022504
415.2326	0.022208
415.4509	0.022377
415.6692	0.022905
415.8874	0.022821
416.1057	0.023053
416.3240	0.021089
416.5423	0.021701
416.7606	0.019780
416.9790	0.022610
417.1973	0.021469
417.4157	0.024003
417.6341	0.023581
417.8524	0.023750
418.0708	0.023982
418.2893	0.022335
418.5077	0.022757
418.7261	0.024151
418.9446	0.023834
419.1630	0.024658
419.3815	0.023771
419.6000	0.024869
419.8185	0.024447
420.0370	0.024468
420.2555	0.025460
420.4741	0.025629
420.6926	0.025481
420.9112	0.026199
421.1298	0.026917
421.3483	0.027635
421.5669	0.030022
421.7856	0.028016
422.0042	0.028966
422.2228	0.030127
422.4415	0.027804
422.6601	0.029388
422.8788	0.026875
423.0975	0.028966
423.3162	0.028522
423.5349	0.029219
423.7536	0.026601
423.9724	0.025587
424.1911	0.028649
424.4099	0.028311
424.6287	0.027361
424.8475	0.025249
425.0663	0.026896
425.2851	0.029663
425.5039	0.028607
425.7228	0.025291
425.9416	0.026960
426.1605	0.024954
426.3793	0.025798
426.5982	0.025883
426.8171	0.025988
427.0361	0.025207
427.2550	0.028248
427.4739	0.028987
427.6929	0.028016
427.9118	0.026875
428.1308	0.025629
428.3498	0.026031
428.5688	0.026770
428.7878	0.026960
429.0068	0.027150
429.2259	0.029114
429.4449	0.029367
429.6640	0.030613
429.8831	0.029895
430.1022	0.030993
430.3213	0.031880
430.5404	0.030338
430.7595	0.030402
430.9787	0.030571
431.1978	0.029367
431.4170	0.028037
431.6362	0.027086
431.8553	0.028670
432.0745	0.024299
432.2938	0.026601
432.5130	0.026558
432.7322	0.024172
432.9515	0.024785
433.1707	0.023623
433.3900	0.025524
433.6093	0.030148
433.8286	0.029705
434.0479	0.031246
434.2673	0.028016
434.4866	0.028311
434.7059	0.027699
434.9253	0.027868
435.1447	0.026601
435.3641	0.026727
435.5835	0.026685
435.8029	0.026031
436.0223	0.027994
436.2418	0.027319
436.4612	0.028501
436.6807	0.030528
436.9001	0.027551
437.1196	0.028543
437.3391	0.026770
437.5586	0.027614
437.7782	0.025714
437.9977	0.025988
438.2173	0.027276
438.4368	0.026939
438.6564	0.028839
438.8760	0.027783
439.0956	0.028522
439.3152	0.025967
439.5348	0.027551
439.7545	0.027952
439.9741	0.027678
440.1938	0.027044
440.4135	0.028184
440.6331	0.027973
440.8528	0.027340
441.0725	0.029325
441.2923	0.032070
441.5120	0.032894
441.7318	0.030444
441.9515	0.031563
442.1713	0.029620
442.3911	0.029409
442.6109	0.031542
442.8307	0.030275
443.0505	0.029895
443.2703	0.030803
443.4902	0.029409
443.7101	0.032133
443.9299	0.032725
444.1498	0.031289
444.3697	0.032725
444.5896	0.030212
444.8095	0.030043
445.0295	0.029093
445.2494	0.029895
445.4694	0.029874
445.6894	0.029430
445.9093	0.026854
446.1293	0.028227
446.3493	0.029430
446.5694	0.029768
446.7894	0.027403
447.0094	0.029684
447.2295	0.028353
447.4496	0.028586
447.6696	0.027973
447.8897	0.028248
448.1098	0.028480
448.3300	0.025946
448.5501	0.028839
448.7702	0.025249
448.9904	0.026009
449.2106	0.026178
449.4307	0.025862
449.6509	0.026073
449.8711	0.024763
450.0914	0.024890
450.3116	0.026284
450.5318	0.025629
450.7521	0.025418
450.9724	0.023877
451.1926	0.024954
451.4129	0.023877
451.6332	0.021849
451.8535	0.024383
452.0739	0.024151
452.2942	0.020498
452.5146	0.023687
452.7349	0.020962
452.9553	0.021174
453.1757	0.022018
453.3961	0.021786
453.6165	0.021427
453.8369	0.022525
454.0574	0.020878
454.2778	0.018407
454.4983	0.019738
454.7188	0.021448
454.9393	0.020329
455.1597	0.021321
455.3803	0.020582
455.6008	0.021195
455.8213	0.021913
456.0419	0.019759
456.2624	0.019759
456.4830	0.020329
456.7036	0.020561
456.9242	0.018618
457.1448	0.019653
457.3654	0.020519
457.5860	0.021068
457.8067	0.022757
458.0274	0.019885
458.2480	0.021047
458.4687	0.020603
458.6894	0.019231
458.9101	0.021152
459.1308	0.021596
459.3516	0.019590
459.5723	0.020097
459.7931	0.019104
460.0138	0.021216
460.2346	0.019146
460.4554	0.019125
460.6762	0.018196
460.8970	0.019526
461.1178	0.018851
461.3387	0.019083
461.5595	0.017605
461.7804	0.018703
462.0013	0.018280
462.2222	0.016253
462.4431	0.015725
462.6640	0.016211
462.8849	0.016549
463.1059	0.015493
463.3268	0.015620
463.5478	0.017584
463.7687	0.016929
463.9897	0.014965
464.2107	0.018386
464.4317	0.017204
464.6528	0.018259
464.8738	0.016000
465.0948	0.017795
465.3159	0.017225
465.5370	0.016507
465.7581	0.019125
465.9792	0.018682
466.2003	0.015430
466.4214	0.016422
466.6425	0.014712
466.8637	0.014859
467.0848	0.013255
467.3060	0.013698
467.5272	0.014817
467.7484	0.012304
467.9696	0.013445
468.1908	0.013529
468.4120	0.011945
468.6333	0.014416
468.8545	0.014458
469.0758	0.013043
469.2970	0.012896
469.5183	0.011375
469.7396	0.012347
469.9610	0.009791
470.1823	0.011333
470.4036	0.010636
470.6250	0.009665
470.8463	0.010636
471.0677	0.009158
471.2891	0.009559
471.5105	0.009052
471.7319	0.009601
471.9533	0.009411
472.1748	0.008757
472.3962	0.009411
472.6177	0.010150
472.8391	0.010362
473.0606	0.010995
473.2821	0.011375
473.5036	0.009749
473.7251	0.008989
473.9467	0.009749
474.1682	0.010214
474.3898	0.008841
474.6113	0.008545
474.8329	0.009263
475.0545	0.010003
475.2761	0.010425
475.4977	0.008672
475.7193	0.010129
475.9410	0.009686
476.1626	0.008651
476.3843	0.007806
476.6060	0.009369
476.8277	0.008440
477.0494	0.007616
477.2711	0.008123
477.4928	0.009116
477.7145	0.007152
477.9363	0.008841
478.1580	0.008186
478.3798	0.008524
478.6016	0.006434
478.8234	0.007236
479.0452	0.007215
479.2670	0.007447
479.4888	0.008440
479.7107	0.007595
479.9325	0.005357
480.1544	0.006983
480.3763	0.008271
480.5982	0.009453
480.8201	0.008778
481.0420	0.007426
481.2639	0.008398
481.4859	0.007490
481.7078	0.005589
481.9298	0.010066
482.1517	0.007975
482.3737	0.007996
482.5957	0.007532
482.8177	0.006856
483.0398	0.005589
483.2618	0.008440
483.4838	0.007490
483.7059	0.006307
483.9280	0.006941
484.1501	0.007447
484.3721	0.006265
484.5943	0.007447
484.8164	0.007637
485.0385	0.007996
485.2606	0.005927
485.4828	0.009517
485.7050	0.014796
485.9271	0.019801
486.1493	0.021744
486.3715	0.017584
486.5937	0.016169
486.8160	0.011417
487.0382	0.012009
487.2605	0.011312
487.4827	0.009137
487.7050	0.007975
487.9273	0.005969
488.1496	0.006328
488.3719	0.004597
488.5942	0.006729
488.8165	0.005483
489.0389	0.006666
489.2612	0.006117
489.4836	0.005568
489.7060	0.003414
489.9284	0.005483
490.1508	0.003667
490.3732	0.006265
490.5956	0.003794
490.8180	0.005230
491.0405	0.005124
491.2630	0.003688
491.4854	0.004090
491.7079	0.005230
491.9304	0.005019
492.1529	0.004639
492.3755	0.005631
492.5980	0.004871
492.8205	0.004597
493.0431	0.004238
493.2657	0.002928
493.4882	0.004597
493.7108	0.003921
493.9334	0.005124
494.1561	0.004639
494.3787	0.005631
494.6013	0.003203
494.8240	0.004005
495.0466	0.003055
495.2693	0.002527
495.4920	0.005357
495.7147	0.002907
495.9374	0.002189
496.1601	0.003625
496.3829	0.004090
496.6056	0.003688
496.8284	0.004111
497.0511	0.004301
497.2739	0.004259
497.4967	0.003667
497.7195	0.004090
497.9423	0.004047
498.1652	0.002907
498.3880	0.002823
498.6109	0.003667
498.8337	0.004238
499.0566	0.003076
499.2795	0.002569
499.5024	0.004385
499.7253	0.003541
499.9482	0.004322
500.1712	0.005103
500.3941	0.003667
500.6171	0.002253
500.8400	0.003203
501.0630	0.003245
501.2860	0.004470
501.5090	0.005124
501.7320	0.002105
501.9551	0.004491
502.1781	0.003393
502.4012	0.003203
502.6242	0.003013
502.8473	0.003984
503.0704	0.002231
503.2935	0.004575
503.5166	0.002443
503.7397	0.002633
503.9628	0.003541
504.1860	0.003520
504.4092	0.002379
504.6323	0.003731
504.8555	0.003224
505.0787	0.003287
505.3019	0.002886
505.5251	0.003076
505.7483	0.002738
505.9716	0.002886
506.1948	0.003013
506.4181	0.002823
506.6414	0.002675
506.8647	0.004428
507.0880	0.004259
507.3113	0.004026
507.5346	0.002084
507.7579	0.004069
507.9813	0.002696
508.2046	0.003034
508.4280	0.001366
508.6514	0.003794
508.8748	0.003583
509.0982	0.001788
509.3216	0.002696
509.5450	0.003604
509.7685	0.002105
509.9919	0.001471
510.2154	0.002337
510.4388	0.003879
510.6623	0.003456
510.8858	0.003161
511.1093	0.001746
511.3329	0.002020
511.5564	0.001260
511.7799	0.003667
512.0035	0.002253
512.2270	0.004385
512.4506	0.003731
512.6742	0.002231
512.8978	0.003013
513.1214	0.003604
513.3451	0.002907
513.5687	0.002464
513.7923	0.003541
514.0160	0.003921
514.2397	0.003477
514.4634	0.001598
514.6871	0.001936
514.9108	0.003836
515.1345	0.002759
515.3582	0.003710
515.5819	0.001682
515.8057	0.002865
516.0295	0.002443
516.2532	0.003583
516.4770	0.003604
516.7008	0.003308
516.9246	0.003118
517.1485	0.002654
517.3723	0.003372
517.5961	0.003414
517.8200	0.003013
518.0439	0.002654
518.2677	0.001239
518.4916	0.003752
518.7155	0.001978
518.9395	0.003118
519.1634	0.001767
519.3873	0.003752
519.6113	0.004998
519.8352	0.004069
520.0592	0.002506
520.2832	0.003287
520.5072	0.003414
520.7312	0.002780
520.9552	0.003435
521.1792	0.002802
521.4033	0.003520
521.6273	0.000922
521.8514	0.003541
522.0755	0.003287
522.2996	0.002210
522.5237	0.003815
522.7478	0.002886
522.9719	0.002337
523.1960	0.004808
523.4202	0.002527
523.6443	0.004026
523.8685	0.004428
524.0927	0.004195
524.3169	0.004956
524.5411	0.004406
524.7653	0.001999
524.9895	0.003625
525.2138	0.003562
525.4380	0.003139
525.6623	0.002316
525.8865	0.004470
526.1108	0.003773
526.3351	0.004005
526.5594	0.003034
526.7837	0.004069
527.0081	0.003942
527.2324	0.005315
527.4568	0.003710
527.6811	0.003667
527.9055	0.004090
528.1299	0.003161
528.3543	0.004723
528.5787	0.005378
528.8031	0.006434
529.0276	0.005357
529.2520	0.005061
529.4765	0.005906
529.7009	0.004090
529.9254	0.004554
530.1499	0.003139
530.3744	0.005188
530.5989	0.005990
530.8234	0.005483
531.0480	0.005082
531.2725	0.006117
531.4971	0.003731
531.7217	0.005251
531.9462	0.004005
532.1708	0.006391
532.3954	0.006645
532.6200	0.005652
532.8447	0.005441
533.0693	0.005505
533.2940	0.004406
533.5186	0.007321
533.7433	0.006666
533.9680	0.007637
534.1927	0.008419
534.4174	0.009327
534.6421	0.007173
534.8668	0.007067
535.0916	0.006370
535.3163	0.007468
535.5411	0.007975
535.7659	0.007870
535.9907	0.007701
536.2155	0.007152
536.4403	0.007257
536.6651	0.007511
536.8899	0.006898
537.1148	0.007659
537.3396	0.007996
537.5645	0.008271
537.7894	0.007088
538.0143	0.008545
538.2392	0.008883
538.4641	0.007996
538.6890	0.009369
538.9139	0.010467
539.1389	0.010594
539.3638	0.010319
539.5888	0.010911
539.8138	0.009263
540.0388	0.009665
540.2638	0.010889
540.4888	0.012368
540.7138	0.009010
540.9389	0.011185
541.1639	0.011460
541.3890	0.011185
541.6140	0.012389
541.8391	0.011629
542.0642	0.012030
542.2893	0.013487
542.5144	0.012199
542.7396	0.013318
542.9647	0.012790
543.1899	0.010530
543.4150	0.012220
543.6402	0.014205
543.8654	0.014078
544.0906	0.012790
544.3158	0.012706
544.5410	0.015873
544.7662	0.014310
544.9915	0.014416
545.2167	0.016443
545.4420	0.015303
545.6673	0.016718
545.8926	0.014669
546.1179	0.015028
546.3432	0.013043
546.5685	0.014881
546.7938	0.012663
547.0192	0.017309
547.2445	0.015556
547.4699	0.017330
547.6953	0.016507
547.9206	0.016950
548.1460	0.017267
548.3715	0.021913
548.5969	0.020434
548.8223	0.020498
549.0478	0.018407
549.2732	0.020033
549.4987	0.017098
549.7242	0.018344
549.9496	0.019231
550.1751	0.017943
550.4007	0.019864
550.6262	0.018428
550.8517	0.017330
551.0773	0.016591
551.3028	0.018259
551.5284	0.018154
551.7540	0.019526
551.9796	0.019505
552.2052	0.022736
552.4308	0.023475
552.6564	0.021342
552.8820	0.021765
553.1077	0.023729
553.3333	0.023285
553.5590	0.022272
553.7847	0.023349
554.0104	0.025355
554.2361	0.023539
554.4618	0.023708
554.6875	0.021554
554.9132	0.022251
555.1390	0.023180
555.3648	0.023518
555.5905	0.026178
555.8163	0.026263
556.0421	0.024637
556.2679	0.026622
556.4937	0.026875
556.7195	0.026221
556.9454	0.024236
557.1712	0.024341
557.3971	0.026052
557.6230	0.025883
557.8488	0.023412
558.0747	0.026580
558.3006	0.028184
558.5266	0.025904
558.7525	0.024320
558.9784	0.027614
559.2044	0.025714
559.4303	0.023222
559.6563	0.026537
559.8823	0.026432
560.1083	0.030550
560.3343	0.030655
560.5603	0.029346
560.7863	0.032725
561.0124	0.034731
561.2384	0.034836
561.4645	0.035766
561.6905	0.035449
561.9166	0.034456
562.1427	0.033612
562.3688	0.034456
562.5949	0.033612
562.8211	0.033802
563.0472	0.035407
563.2733	0.035660
563.4995	0.035977
563.7257	0.037687
563.9519	0.036568
564.1781	0.035744
564.4043	0.038722
564.6305	0.038785
564.8567	0.037539
565.0829	0.040369
565.3092	0.040538
565.5355	0.039461
565.7617	0.039883
565.9880	0.039630
566.2143	0.040242
566.4406	0.043706
566.6669	0.040897
566.8932	0.043537
567.1196	0.045564
567.3459	0.051181
567.5723	0.052934
567.7987	0.056080
568.0250	0.057854
568.2514	0.057200
568.4778	0.060916
568.7043	0.064485
568.9307	0.067610
569.1571	0.071834
569.3836	0.077493
569.6100	0.086785
569.8365	0.095380
570.0630	0.101313
570.2895	0.105706
570.5160	0.103214
570.7425	0.106297
570.9690	0.110183
571.1956	0.120931
571.4221	0.124733
571.6487	0.127203
571.8752	0.132419
572.1018	0.139557
572.3284	0.137720
572.5550	0.128829
572.7816	0.119474
573.0082	0.117257
573.2349	0.124944
573.4615	0.142196
573.6882	0.150348
573.9149	0.154107
574.1415	0.158309
574.3682	0.168551
574.5949	0.172711
574.8216	0.170726
575.0484	0.171148
575.2751	0.178307
575.5018	0.175773
575.7286	0.169712
575.9554	0.159048
576.1821	0.159893
576.4089	0.164539
576.6357	0.176005
576.8626	0.184473
577.0894	0.187345
577.3162	0.188950
577.5431	0.194145
577.7699	0.215494
577.9968	0.249155
578.2237	0.243348
578.4505	0.230403
578.6774	0.216234
578.9044	0.202465
579.1313	0.192371
579.3582	0.197714
579.5851	0.202528
579.8121	0.208484
580.0391	0.210384
580.2660	0.212855
580.4930	0.210025
580.7200	0.199488
580.9470	0.209856
581.1741	0.238871
581.4011	0.288940
581.6281	0.321207
581.8552	0.323425
582.0822	0.317807
582.3093	0.305855
582.5364	0.288159
582.7635	0.261762
582.9906	0.242968
583.2177	0.221428
583.4449	0.208146
583.6720	0.198580
583.8991	0.197165
584.1263	0.198052
584.3535	0.199762
584.5807	0.199994
584.8079	0.212855
585.0351	0.230023
585.2623	0.234521
585.4895	0.242672
585.7167	0.238048
585.9440	0.229622
586.1713	0.217078
586.3985	0.206731
586.6258	0.199910
586.8531	0.202085
587.0804	0.215853
587.3077	0.226729
587.5350	0.233275
587.7624	0.230023
587.9897	0.219570
588.2171	0.210680
588.4445	0.204387
588.6718	0.199973
588.8992	0.191315
589.1266	0.179046
589.3540	0.172373
589.5815	0.164180
589.8089	0.166122
590.0363	0.161793
590.2638	0.157232
590.4913	0.150094
590.7187	0.145998
590.9462	0.139747
591.1737	0.133538
591.4012	0.131469
591.6288	0.134827
591.8563	0.131575
592.0838	0.125535
592.3114	0.139662
592.5389	0.157232
592.7665	0.181812
592.9941	0.200184
593.2217	0.203099
593.4493	0.200818
593.6769	0.198727
593.9046	0.195898
594.1322	0.185191
594.3598	0.177441
594.5875	0.172859
594.8152	0.181179
595.0429	0.192920
595.2705	0.195116
595.4983	0.195032
595.7260	0.186543
595.9537	0.173070
596.1814	0.162870
596.4092	0.152903
596.6369	0.146610
596.8647	0.143949
597.0925	0.146103
597.3203	0.150939
597.5481	0.153431
597.7759	0.154318
598.0037	0.147053
598.2315	0.138607
598.4594	0.138902
598.6872	0.155585
598.9151	0.177716
599.1430	0.186859
599.3709	0.181031
599.5988	0.177610
599.8267	0.179912
600.0546	0.182552
600.2825	0.184199
600.5105	0.185571
600.7384	0.181960
600.9664	0.185529
601.1944	0.185994
601.4223	0.185804
601.6503	0.177462
601.8783	0.169205
602.1064	0.166143
602.3344	0.166629
602.5624	0.168551
602.7905	0.172774
603.0185	0.174316
603.2466	0.179849
603.4747	0.189098
603.7028	0.190217
603.9309	0.185445
604.1590	0.180567
604.3871	0.170367
604.6152	0.164940
604.8434	0.158668
605.0715	0.155289
605.2997	0.161561
605.5279	0.169036
605.7561	0.173175
605.9843	0.177610
606.2125	0.174949
606.4407	0.163567
606.6689	0.158182
606.8972	0.159703
607.1254	0.157274
607.3537	0.161561
607.5819	0.159491
607.8102	0.161223
608.0385	0.158647
608.2668	0.151256
608.4951	0.149081
608.7235	0.147370
608.9518	0.144477
609.1801	0.139726
609.4085	0.135587
609.6369	0.133707
609.8653	0.139958
610.0936	0.148067
610.3220	0.153452
610.5505	0.148447
610.7789	0.142577
611.0073	0.141035
611.2357	0.139430
611.4642	0.136431
611.6927	0.139388
611.9211	0.138480
612.1496	0.136094
612.3781	0.131912
612.6066	0.131047
612.8351	0.128703
613.0637	0.134130
613.2922	0.130476
613.5208	0.128301
613.7493	0.129273
613.9779	0.127626
614.2065	0.128027
614.4351	0.126718
614.6637	0.130286
614.8923	0.126549
615.1209	0.125619
615.3495	0.128555
615.5782	0.129611
615.8068	0.130962
616.0355	0.128217
616.2642	0.120171
616.4929	0.115082
616.7216	0.110880
616.9503	0.111851
617.1790	0.109296
617.4077	0.113160
617.6365	0.110626
617.8652	0.109169
618.0940	0.109676
618.3227	0.108599
618.5515	0.102982
618.7803	0.098864
619.0091	0.095189
619.2379	0.093395
619.4667	0.090586
619.6956	0.091093
619.9244	0.096224
620.1533	0.094535
620.3821	0.095717
620.6110	0.095189
620.8399	0.090037
621.0688	0.079901
621.2977	0.077282
621.5266	0.071961
621.7556	0.080154
621.9845	0.083047
622.2135	0.084905
622.4424	0.081189
622.6714	0.084779
622.9004	0.086700
623.1294	0.088453
623.3584	0.090037
623.5874	0.090248
623.8164	0.090121
624.0454	0.088305
624.2745	0.086827
624.5035	0.089974
624.7326	0.093944
624.9617	0.093057
625.1908	0.087587
625.4199	0.080260
625.6490	0.083385
625.8781	0.078486
626.1072	0.077894
626.3364	0.075804
626.5655	0.072847
626.7947	0.072151
627.0238	0.069933
627.2530	0.072024
627.4822	0.073840
627.7114	0.072256
627.9406	0.070693
628.1698	0.065710
628.3991	0.063345
628.6283	0.057432
628.8576	0.059438
629.0868	0.059522
629.3161	0.062035
629.5454	0.062394
629.7747	0.064401
630.0040	0.060874
630.2333	0.061719
630.4626	0.060874
630.6920	0.058678
630.9213	0.057115
631.1507	0.053441
631.3801	0.053103
631.6094	0.054285
631.8388	0.051350
632.0682	0.052913
632.2976	0.052617
632.5271	0.050083
632.7565	0.048647
632.9859	0.045078
633.2154	0.044360
633.4448	0.045648
633.6743	0.045501
633.9038	0.043727
634.1333	0.043642
634.3628	0.044740
634.5923	0.044973
634.8218	0.041066
635.0514	0.041678
635.2809	0.041383
635.5105	0.040496
635.7400	0.042713
635.9696	0.042840
636.1992	0.043896
636.4288	0.044128
636.6584	0.045860
636.8880	0.046155
637.1177	0.043663
637.3473	0.043600
637.5770	0.043790
637.8066	0.044234
638.0363	0.040073
638.2660	0.040770
638.4957	0.044001
638.7254	0.043663
638.9551	0.044044
639.1848	0.041045
639.4145	0.038954
639.6443	0.040394
639.8740	0.039831
640.1038	0.037415
640.3336	0.038656
640.5633	0.037436
640.7931	0.037227
641.0229	0.036366
641.2528	0.034934
641.4826	0.034283
641.7124	0.034555
641.9423	0.031360
642.1721	0.030609
642.4020	0.031293
642.6319	0.029965
642.8617	0.029420
643.0916	0.028782
643.3216	0.029780
643.5515	0.030384
643.7814	0.031455
644.0113	0.031494
644.2413	0.030840
644.4712	0.027818
644.7012	0.026541
644.9312	0.026652
645.1612	0.026582
645.3912	0.027662
645.6212	0.026657
645.8512	0.027507
646.0812	0.026836
646.3113	0.025258
646.5413	0.025412
646.7714	0.026826
647.0015	0.025016
647.2316	0.023780
647.4616	0.025171
647.6918	0.026576
647.9219	0.026883
648.1520	0.029801
648.3821	0.030141
648.6123	0.032713
648.8424	0.035378
649.0726	0.036004
649.3028	0.034188
649.5329	0.033904
649.7631	0.031480
649.9933	0.032874
650.2236	0.030641
650.4538	0.030783
650.6840	0.028948
650.9143	0.029411
651.1445	0.028565
651.3748	0.030544
651.6051	0.028049
651.8354	0.031393
652.0657	0.030677
652.2960	0.031229
652.5263	0.035212
652.7566	0.031318
652.9870	0.030756
653.2173	0.033050
653.4477	0.032049
653.6780	0.030645
653.9084	0.033080
654.1388	0.033960
654.3692	0.035373
654.5996	0.036244
654.8300	0.041766
655.0605	0.067389
655.2909	0.193867
655.5213	0.529757
655.7518	0.958820
655.9823	1.000000
656.2128	1.000000
656.4433	1.000000
656.6738	1.000000
656.9043	1.000000
657.1348	0.873831
657.3653	0.718810
657.5959	0.620976
657.8264	0.533750
658.0570	0.493629
658.2875	0.453810
658.5181	0.415293
658.7487	0.383336
658.9793	0.373216
659.2099	0.337035
659.4406	0.259659
659.6712	0.172561
659.9018	0.100239
660.1325	0.061694
660.3632	0.041634
660.5938	0.031819
660.8245	0.028693
661.0552	0.024822
661.2859	0.025347
661.5166	0.023000
661.7474	0.022683
661.9781	0.022930
662.2088	0.022265
662.4396	0.023604
662.6704	0.022465
662.9011	0.022339
663.1319	0.021326
663.3627	0.022949
663.5935	0.022654
663.8243	0.022509
664.0552	0.021134
664.2860	0.021321
664.5168	0.022149
664.7477	0.022274
664.9786	0.022058
665.2094	0.024100
665.4403	0.024068
665.6712	0.025349
665.9021	0.024566
666.1330	0.023605
666.3640	0.024734
666.5949	0.023810
666.8259	0.021793
667.0568	0.020340
667.2878	0.020397
667.5188	0.020837
667.7497	0.022734
667.9807	0.021842
668.2117	0.019914
668.4428	0.021934
668.6738	0.022251
668.9048	0.019716
669.1359	0.021828
669.3669	0.022060
669.5980	0.021659
669.8291	0.021786
670.0602	0.024278
670.2913	0.019421
670.5224	0.022124
670.7535	0.022293
670.9846	0.023771
671.2157	0.021744
671.4469	0.025672
671.6781	0.028945
671.9092	0.031014
672.1404	0.032387
672.3716	0.034266
672.6028	0.034351
672.8340	0.034245
673.0652	0.034034
673.2964	0.031331
673.5277	0.032598
673.7589	0.029029
673.9902	0.029599
674.2214	0.028417
674.4527	0.027445
674.6840	0.027488
674.9153	0.026917
675.1466	0.026495
675.3779	0.028248
675.6093	0.026347
675.8406	0.025967
676.0719	0.024214
676.3033	0.024721
676.5347	0.026031
676.7661	0.023306
676.9974	0.022441
677.2288	0.022884
677.4602	0.025270
677.6917	0.028079
677.9231	0.029768
678.1545	0.027762
678.3860	0.027657
678.6174	0.030592
678.8489	0.031141
679.0804	0.031817
679.3119	0.033337
679.5434	0.034182
679.7749	0.037349
680.0064	0.035301
680.2379	0.034583
680.4694	0.036610
680.7010	0.033147
680.9325	0.033253
681.1641	0.035449
681.3957	0.035132
681.6273	0.036315
681.8589	0.033147
682.0905	0.035407
682.3221	0.030951
682.5537	0.033084
682.7854	0.031584
683.0170	0.030254
683.2487	0.030360
683.4803	0.032323
683.7120	0.032577
683.9437	0.030634
684.1754	0.033675
684.4071	0.035069
684.6388	0.038300
684.8705	0.040369
685.1023	0.040158
685.3340	0.043516
685.5658	0.046430
685.7975	0.044001
686.0293	0.045564
686.2611	0.044297
686.4929	0.043706
686.7247	0.044107
686.9565	0.045543
687.1883	0.042523
687.4202	0.045142
687.6520	0.045374
687.8838	0.043473
688.1157	0.040327
688.3476	0.041615
688.5795	0.037729
688.8114	0.037265
689.0433	0.037455
689.2752	0.036378
689.5071	0.036885
689.7390	0.036948
689.9710	0.037033
690.2029	0.033379
690.4349	0.034604
690.6669	0.034836
690.8988	0.035195
691.1308	0.038912
691.3628	0.037561
691.5948	0.036990
691.8269	0.036864
692.0589	0.039356
692.2909	0.038384
692.5230	0.039356
692.7550	0.036146
692.9871	0.040559
693.2192	0.038722
693.4513	0.038912
693.6834	0.038025
693.9155	0.036484
694.1476	0.035385
694.3797	0.034224
694.6119	0.034372
694.8440	0.032682
695.0762	0.034140
695.3083	0.034499
695.5405	0.031289
695.7727	0.030550
696.0049	0.029093
696.2371	0.029494
696.4693	0.033020
696.7016	0.036821
696.9338	0.039208
697.1660	0.038764
697.3983	0.039018
697.6306	0.038257
697.8628	0.038764
698.0951	0.037772
698.3274	0.038426
698.5597	0.036420
698.7920	0.038067
699.0243	0.035174
699.2567	0.034330
699.4890	0.036315
699.7214	0.033738
699.9537	0.034118
700.1861	0.030444
700.4185	0.032619
700.6509	0.032746
700.8833	0.032387
701.1157	0.030022
701.3481	0.028945
701.5806	0.026601
701.8130	0.027551
702.0454	0.031648
702.2779	0.031310
702.5104	0.031225
702.7429	0.030676
702.9753	0.029473
703.2078	0.029599
703.4403	0.028121
703.6729	0.028037
703.9054	0.028628
704.1379	0.026263
704.3705	0.028818
704.6030	0.026263
704.8356	0.024869
705.0682	0.023433
705.3008	0.024552
705.5334	0.023813
705.7660	0.024383
705.9986	0.024362
706.2312	0.027065
706.4638	0.032556
706.6965	0.033802
706.9291	0.036462
707.1618	0.036821
707.3945	0.038257
707.6272	0.038595
707.8599	0.036568
708.0926	0.038933
708.3253	0.039144
708.5580	0.036125
708.7907	0.036948
709.0235	0.036843
709.2562	0.031880
709.4890	0.033210
709.7217	0.033590
709.9545	0.033612
710.1873	0.033781
710.4201	0.035428
710.6529	0.037307
710.8857	0.035407
711.1186	0.032429
711.3514	0.032535
711.5842	0.032028
711.8171	0.029346
712.0500	0.029979
712.2828	0.027868
712.5157	0.029177
712.7486	0.030381
712.9815	0.030064
713.2144	0.029409
713.4474	0.030845
713.6803	0.034076
713.9132	0.034900
714.1462	0.035787
714.3791	0.033949
714.6121	0.034604
714.8451	0.034984
715.0781	0.035470
715.3111	0.036674
715.5441	0.033189
715.7771	0.033928
716.0102	0.031542
716.2432	0.032155
716.4762	0.030381
716.7093	0.029452
716.9424	0.030571
717.1754	0.027994
717.4085	0.029578
717.6416	0.029050
717.8747	0.029557
718.1078	0.029705
718.3410	0.030465
718.5741	0.028438
718.8072	0.027530
719.0404	0.029219
719.2736	0.031479
719.5067	0.030148
719.7399	0.030845
719.9731	0.027424
720.2063	0.029388
720.4395	0.027171
720.6727	0.029261
720.9060	0.028332
721.1392	0.031141
721.3725	0.027255
721.6057	0.028480
721.8390	0.029979
722.0723	0.031310
722.3055	0.028311
722.5388	0.030148
722.7721	0.028100
723.0055	0.028332
723.2388	0.027276
723.4721	0.028058
723.7055	0.027150
723.9388	0.028966
724.1722	0.027678
724.4056	0.027234
724.6389	0.028712
724.8723	0.027065
725.1057	0.029515
725.3391	0.032809
725.5726	0.033358
725.8060	0.031627
726.0394	0.033527
726.2729	0.033400
726.5063	0.034921
726.7398	0.031373
726.9733	0.031817
727.2068	0.031289
727.4403	0.030824
727.6738	0.031648
727.9073	0.030930
728.1408	0.033168
728.3743	0.033422
728.6079	0.033400
728.8414	0.035449
729.0750	0.033443
729.3086	0.034583
729.5421	0.036209
729.7757	0.036948
730.0093	0.035428
730.2429	0.035956
730.4766	0.036336
730.7102	0.039905
730.9438	0.043114
731.1775	0.045437
731.4111	0.042903
731.6448	0.042650
731.8785	0.044804
732.1122	0.042333
732.3458	0.042185
732.5795	0.040855
732.8133	0.043727
733.0470	0.045163
733.2807	0.041425
733.5145	0.041763
733.7482	0.045627
733.9820	0.049196
734.2157	0.051392
734.4495	0.054307
734.6833	0.051118
734.9171	0.050041
735.1509	0.050041
735.3847	0.048605
735.6185	0.047507
735.8524	0.048795
736.0862	0.048858
736.3201	0.051582
736.5539	0.049344
736.7878	0.048922
737.0217	0.049745
737.2556	0.048584
737.4895	0.047950
737.7234	0.046324
737.9573	0.041636
738.1912	0.043304
738.4252	0.039736
738.6591	0.042396
738.8931	0.043853
739.1271	0.045606
739.3610	0.047929
739.5950	0.047169
739.8290	0.046050
740.0630	0.043811
740.2970	0.043072
740.5310	0.040073
740.7651	0.039440
740.9991	0.039334
741.2332	0.036399
741.4672	0.035005
741.7013	0.035744
741.9354	0.034667
742.1695	0.032725
742.4036	0.033949
742.6377	0.036779
742.8718	0.035090
743.1059	0.034118
743.3400	0.029958
743.5742	0.031732
743.8083	0.029958
744.0425	0.031162
744.2767	0.030444
744.5108	0.028818
744.7450	0.031141
744.9792	0.031542
745.2134	0.028163
745.4477	0.028839
745.6819	0.027403
745.9161	0.028438
746.1504	0.027678
746.3846	0.028712
746.6189	0.028311
746.8532	0.027614
747.0874	0.029874
747.3217	0.031774
747.5560	0.032007
747.7903	0.032281
748.0247	0.028607
748.2590	0.029958
748.4933	0.030170
748.7277	0.029177
748.9620	0.031964
749.1964	0.031753
749.4308	0.033295
749.6652	0.034097
749.8995	0.035660
750.1339	0.038342
750.3684	0.038426
750.6028	0.042439
750.8372	0.040242
751.0717	0.041319
751.3061	0.040327
751.5406	0.040095
751.7750	0.039883
752.0095	0.040707
752.2440	0.040855
752.4785	0.039736
752.7130	0.035829
752.9475	0.035554
753.1820	0.037603
753.4166	0.036167
753.6511	0.039778
753.8856	0.043368
754.1202	0.042650
754.3548	0.040834
754.5894	0.037539
754.8239	0.041615
755.0585	0.040517
755.2931	0.042903
755.5278	0.044339
755.7624	0.043663
755.9970	0.042608
756.2317	0.047802
756.4663	0.047232
756.7010	0.053103
756.9356	0.051899
757.1703	0.054053
757.4050	0.057052
757.6397	0.060431
757.8744	0.058234
758.1091	0.059776
758.3438	0.055531
758.5786	0.054687
758.8133	0.055764
759.0481	0.056841
759.2828	0.055595
759.5176	0.060874
759.7524	0.063577
759.9872	0.060642
760.2220	0.062859
760.4568	0.061254
760.6916	0.064696
760.9264	0.064295
761.1613	0.062943
761.3961	0.060431
761.6310	0.052976
761.8658	0.054011
762.1007	0.050210
762.3356	0.048985
762.5705	0.047169
762.8054	0.047528
763.0403	0.049555
763.2752	0.050379
763.5101	0.051941
763.7450	0.050210
763.9800	0.050801
764.2149	0.052448
764.4499	0.055595
764.6849	0.057474
764.9198	0.059438
765.1548	0.059248
765.3898	0.059016
765.6248	0.055383
765.8599	0.052765
766.0949	0.048415
766.3299	0.047528
766.5650	0.044107
766.8000	0.039672
767.0351	0.037117
767.2701	0.039757
767.5052	0.036990
767.7403	0.039567
767.9754	0.042122
768.2105	0.043621
768.4456	0.045944
768.6808	0.049365
768.9159	0.047127
769.1510	0.047084
769.3862	0.046134
769.6214	0.045860
769.8565	0.044191
770.0917	0.046620
770.3269	0.044403
770.5621	0.045606
770.7973	0.046599
771.0325	0.047528
771.2677	0.045986
771.5030	0.047760
771.7382	0.045648
771.9735	0.044170
772.2087	0.041531
772.4440	0.041214
772.6793	0.041636
772.9146	0.042227
773.1499	0.041150
773.3852	0.037793
773.6205	0.036589
773.8558	0.037180
774.0911	0.036843
774.3265	0.037561
774.5618	0.033823
774.7972	0.031838
775.0326	0.031711
775.2679	0.030972
775.5033	0.028206
775.7387	0.029283
775.9741	0.025291
776.2095	0.027973
776.4450	0.025967
776.6804	0.026875
776.9158	0.024193
777.1513	0.026178
777.3868	0.024996
777.6222	0.024383
777.8577	0.024869
778.0932	0.025439
778.3287	0.025904
778.5642	0.026495
778.7997	0.027466
779.0352	0.029198
779.2707	0.029219
779.5063	0.031225
779.7418	0.031394
779.9774	0.030782
780.2130	0.031500
780.4485	0.028311
780.6841	0.026178
780.9197	0.029874
781.1553	0.035787
781.3909	0.033823
781.6265	0.035850
781.8622	0.036547
782.0978	0.034203
782.3335	0.035005
782.5691	0.036484
782.8048	0.033844
783.0405	0.033865
783.2761	0.034414
783.5118	0.031986
783.7475	0.035153
783.9832	0.033485
784.2190	0.032661
784.4547	0.028818
784.6904	0.029874
784.9262	0.028755
785.1619	0.029388
785.3977	0.029789
785.6335	0.029029
785.8692	0.030338
786.1050	0.031120
786.3408	0.028184
786.5766	0.029219
786.8124	0.026643
787.0483	0.028290
787.2841	0.028755
787.5199	0.029093
787.7558	0.030001
787.9917	0.029283
788.2275	0.029261
788.4634	0.029768
788.6993	0.031605
788.9352	0.032302
789.1711	0.033675
789.4070	0.029557
789.6429	0.029958
789.8789	0.027973
790.1148	0.025228
790.3507	0.026305
790.5867	0.025608
790.8227	0.027530
791.0586	0.023285
791.2946	0.023243
791.5306	0.023539
791.7666	0.023982
792.0026	0.022419
792.2387	0.024278
792.4747	0.022441
792.7107	0.025334
792.9468	0.021596
793.1828	0.022567
793.4189	0.018618
793.6550	0.023032
793.8910	0.025249
794.1271	0.030655
794.3632	0.030782
794.5993	0.030317
794.8355	0.031521
795.0716	0.033590
795.3077	0.032894
795.5439	0.031732
795.7800	0.028860
796.0162	0.026749
796.2523	0.024531
796.4885	0.022419
796.7247	0.022757
796.9609	0.021997
797.1971	0.022124
797.4333	0.022398
797.6695	0.023602
797.9058	0.022419
798.1420	0.025228
798.3783	0.023306
798.6145	0.023433
798.8508	0.024109
799.0871	0.021174
799.3233	0.023982
799.5596	0.022060
799.7959	0.022314
800.0322	0.021174
800.2686	0.021680
800.5049	0.021554
800.7412	0.019674
800.9776	0.019548
801.2139	0.020350
801.4503	0.019759
801.6867	0.019252
801.9230	0.018597
802.1594	0.017267
802.3958	0.017499
802.6322	0.018027
802.8686	0.016845
803.1051	0.017795
803.3415	0.016802
803.5779	0.017457
803.8144	0.016549
804.0508	0.017246
804.2873	0.016950
804.5238	0.017731
804.7603	0.017499
804.9968	0.017246
805.2333	0.017267
805.4698	0.017858
805.7063	0.019210
805.9428	0.021005
806.1794	0.022947
806.4159	0.023201
806.6525	0.026854
806.8890	0.024700
807.1256	0.023518
807.3622	0.022567
807.5988	0.023391
807.8354	0.023306
808.0720	0.023539
808.3086	0.023116
808.5452	0.023053
808.7818	0.024426
809.0185	0.022145
809.2551	0.022842
809.4918	0.023306
809.7284	0.020118
809.9651	0.018745
810.2018	0.020815
810.4385	0.018830
810.6752	0.018703
810.9119	0.018724
811.1486	0.017710
811.3853	0.018112
811.6221	0.017879
811.8588	0.016042
812.0956	0.017394
812.3323	0.018196
812.5691	0.015725
812.8059	0.015430
813.0427	0.014754
813.2795	0.014965
813.5163	0.014754
813.7531	0.019315
813.9899	0.020033
814.2267	0.018977
814.4636	0.019505
814.7004	0.017204
814.9373	0.016887
815.1742	0.018492
815.4110	0.015958
815.6479	0.014923
815.8848	0.014965
816.1217	0.014902
816.3586	0.013719
816.5955	0.014754
816.8324	0.014923
817.0694	0.014036
817.3063	0.014838
817.5433	0.013909
817.7802	0.014078
818.0172	0.016908
818.2542	0.014416
818.4912	0.012706
818.7282	0.012790
818.9652	0.013466
819.2022	0.013022
819.4392	0.012684
819.6762	0.011882
819.9133	0.011080
820.1503	0.015028
820.3874	0.013719
820.6244	0.015535
820.8615	0.016380
821.0986	0.015303
821.3357	0.015028
821.5727	0.015071
821.8099	0.014733
822.0470	0.014395
822.2841	0.013445
822.5212	0.014163
822.7584	0.013402
822.9955	0.011101
823.2327	0.011882
823.4698	0.012262
823.7070	0.011333
823.9442	0.011945
824.1814	0.012072
824.4186	0.011101
824.6558	0.010171
824.8930	0.010932
825.1302	0.009601
825.3675	0.012727
825.6047	0.013191
825.8419	0.013107
826.0792	0.012917
826.3165	0.012093
826.5537	0.012051
826.7910	0.011607
827.0283	0.014479
827.2656	0.013846
827.5029	0.013318
827.7402	0.013191
827.9776	0.012748
828.2149	0.011607
828.4522	0.013466
828.6896	0.013339
828.9270	0.012135
829.1643	0.013424
829.4017	0.013487
829.6391	0.012368
829.8765	0.010805
830.1139	0.012135
830.3513	0.011734
830.5887	0.010594
830.8261	0.010763
831.0636	0.010805
831.3010	0.009834
831.5385	0.008883
831.7759	0.008482
832.0134	0.007743
832.2509	0.006814
832.4884	0.007975
832.7259	0.008271
832.9634	0.010362
833.2009	0.009390
833.4384	0.009686
833.6759	0.010911
833.9135	0.010953
834.1510	0.009432
834.3886	0.010594
834.6261	0.011861
834.8637	0.009179
835.1013	0.011185
835.3389	0.008735
835.5765	0.008735
835.8141	0.011164
836.0517	0.009707
836.2893	0.009010
836.5269	0.009939
836.7646	0.007912
837.0022	0.008229
837.2399	0.006582
837.4775	0.007616
837.7152	0.007637
837.9529	0.007046
838.1906	0.007637
838.4283	0.005885
838.6660	0.006032
838.9037	0.006708
839.1414	0.006835
839.3791	0.008947
839.6169	0.006370
839.8546	0.009580
840.0924	0.008144
840.3302	0.006349
840.5679	0.006539
840.8057	0.007173
841.0435	0.007384
841.2813	0.006455
841.5191	0.005864
841.7569	0.005124
841.9947	0.005378
842.2326	0.006075
842.4704	0.005695
842.7082	0.006265
842.9461	0.005526
843.1840	0.004575
843.4218	0.004575
843.6597	0.005209
843.8976	0.006476
844.1355	0.005272
844.3734	0.005547
844.6113	0.006772
844.8492	0.004428
845.0872	0.006328
845.3251	0.006265
845.5631	0.004533
845.8010	0.004174
846.0390	0.005357
846.2770	0.006075
846.5149	0.004470
846.7529	0.003541
846.9909	0.005082
847.2289	0.005019
847.4669	0.005420
847.7050	0.004111
847.9430	0.005103
848.1810	0.005483
848.4191	0.006497
848.6571	0.003351
848.8952	0.004554
849.1333	0.004913
849.3713	0.005526
849.6094	0.006032
849.8475	0.003055
850.0856	0.005293
850.3237	0.004005
850.5619	0.005315
850.8000	0.005631
851.0381	0.003921
851.2763	0.004808
851.5144	0.005293
851.7526	0.004449
851.9908	0.005188
852.2289	0.005695
852.4671	0.006729
852.7053	0.008313
852.9435	0.010425
853.1817	0.013550
853.4200	0.013170
853.6582	0.013550
853.8964	0.014522
854.1347	0.011945
854.3729	0.013508
854.6112	0.014184
854.8495	0.014226
855.0877	0.012494
855.3260	0.014437
855.5643	0.013656
855.8026	0.011248
856.0409	0.011396
856.2792	0.011755
856.5176	0.010763
856.7559	0.010868
856.9942	0.011924
857.2326	0.012156
857.4710	0.010953
857.7093	0.009601
857.9477	0.010171
858.1861	0.009327
858.4245	0.009939
858.6629	0.009094
858.9013	0.009031
859.1397	0.007511
859.3781	0.008208
859.6166	0.008461
859.8550	0.009496
860.0935	0.007321
860.3319	0.008377
860.5704	0.007849
860.8089	0.007954
861.0473	0.006835
861.2858	0.005631
861.5243	0.006835
861.7628	0.007553
862.0013	0.006096
862.2399	0.007553
862.4784	0.006307
862.7169	0.005146
862.9555	0.005948
863.1940	0.005864
863.4326	0.006603
863.6712	0.008144
863.9098	0.006772
864.1483	0.007236
864.3869	0.005547
864.6255	0.007025
864.8642	0.006180
865.1028	0.005209
865.3414	0.007004
865.5800	0.006349
865.8187	0.003498
866.0573	0.004913
866.2960	0.004575
866.5347	0.005103
866.7733	0.004449
867.0120	0.004765
867.2507	0.005758
867.4894	0.005462
867.7281	0.006265
867.9669	0.005800
868.2056	0.006645
868.4443	0.004744
868.6831	0.006518
868.9218	0.006835
869.1606	0.004597
869.3993	0.005526
869.6381	0.004470
869.8769	0.004913
870.1157	0.005779
870.3545	0.005315
870.5933	0.004765
870.8321	0.004744
871.0709	0.003604
871.3097	0.006835
871.5486	0.005336
871.7874	0.006117
872.0263	0.004871
872.2651	0.005547
872.5040	0.004597
872.7429	0.005716
872.9818	0.003329
873.2207	0.004829
873.4596	0.004132
873.6985	0.005864
873.9374	0.004956
874.1763	0.006919
874.4153	0.004238
874.6542	0.004132
874.8932	0.004470
875.1321	0.005293
875.3711	0.005146
875.6101	0.005315
875.8491	0.005547
876.0880	0.005779
876.3270	0.004575
876.5661	0.005146
876.8051	0.007194
877.0441	0.003836
877.2831	0.005336
877.5222	0.005272
877.7612	0.006497
878.0003	0.005927
878.2393	0.006750
878.4784	0.007004
878.7175	0.006138
878.9566	0.006201
879.1957	0.007996
879.4348	0.008165
879.6739	0.005652
879.9130	0.006856
880.1521	0.009559
880.3913	0.007764
880.6304	0.008271
880.8696	0.008778
881.1087	0.008651
881.3479	0.007975
881.5871	0.006835
881.8262	0.005293
882.0654	0.005990
882.3046	0.005631
882.5438	0.004406
882.7831	0.006391
883.0223	0.006560
883.2615	0.006919
883.5007	0.005716
883.7400	0.007131
883.9792	0.006011
884.2185	0.005505
884.4578	0.005906
884.6971	0.006856
884.9363	0.006117
885.1756	0.006413
885.4149	0.004765
885.6542	0.007384
885.8936	0.005864
886.1329	0.007870
886.3722	0.005864
886.6116	0.005864
886.8509	0.005927
887.0903	0.006476
887.3296	0.005800
887.5690	0.004554
887.8084	0.005779
888.0478	0.006180
888.2872	0.006645
888.5266	0.003731
888.7660	0.004533
889.0054	0.004660
889.2448	0.005336
889.4843	0.004618
889.7237	0.005990
889.9632	0.005124
890.2026	0.004871
890.4421	0.004765
890.6816	0.003836
890.9211	0.003097
891.1606	0.004364
891.4001	0.006075
891.6396	0.005251
891.8791	0.004069
892.1186	0.004744
892.3581	0.004005
892.5977	0.005293
892.8372	0.005695
893.0768	0.005969
893.3163	0.005589
893.5559	0.006413
893.7955	0.004681
894.0351	0.005272
894.2747	0.003351
894.5143	0.004385
894.7539	0.004259
894.9935	0.004069
895.2331	0.003308
895.4727	0.004765
895.7124	0.003456
895.9520	0.003900
896.1917	0.004744
896.4314	0.004744
896.6710	0.003773
896.9107	0.005737
897.1504	0.004153
897.3901	0.004977
897.6298	0.004512
897.8695	0.005251
898.1092	0.005209
898.3489	0.006265
898.5887	0.005357
898.8284	0.004618
899.0682	0.005526
899.3079	0.005230
899.5477	0.004428
899.7875	0.004026
900.0272	0.003351
900.2670	0.003097
900.5068	0.003541
900.7466	0.004723
900.9864	0.003520
901.2263	0.005462
901.4661	0.004892
901.7059	0.004259
901.9458	0.004280
902.1856	0.004428
902.4255	0.005251
902.6654	0.003498
902.9052	0.002464
903.1451	0.004575
903.3850	0.002949
903.6249	0.002802
903.8648	0.003583
904.1047	0.005103
904.3446	0.003498
904.5846	0.005589
904.8245	0.004808
905.0644	0.005800
905.3044	0.004998
905.5444	0.003477
905.7843	0.005568
906.0243	0.004913
906.2643	0.004639
906.5043	0.006476
906.7443	0.005864
906.9843	0.004681
907.2243	0.002443
907.4643	0.004301
907.7043	0.004005
907.9444	0.003414
908.1844	0.004428
908.4245	0.004280
908.6645	0.003752
908.9046	0.002780
909.1447	0.002358
909.3847	0.003414
909.6248	0.003583
909.8649	0.004892
910.1050	0.001978
910.3452	0.003963
910.5853	0.003815
910.8254	0.004829
911.0655	0.002717
911.3057	0.003182
911.5458	0.003414
911.7860	0.004174
912.0262	0.002970
912.2663	0.003963
912.5065	0.005124
912.7467	0.003287
912.9869	0.003667
913.2271	0.002020
913.4673	0.003393
913.7075	0.003646
913.9478	0.002084
914.1880	0.002316
914.4283	0.003646
914.6685	0.002126
914.9088	0.003161
915.1490	0.003646
915.3893	0.001830
915.6296	0.004301
915.8699	0.002992
916.1102	0.004364
916.3505	0.004364
916.5908	0.004512
916.8311	0.002358
917.0714	0.002886
917.3118	0.003013
917.5521	0.004765
917.7925	0.004132
918.0328	0.004406
918.2732	0.003562
918.5136	0.003414
918.7539	0.004005
918.9943	0.003688
919.2347	0.004808
919.4751	0.003752
919.7155	0.004723
919.9560	0.002780
920.1964	0.002485
920.4368	0.004871
920.6773	0.003646
920.9177	0.005505
921.1582	0.003688
921.3986	0.004681
921.6391	0.002928
921.8796	0.003984
922.1201	0.001640
922.3606	0.001894
922.6011	0.003942
922.8416	0.003118
923.0821	0.003541
923.3226	0.003667
923.5631	0.001408
923.8037	0.003520
924.0442	0.002590
924.2848	0.002231
924.5254	0.001176
924.7659	0.002084
925.0065	0.003118
925.2471	0.003393
925.4877	0.002421
925.7283	0.003773
925.9689	0.002210
926.2095	0.002485
926.4501	0.002464
926.6908	0.002379
926.9314	0.002633
927.1720	0.002274
927.4127	0.002274
927.6533	0.001978
927.8940	0.002780
928.1347	0.003414
928.3754	0.003118
928.6161	0.002865
928.8568	0.002337
929.0975	0.002126
929.3382	0.000880
929.5789	0.003287
929.8196	0.000331
930.0604	0.003435
930.3011	0.001640
930.5419	0.002907
930.7826	0.002464
931.0234	0.002907
931.2642	0.003013
931.5049	0.001894
931.7457	0.001957
931.9865	0.003013
932.2273	0.003583
932.4681	0.002062
932.7089	0.001936
932.9498	0.002780
933.1906	0.002041
933.4314	0.002548
933.6723	0.003055
933.9131	0.002253
934.1540	0.001999
934.3949	0.003287
934.6358	0.001408
934.8766	0.002147
935.1175	0.003182
935.3584	0.001746
935.5993	0.001682
935.8403	0.002527
936.0812	0.001957
936.3221	0.001197
936.5630	0.000859
936.8040	0.000795
937.0449	0.002611
937.2859	0.002633
937.5269	-0.000429
937.7678	0.001049
938.0088	0.002210
938.2498	0.000584
938.4908	0.002654
938.7318	0.000648
938.9728	0.000035
939.2138	0.002062
939.4549	0.001830
939.6959	0.000479
939.9369	0.001682
940.1780	0.000204
940.4190	0.001049
940.6601	0.001830
940.9012	0.002802
941.1422	0.001894
941.3833	0.001133
941.6244	0.001281
941.8655	0.001809
942.1066	0.001218
942.3477	0.000901
942.5889	0.000711
942.8300	0.001007
943.0711	0.001323
943.3123	0.000014
943.5534	0.001851
943.7946	0.000394
944.0357	0.000162
944.2769	0.002759
944.5181	0.000289
944.7593	0.000690
945.0005	0.000331
945.2417	0.001197
945.4829	0.001049
945.7241	0.000753
945.9653	0.000648
946.2066	0.000711
946.4478	0.001408
946.6891	0.001619
946.9303	0.000120
947.1716	0.001661
947.4128	0.000183
947.6541	0.000352
947.8954	0.002189
948.1367	-0.000092
948.3780	0.002062
948.6193	0.000774
948.8606	0.001366
949.1019	0.000415
949.3433	0.001112
949.5846	0.001154
949.8259	0.001788
950.0673	0.001218
950.3086	0.000626
950.5500	0.001513
950.7914	-0.000007
951.0327	0.001176
951.2741	-0.000092
951.5155	0.002337
951.7569	-0.000303
951.9983	0.000204
952.2398	0.001471
952.4812	0.002147
952.7226	0.000985
952.9640	0.001197
953.2055	0.001133
953.4469	0.000394
953.6884	0.001619
953.9299	0.001049
954.1713	0.001429
954.4128	0.000985
954.6543	0.001218
954.8958	0.001281
955.1373	-0.000260
955.3788	0.001471
955.6203	0.000267
955.8618	0.001577
956.1034	0.001344
956.3449	0.000563
956.5865	0.000056
956.8280	0.001682
957.0696	0.000225
957.3111	0.000964
957.5527	0.001344
957.7943	-0.000239
958.0359	0.001408
958.2775	0.001725
958.5191	-0.000218
958.7607	0.001957
959.0023	-0.000366
959.2439	-0.000683
959.4856	-0.001147
959.7272	0.001640
959.9688	0.002105
960.2105	0.000985
960.4522	-0.000852
960.6938	0.000225
960.9355	0.000774
961.1772	-0.001295
961.4189	0.001323
961.6606	0.001260
961.9023	0.000711
962.1440	0.001619
962.3857	0.000859
962.6274	0.000542
962.8692	0.001260
963.1109	0.000035
963.3527	-0.000746
963.5944	-0.000092
963.8362	0.000014
964.0779	-0.000472
964.3197	-0.000197
964.5615	0.000500
964.8033	0.000289
965.0451	0.001577
965.2869	0.001408
965.5287	0.000352
965.7705	-0.000092
966.0123	0.000035
966.2542	0.001344
966.4960	0.000943
966.7379	0.000626
966.9797	0.001556
967.2216	0.001112
967.4634	0.000901
967.7053	-0.000429
967.9472	0.000584
968.1891	0.000246
968.4310	0.001957
968.6729	0.000099
968.9148	0.001133
969.1567	0.000331
969.3987	0.002337
969.6406	0.000077
969.8825	0.002147
970.1245	-0.000725
970.3664	-0.000408
970.6084	0.000458
970.8504	0.001471
971.0923	-0.000197
971.3343	0.000626
971.5763	0.000774
971.8183	0.002126
972.0603	0.000964
972.3023	0.000817
972.5443	0.000141
972.7864	0.001218
973.0284	-0.000683
973.2704	-0.000683
973.5125	0.000120
973.7545	0.000648
973.9966	-0.000429
974.2387	0.000838
974.4807	-0.000366
974.7228	-0.001781
974.9649	-0.000113
975.2070	0.001344
975.4491	-0.000239
975.6912	-0.000387
975.9333	0.001999
976.1755	0.000669
976.4176	0.001535
976.6597	-0.000641
976.9019	-0.000092
977.1440	0.000795
977.3862	-0.000387
977.6283	0.000331
977.8705	0.000014
978.1127	-0.000556
978.3549	0.001028
978.5971	0.001746
978.8393	0.000225
979.0815	0.002126
979.3237	0.000415
979.5659	0.000331
979.8082	0.000838
980.0504	-0.000176
980.2926	-0.000894
980.5349	0.000500
980.7771	-0.000598
981.0194	0.001281
981.2617	-0.000345
981.5040	0.000162
981.7462	0.000204
981.9885	0.001323
982.2308	0.000563
982.4731	0.001197
982.7155	-0.001485
982.9578	-0.000493
983.2001	-0.000070
983.4424	0.000458
983.6848	0.000817
983.9271	0.000204
984.1695	-0.000788
984.4118	-0.000070
984.6542	-0.000176
984.8966	0.001260
985.1390	-0.001485
985.3814	0.001154
985.6238	0.000753
985.8662	0.001387
986.1086	0.000035
986.3510	0.001408
986.5934	-0.000324
986.8358	-0.001190
987.0783	-0.000873
987.3207	0.001471
987.5632	0.001133
987.8056	0.001007
988.0481	-0.000176
988.2906	0.000373
988.5331	0.000141
988.7756	-0.001190
989.0180	0.000183
989.2605	0.000943
989.5031	-0.000704
989.7456	0.001682
989.9881	0.001218
990.2306	0.000563
990.4732	-0.000303
990.7157	-0.000155
990.9582	-0.000134
991.2008	-0.000957
991.4434	0.001176
991.6859	0.000056
991.9285	0.000458
992.1711	0.000964
992.4137	-0.000746
992.6563	0.000500
992.8989	0.000077
993.1415	-0.000746
993.3841	0.000669
993.6267	0.000690
993.8694	-0.000894
994.1120	0.000352
994.3547	-0.000070
994.5973	-0.000007
994.8400	-0.000218
995.0826	-0.000092
995.3253	-0.000514
995.5680	-0.000239
995.8107	-0.000345
996.0534	0.000859
996.2961	-0.000514
996.5388	-0.000239
996.7815	-0.001232
997.0242	0.000859
997.2670	-0.000049
997.5097	0.000415
997.7524	0.001387
997.9952	0.000331
998.2379	-0.001359
998.4807	-0.000556
998.7235	0.000246
998.9662	0.000563
999.2090	-0.000176
999.4518	0.000711
999.6946	-0.000282
999.9374	0.001070
1000.1802	0.000436
1000.4230	0.000120
1000.6659	-0.000915
1000.9087	0.000605
1001.1515	0.000183
1001.3944	0.000246
1001.6372	0.000373
1001.8801	0.000141
1002.1230	0.000394
1002.3658	0.000436
1002.6087	0.000225
1002.8516	-0.000324
1003.0945	-0.000218
1003.3374	0.000584
1003.5803	0.000458
1003.8232	-0.000049
1004.0661	0.000373
1004.3091	0.000352
1004.5520	-0.000218
1004.7949	-0.000641
1005.0379	-0.001190
1005.2808	-0.000007
1005.5238	0.000458
1005.7667	0.000479
1006.0097	-0.000324
1006.2527	0.000458
1006.4957	-0.000598
1006.7387	0.000246
1006.9817	-0.001823
1007.2247	-0.000619
1007.4677	-0.000197
1007.7107	-0.000704
1007.9538	-0.000894
1008.1968	-0.000535
1008.4398	0.000964
1008.6829	-0.000218
1008.9259	0.000352
1009.1690	0.000626
1009.4121	-0.000831
1009.6551	0.000352
1009.8982	0.000436
1010.1413	-0.000028
1010.3844	0.000943
1010.6275	0.000669
1010.8706	-0.000113
1011.1137	-0.000092
1011.3568	0.000289
1011.6000	0.000225
1011.8431	0.000394
1012.0863	-0.001000
1012.3294	0.000500
1012.5726	0.000584
1012.8157	0.000310
1013.0589	-0.000303
1013.3021	0.000605
1013.5452	-0.000282
1013.7884	-0.001063
1014.0316	-0.000408
1014.2748	0.001218
1014.5180	-0.001696
1014.7613	0.000415
1015.0045	-0.000619
1015.2477	0.000267
1015.4909	-0.000070
1015.7342	-0.001084
1015.9774	0.001007
1016.2207	0.000014
1016.4640	-0.000239
1016.7072	0.000774
1016.9505	-0.000070
1017.1938	0.000964
1017.4371	-0.000831
1017.6804	0.000563
1017.9237	-0.000556
1018.1670	-0.000493
1018.4103	0.000310
1018.6536	0.001577
1018.8969	-0.001485
1019.1403	0.001429
1019.3836	-0.000113
1019.6270	-0.000809
1019.8703	-0.001274
1020.1137	0.000901
1020.3571	0.000626
1020.6004	0.001598
1020.8438	-0.001844
1021.0872	-0.000134
1021.3306	-0.001042
1021.5740	0.000500
1021.8174	-0.000387
1022.0608	-0.001021
1022.3042	-0.002478
1022.5477	-0.000176
1022.7911	-0.000704
1023.0345	-0.000831
