# Wavelength (nm)	Intensity (a.u.)
197.7802	0.000547
197.9842	-0.000107
198.1882	0.001201
198.3922	0.000526
198.5963	0.000441
198.8003	0.000969
199.0044	0.001433
199.2085	0.000484
199.4126	0.000336
199.6168	-0.000297
199.8209	0.000906
200.0251	0.001349
200.2292	0.000463
200.4334	0.000652
200.6376	0.001855
200.8418	-0.000171
201.0461	0.000842
201.2503	-0.000508
201.4546	0.000885
201.6589	0.001433
201.8631	0.000230
202.0674	0.000463
202.2718	0.001307
202.4761	0.000167
202.6805	0.000463
202.8848	0.000357
203.0892	0.002256
203.2936	0.000463
203.4980	0.000589
203.7024	0.000610
203.9069	0.000885
204.1113	0.000568
204.3158	0.001644
204.5203	-0.001247
204.7248	0.001117
204.9293	-0.000550
205.1338	-0.000846
205.3384	0.000040
205.5430	0.000083
205.7475	-0.000529
205.9521	0.000463
206.1567	0.000484
206.3614	0.000357
206.5660	0.000104
206.7706	0.000674
206.9753	-0.000572
207.1800	-0.000171
207.3847	-0.000550
207.5894	0.002278
207.7941	-0.000846
207.9989	0.000990
208.2036	0.000357
208.4084	0.001454
208.6132	0.000441
208.8180	-0.000339
209.0228	0.001476
209.2276	0.001497
209.4325	0.001159
209.6373	0.000758
209.8422	0.000758
210.0471	-0.000719
210.2520	-0.000234
210.4569	0.001666
210.6618	-0.001120
210.8668	-0.000128
211.0718	0.000315
211.2767	0.000821
211.4817	0.000505
211.6867	0.000737
211.8918	-0.000107
212.0968	0.001792
212.3018	-0.000002
212.5069	0.000019
212.7120	-0.001817
212.9171	0.000251
213.1222	0.000568
213.3273	0.000251
213.5325	0.001834
213.7376	0.000040
213.9428	0.001286
214.1480	0.000209
214.3532	0.000019
214.5584	0.000737
214.7636	0.001053
214.9689	-0.000909
215.1741	0.000505
215.3794	0.001180
215.5847	0.000273
215.7900	0.000420
215.9953	-0.000508
216.2007	0.000484
216.4060	0.000589
216.6114	0.000589
216.8168	0.000610
217.0222	-0.000192
217.2276	0.000336
217.4330	0.002383
217.6384	0.000209
217.8439	-0.000128
218.0494	-0.000635
218.2548	0.000969
218.4603	0.000610
218.6659	0.000188
218.8714	-0.000361
219.0769	0.001180
219.2825	-0.000888
219.4881	0.000420
219.6936	0.000040
219.8992	0.001518
220.1049	0.000758
220.3105	0.001370
220.5161	0.000463
220.7218	0.001518
220.9275	0.000357
221.1332	0.000315
221.3389	0.000104
221.5446	0.000906
221.7503	0.000505
221.9561	0.000230
222.1618	0.000167
222.3676	0.000336
222.5734	0.000484
222.7792	0.000420
222.9850	-0.000255
223.1909	0.000104
223.3967	0.000885
223.6026	0.000990
223.8085	-0.000318
224.0144	0.001771
224.2203	-0.000508
224.4262	0.000188
224.6322	0.001053
224.8381	0.001053
225.0441	0.000674
225.2501	0.001476
225.4561	0.000990
225.6621	0.000547
225.8681	0.001581
226.0742	0.000927
226.2802	-0.001036
226.4863	0.001011
226.6924	0.001539
226.8985	0.000357
227.1046	0.000294
227.3107	0.000631
227.5169	0.000273
227.7230	0.000230
227.9292	0.000188
228.1354	0.000821
228.3416	0.001476
228.5478	0.000526
228.7541	0.000125
228.9603	0.000209
229.1666	0.000146
229.3729	0.001222
229.5791	0.000990
229.7855	0.000737
229.9918	-0.000403
230.1981	-0.000276
230.4045	-0.000234
230.6108	-0.000382
230.8172	0.000695
231.0236	0.001201
231.2300	0.000547
231.4364	0.001898
231.6429	0.000251
231.8493	0.000040
232.0558	0.000547
232.2623	0.000948
232.4688	0.000315
232.6753	0.002066
232.8818	0.000842
233.0884	0.000652
233.2949	0.000737
233.5015	-0.000002
233.7081	-0.000213
233.9147	0.000631
234.1213	0.001096
234.3279	0.001898
234.5346	-0.000466
234.7413	0.001180
234.9479	0.000505
235.1546	0.001834
235.3613	0.000885
235.5680	-0.000213
235.7748	0.000315
235.9815	0.002235
236.1883	0.000568
236.3951	0.000251
236.6018	-0.000171
236.8087	0.001855
237.0155	0.000927
237.2223	0.000273
237.4292	0.001243
237.6360	0.001011
237.8429	0.001982
238.0498	0.000589
238.2567	0.001159
238.4636	0.001560
238.6706	-0.000529
238.8775	0.000484
239.0845	0.001370
239.2915	0.000589
239.4985	0.000779
239.7055	0.000463
239.9125	0.001032
240.1195	-0.000065
240.3266	0.000104
240.5337	0.001307
240.7407	0.000378
240.9478	0.001518
241.1549	-0.000466
241.3621	0.000695
241.5692	0.001075
241.7764	0.001433
241.9835	0.000251
242.1907	0.002214
242.3979	0.000716
242.6051	0.002172
242.8124	0.000125
243.0196	-0.001310
243.2269	0.000737
243.4341	0.000104
243.6414	0.001982
243.8487	0.001159
244.0560	0.000737
244.2634	0.000906
244.4707	-0.000297
244.6781	0.000969
244.8854	0.001518
245.0928	0.000104
245.3002	0.000969
245.5076	-0.000128
245.7151	0.000842
245.9225	0.000040
246.1300	0.000357
246.3375	0.001222
246.5449	-0.000740
246.7524	0.000737
246.9600	0.002066
247.1675	0.000674
247.3750	-0.000614
247.5826	0.000357
247.7902	0.000420
247.9978	0.000040
248.2054	0.001370
248.4130	0.000610
248.6206	0.000463
248.8283	0.000547
249.0359	0.000864
249.2436	0.000969
249.4513	0.001075
249.6590	0.001349
249.8667	0.000885
250.0745	-0.000424
250.2822	-0.000213
250.4900	0.001075
250.6978	0.000716
250.9056	-0.000635
251.1134	-0.000572
251.3212	0.000568
251.5290	0.000336
251.7369	0.000927
251.9447	0.000610
252.1526	0.000315
252.3605	-0.000783
252.5684	0.000420
252.7763	0.000484
252.9843	0.000864
253.1922	0.000610
253.4002	0.002109
253.6082	0.000146
253.8162	-0.000382
254.0242	0.000547
254.2322	-0.000382
254.4402	0.001286
254.6483	0.001307
254.8564	0.001307
255.0644	-0.000297
255.2725	0.000040
255.4806	0.000821
255.6888	-0.000339
255.8969	0.001243
256.1051	0.000420
256.3132	0.001201
256.5214	0.000885
256.7296	0.001940
256.9378	-0.000023
257.1460	-0.000213
257.3543	0.001180
257.5625	0.000758
257.7708	0.000378
257.9791	0.001476
258.1874	-0.000403
258.3957	0.000969
258.6040	-0.000086
258.8124	-0.000234
259.0207	0.001075
259.2291	0.002024
259.4375	0.001011
259.6459	0.001159
259.8543	0.000547
260.0627	0.002278
260.2711	0.000821
260.4796	0.000315
260.6881	-0.000339
260.8965	0.002130
261.1050	0.000188
261.3135	0.001602
261.5221	-0.000550
261.7306	0.000631
261.9392	0.000758
262.1477	0.000589
262.3563	0.000019
262.5649	0.000610
262.7735	0.000800
262.9822	0.000864
263.1908	0.000695
263.3995	0.001771
263.6081	0.000906
263.8168	0.000062
264.0255	0.000125
264.2342	0.000779
264.4429	0.000758
264.6517	-0.000107
264.8604	-0.000276
265.0692	0.001349
265.2780	0.000167
265.4868	0.000758
265.6956	0.000737
265.9044	0.001539
266.1133	0.000062
266.3221	0.001708
266.5310	0.000463
266.7399	0.000758
266.9488	-0.000044
267.1577	0.000441
267.3666	-0.000825
267.5755	0.001328
267.7845	-0.000424
267.9935	0.001307
268.2024	-0.000593
268.4114	0.001265
268.6205	0.001138
268.8295	0.001117
269.0385	0.001265
269.2476	0.000463
269.4566	-0.001036
269.6657	0.001666
269.8748	0.000969
270.0839	0.001454
270.2931	-0.000888
270.5022	-0.000403
270.7114	0.000842
270.9205	0.000610
271.1297	0.001666
271.3389	-0.000171
271.5481	-0.000318
271.7573	0.002172
271.9666	0.000779
272.1758	0.001222
272.3851	-0.000192
272.5944	0.001286
272.8037	0.000251
273.0130	0.000484
273.2223	0.000104
273.4316	0.001476
273.6410	-0.000635
273.8504	0.000167
274.0597	0.000315
274.2691	0.000378
274.4785	-0.000677
274.6880	0.001265
274.8974	-0.000593
275.1069	0.002932
275.3163	0.001539
275.5258	0.001687
275.7353	-0.000403
275.9448	0.001666
276.1543	0.000505
276.3639	0.000251
276.5734	0.000315
276.7830	0.000420
276.9926	-0.000171
277.2022	0.000737
277.4118	0.000610
277.6214	0.001560
277.8310	0.002045
278.0407	0.000209
278.2503	0.000652
278.4600	0.001391
278.6697	0.001539
278.8794	0.000336
279.0891	0.000737
279.2989	0.000716
279.5086	0.000948
279.7184	0.000146
279.9281	0.000800
280.1379	-0.000593
280.3477	-0.000550
280.5576	0.000737
280.7674	-0.000804
280.9772	0.000484
281.1871	-0.001057
281.3970	0.000230
281.6069	0.001180
281.8168	0.000420
282.0267	-0.000593
282.2366	0.000948
282.4466	-0.000128
282.6565	0.001497
282.8665	0.000969
283.0765	0.000378
283.2865	0.000378
283.4965	0.001011
283.7065	0.000800
283.9166	0.000927
284.1266	0.000125
284.3367	0.001792
284.5468	0.000716
284.7569	0.001201
284.9670	0.000062
285.1771	0.000188
285.3873	-0.000361
285.5974	0.000399
285.8076	-0.000255
286.0178	-0.000234
286.2280	0.000906
286.4382	0.001011
286.6484	-0.000318
286.8587	0.000800
287.0689	0.000083
287.2792	0.000969
287.4895	0.002890
287.6998	0.001370
287.9101	0.000040
288.1204	0.001096
288.3308	-0.000677
288.5411	0.002109
288.7515	0.000969
288.9619	0.000695
289.1723	0.000990
289.3827	0.001644
289.5931	0.000420
289.8035	0.001201
290.0140	0.000526
290.2245	0.001117
290.4349	0.000695
290.6454	0.000610
290.8559	0.000800
291.0665	0.001518
291.2770	0.000589
291.4875	0.000885
291.6981	0.000526
291.9087	-0.000023
292.1193	0.001771
292.3299	-0.000318
292.5405	0.000230
292.7511	0.000610
292.9618	0.000399
293.1724	-0.000529
293.3831	0.000821
293.5938	0.001180
293.8045	-0.001627
294.0152	0.000652
294.2260	0.001307
294.4367	0.001834
294.6475	-0.000698
294.8582	-0.000677
295.0690	0.000019
295.2798	0.001602
295.4906	-0.000065
295.7015	0.000948
295.9123	0.001476
296.1232	-0.000276
296.3340	0.000674
296.5449	0.000378
296.7558	0.000842
296.9667	0.000864
297.1777	0.002172
297.3886	0.001666
297.5995	-0.000171
297.8105	0.000821
298.0215	0.001391
298.2325	0.001855
298.4435	0.000927
298.6545	0.001644
298.8656	0.000927
299.0766	0.001560
299.2877	-0.000487
299.4988	0.000906
299.7099	0.000083
299.9210	-0.000002
300.1321	0.000083
300.3432	0.001644
300.5544	0.001011
300.7655	0.002299
300.9767	0.000125
301.1879	0.000758
301.3991	-0.000002
301.6103	0.001539
301.8215	0.000505
302.0328	0.000589
302.2441	0.000146
302.4553	0.001391
302.6666	0.001117
302.8779	0.001286
303.0892	0.000906
303.3006	0.002130
303.5119	0.000652
303.7233	0.001666
303.9346	0.000589
304.1460	0.000842
304.3574	0.001370
304.5688	0.001834
304.7803	0.000631
304.9917	0.001159
305.2031	0.000631
305.4146	0.001075
305.6261	-0.000276
305.8376	0.001011
306.0491	0.000821
306.2606	0.000737
306.4722	0.000357
306.6837	0.001180
306.8953	-0.000762
307.1069	0.000526
307.3184	0.000948
307.5301	0.001666
307.7417	-0.000529
307.9533	-0.000192
308.1650	0.000357
308.3766	0.001813
308.5883	-0.000361
308.8000	0.001180
309.0117	0.001391
309.2234	0.000399
309.4351	0.001053
309.6469	0.001286
309.8586	0.000484
310.0704	0.000484
310.2822	-0.000825
310.4940	0.000083
310.7058	0.000779
310.9176	-0.000171
311.1295	0.000906
311.3413	0.000547
311.5532	0.002679
311.7651	0.001032
311.9770	-0.000445
312.1889	0.000463
312.4008	-0.000128
312.6127	0.001771
312.8247	-0.001036
313.0366	0.002193
313.2486	-0.000065
313.4606	0.001497
313.6726	0.000589
313.8846	0.001729
314.0967	0.000251
314.3087	0.000674
314.5208	0.000357
314.7328	0.000695
314.9449	-0.000698
315.1570	0.000737
315.3692	0.000230
315.5813	0.001919
315.7934	0.001032
316.0056	0.000251
316.2177	0.000357
316.4299	0.000758
316.6421	-0.001036
316.8543	-0.000361
317.0666	0.001307
317.2788	0.001075
317.4911	-0.001669
317.7033	0.000083
317.9156	0.000378
318.1279	0.001855
318.3402	0.000167
318.5525	0.001032
318.7649	-0.000002
318.9772	0.000758
319.1896	0.000547
319.4019	0.000821
319.6143	0.001011
319.8267	0.000146
320.0392	-0.000677
320.2516	0.002045
320.4640	-0.000086
320.6765	0.002510
320.8890	0.001011
321.1014	0.000927
321.3139	-0.000171
321.5265	0.001391
321.7390	-0.000572
321.9515	0.000821
322.1641	0.001243
322.3766	0.000167
322.5892	-0.000508
322.8018	0.000378
323.0144	-0.000065
323.2270	0.001370
323.4397	-0.001352
323.6523	0.000526
323.8650	0.000568
324.0777	-0.000065
324.2904	0.001370
324.5031	0.000969
324.7158	0.000716
324.9285	0.000589
325.1412	-0.000318
325.3540	0.000399
325.5668	0.000779
325.7796	0.000167
325.9924	0.000631
326.2052	0.001687
326.4180	-0.000297
326.6308	-0.000909
326.8437	0.001265
327.0566	0.002320
327.2694	0.000526
327.4823	-0.000213
327.6952	0.000674
327.9082	0.001497
328.1211	0.001560
328.3340	0.001265
328.5470	-0.001437
328.7600	0.001032
328.9730	0.000273
329.1860	-0.000023
329.3990	0.000505
329.6120	-0.000128
329.8251	-0.000973
330.0381	0.001117
330.2512	0.000990
330.4643	0.000674
330.6774	0.000589
330.8905	0.000716
331.1036	-0.000846
331.3167	0.002510
331.5299	0.000420
331.7431	0.000230
331.9562	0.001011
332.1694	0.000758
332.3826	0.000610
332.5959	0.000315
332.8091	0.000779
333.0223	0.002510
333.2356	0.000357
333.4489	-0.000171
333.6622	-0.000424
333.8755	0.000906
334.0888	0.001539
334.3021	0.001877
334.5154	-0.000065
334.7288	0.002193
334.9422	0.001412
335.1555	0.001138
335.3689	-0.001184
335.5823	0.001222
335.7958	-0.000044
336.0092	0.001581
336.2227	0.002763
336.4361	0.000441
336.6496	-0.000192
336.8631	0.000294
337.0766	-0.000361
337.2901	0.001813
337.5036	0.000251
337.7172	0.000420
337.9307	-0.000424
338.1443	0.002045
338.3579	0.000674
338.5715	0.000652
338.7851	0.000315
338.9987	0.001729
339.2124	0.001096
339.4260	0.002341
339.6397	0.000526
339.8533	0.001222
340.0670	0.000357
340.2807	0.000864
340.4945	-0.000593
340.7082	0.002088
340.9219	0.001560
341.1357	0.000906
341.3495	0.001581
341.5633	0.000083
341.7771	0.000969
341.9909	0.000083
342.2047	-0.000044
342.4185	0.000927
342.6324	0.001307
342.8463	0.002066
343.0601	0.001243
343.2740	0.001813
343.4879	-0.000487
343.7019	0.001644
343.9158	0.000800
344.1297	0.001476
344.3437	-0.000382
344.5577	0.000441
344.7717	0.000146
344.9857	0.001771
345.1997	-0.000128
345.4137	0.000631
345.6277	-0.000234
345.8418	0.000990
346.0559	-0.000107
346.2699	0.000040
346.4840	-0.000487
346.6981	0.001412
346.9123	-0.001458
347.1264	0.001391
347.3406	0.000441
347.5547	0.001032
347.7689	-0.001331
347.9831	0.001539
348.1973	0.001476
348.4115	-0.000297
348.6257	0.000167
348.8400	-0.000065
349.0542	-0.000276
349.2685	0.002003
349.4828	-0.000128
349.6971	-0.000044
349.9114	0.001476
350.1257	0.001602
350.3400	-0.001226
350.5544	-0.000339
350.7687	-0.000213
350.9831	0.000906
351.1975	0.000737
351.4119	0.001391
351.6263	-0.000466
351.8407	-0.000234
352.0552	0.001222
352.2696	0.001433
352.4841	0.000463
352.6986	-0.000445
352.9131	0.000631
353.1276	0.000441
353.3421	0.000230
353.5566	0.000040
353.7712	-0.001036
353.9858	-0.001331
354.2003	-0.000213
354.4149	0.000167
354.6295	0.000188
354.8441	0.001138
355.0588	0.000399
355.2734	0.000230
355.4881	-0.000318
355.7027	0.001433
355.9174	0.000927
356.1321	0.002130
356.3468	-0.000656
356.5615	0.000631
356.7763	0.001834
356.9910	0.000990
357.2058	-0.000487
357.4206	0.000821
357.6353	-0.000424
357.8501	0.000737
358.0650	0.000885
358.2798	0.001497
358.4946	0.001075
358.7095	-0.000255
358.9243	0.000505
359.1392	0.002721
359.3541	0.000463
359.5690	0.002425
359.7839	0.000674
359.9989	0.001940
360.2138	-0.000339
360.4288	0.000885
360.6438	0.001243
360.8587	-0.000361
361.0737	0.000589
361.2888	0.001560
361.5038	0.000294
361.7188	0.000800
361.9339	-0.000192
362.1489	0.000167
362.3640	0.000040
362.5791	-0.000171
362.7942	-0.001352
363.0093	0.000209
363.2245	0.000969
363.4396	0.000505
363.6548	0.000568
363.8699	0.001877
364.0851	0.001011
364.3003	0.000695
364.5155	0.000779
364.7308	0.000927
364.9460	0.002130
365.1612	-0.001099
365.3765	0.000505
365.5918	0.001075
365.8071	0.000758
366.0224	0.002024
366.2377	-0.000550
366.4530	-0.000361
366.6684	0.000885
366.8837	0.002700
367.0991	-0.000023
367.3145	0.002341
367.5299	0.000800
367.7453	0.001476
367.9607	0.000315
368.1761	0.000463
368.3916	0.000378
368.6070	0.001771
368.8225	-0.000234
369.0380	0.002045
369.2535	0.000441
369.4690	0.001096
369.6845	0.000547
369.9001	0.000695
370.1156	0.001708
370.3312	0.002320
370.5468	0.002341
370.7624	0.001370
370.9780	0.000505
371.1936	0.000420
371.4092	-0.000255
371.6249	0.000864
371.8405	0.001729
372.0562	0.000906
372.2719	0.000990
372.4876	0.000568
372.7033	0.000463
372.9190	-0.000466
373.1348	0.000885
373.3505	0.001666
373.5663	0.001117
373.7820	0.001687
373.9978	0.000864
374.2136	0.000251
374.4294	0.000019
374.6453	0.000505
374.8611	0.001201
375.0770	0.000294
375.2928	0.000652
375.5087	0.000526
375.7246	0.000990
375.9405	0.000948
376.1564	0.000652
376.3724	-0.000044
376.5883	0.000906
376.8043	0.000315
377.0203	0.000631
377.2362	0.001729
377.4522	0.000842
377.6682	0.000927
377.8843	0.001011
378.1003	-0.000002
378.3164	0.000104
378.5324	0.000526
378.7485	0.001349
378.9646	-0.000508
379.1807	0.001644
379.3968	0.000251
379.6129	-0.000846
379.8291	0.001771
380.0452	-0.000382
380.2614	0.000463
380.4776	0.001096
380.6938	0.001855
380.9100	0.000864
381.1262	0.002404
381.3424	0.000589
381.5587	0.001560
381.7749	-0.000023
381.9912	0.001222
382.2075	0.001159
382.4238	0.001265
382.6401	0.000167
382.8564	0.001623
383.0728	0.001898
383.2891	0.000251
383.5055	0.000167
383.7219	0.001581
383.9382	0.000294
384.1546	0.002066
384.3711	-0.000740
384.5875	0.001708
384.8039	0.000906
385.0204	0.001117
385.2368	0.001982
385.4533	0.002003
385.6698	0.001243
385.8863	0.000906
386.1028	0.002235
386.3194	0.003164
386.5359	0.000378
386.7525	0.000990
386.9690	0.003101
387.1856	0.002446
387.4022	0.000674
387.6188	0.001623
387.8355	0.002299
388.0521	0.002320
388.2687	0.002256
388.4854	0.001644
388.7021	0.002109
388.9188	0.002911
389.1355	0.001877
389.3522	0.002636
389.5689	0.002995
389.7856	0.003692
390.0024	0.003143
390.2192	0.004050
390.4359	0.002320
390.6527	0.003502
390.8695	0.003818
391.0863	0.004409
391.3032	0.003734
391.5200	0.004135
391.7369	0.005211
391.9537	0.004409
392.1706	0.006287
392.3875	0.006815
392.6044	0.006161
392.8213	0.007912
393.0383	0.007469
393.2552	0.008250
393.4722	0.006921
393.6891	0.007701
393.9061	0.006583
394.1231	0.007870
394.3401	0.008102
394.5572	0.008503
394.7742	0.009137
394.9912	0.008567
395.2083	0.007554
395.4254	0.008883
395.6425	0.010382
395.8596	0.012049
396.0767	0.011184
396.2938	0.012619
396.5109	0.011901
396.7281	0.014560
396.9453	0.012682
397.1624	0.012619
397.3796	0.012577
397.5968	0.013125
397.8140	0.013505
398.0313	0.016207
398.2485	0.016333
398.4658	0.016840
398.6830	0.017220
398.9003	0.018423
399.1176	0.017431
399.3349	0.016375
399.5522	0.019541
399.7696	0.017663
399.9869	0.018275
400.2043	0.018317
400.4216	0.016333
400.6390	0.018950
400.8564	0.020575
401.0738	0.019309
401.2912	0.019267
401.5087	0.018908
401.7261	0.019541
401.9436	0.019921
402.1610	0.017895
402.3785	0.019225
402.5960	0.021968
402.8135	0.021905
403.0310	0.021968
403.2486	0.020955
403.4661	0.021525
403.6837	0.021272
403.9013	0.022285
404.1189	0.022306
404.3365	0.023108
404.5541	0.023530
404.7717	0.024501
404.9893	0.023868
405.2070	0.024205
405.4246	0.025830
405.6423	0.024838
405.8600	0.027033
406.0777	0.024585
406.2954	0.026759
406.5131	0.024691
406.7309	0.025640
406.9486	0.023150
407.1664	0.025155
407.3842	0.022411
407.6020	0.023424
407.8198	0.025640
408.0376	0.024311
408.2554	0.026105
408.4733	0.027287
408.6911	0.027666
408.9090	0.025894
409.1269	0.026991
409.3448	0.027413
409.5627	0.026991
409.7806	0.026949
409.9985	0.027624
410.2165	0.027139
410.4344	0.025936
410.6524	0.026991
410.8704	0.025028
411.0884	0.026337
411.3064	0.027983
411.5244	0.026632
411.7424	0.025873
411.9605	0.026379
412.1785	0.027202
412.3966	0.028574
412.6147	0.029439
412.8328	0.027603
413.0509	0.028490
413.2690	0.029376
413.4871	0.029123
413.7053	0.029313
413.9234	0.029840
414.1416	0.027350
414.3598	0.028278
414.5780	0.027476
414.7962	0.028869
415.0144	0.027856
415.2326	0.031191
415.4509	0.027350
415.6692	0.027814
415.8874	0.027920
416.1057	0.028679
416.3240	0.030157
416.5423	0.030410
416.7606	0.030199
416.9790	0.028616
417.1973	0.029925
417.4157	0.029650
417.6341	0.029692
417.8524	0.028595
418.0708	0.028891
418.2893	0.030093
418.5077	0.028131
418.7261	0.032077
418.9446	0.029946
419.1630	0.031233
419.3815	0.029249
419.6000	0.030769
419.8185	0.031043
420.0370	0.031845
420.2555	0.030178
420.4741	0.030009
420.6926	0.032710
420.9112	0.032837
421.1298	0.034146
421.3483	0.035074
421.5669	0.035602
421.7856	0.040055
422.0042	0.037100
422.2228	0.035834
422.4415	0.035581
422.6601	0.033154
422.8788	0.033576
423.0975	0.036826
423.3162	0.033386
423.5349	0.034314
423.7536	0.035180
423.9724	0.033407
424.1911	0.031128
424.4099	0.032837
424.6287	0.032563
424.8475	0.033196
425.0663	0.032774
425.2851	0.032436
425.5039	0.032858
425.7228	0.031972
425.9416	0.030917
426.1605	0.030009
426.3793	0.030051
426.5982	0.031507
426.8171	0.028912
427.0361	0.029777
427.2550	0.031550
427.4739	0.031106
427.6929	0.031592
427.9118	0.032141
428.1308	0.031043
428.3498	0.031697
428.5688	0.030241
428.7878	0.030347
429.0068	0.029798
429.2259	0.032077
429.4449	0.032373
429.6640	0.035222
429.8831	0.037797
430.1022	0.036340
430.3213	0.036235
430.5404	0.035876
430.7595	0.034420
430.9787	0.034800
431.1978	0.033935
431.4170	0.034420
431.6362	0.031507
431.8553	0.031972
432.0745	0.029376
432.2938	0.028110
432.5130	0.028785
432.7322	0.030072
432.9515	0.026147
433.1707	0.029524
433.3900	0.029017
433.6093	0.032120
433.8286	0.033660
434.0479	0.035834
434.2673	0.032288
434.4866	0.031381
434.7059	0.031655
434.9253	0.030959
435.1447	0.030600
435.3641	0.029186
435.5835	0.030347
435.8029	0.031043
436.0223	0.029460
436.2418	0.030115
436.4612	0.030895
436.6807	0.030727
436.9001	0.031275
437.1196	0.029186
437.3391	0.031381
437.5586	0.030262
437.7782	0.030727
437.9977	0.028891
438.2173	0.030579
438.4368	0.029777
438.6564	0.031951
438.8760	0.029967
439.0956	0.031486
439.3152	0.030178
439.5348	0.031043
439.7545	0.031908
439.9741	0.030832
440.1938	0.027476
440.4135	0.030178
440.6331	0.029756
440.8528	0.031106
441.0725	0.031634
441.2923	0.033111
441.5120	0.035686
441.7318	0.036362
441.9515	0.036319
442.1713	0.035581
442.3911	0.034272
442.6109	0.033766
442.8307	0.034504
443.0505	0.033365
443.2703	0.033871
443.4902	0.033787
443.7101	0.034842
443.9299	0.032964
444.1498	0.033491
444.3697	0.031824
444.5896	0.031212
444.8095	0.032732
445.0295	0.031550
445.2494	0.030600
445.4694	0.031676
445.6894	0.030811
445.9093	0.031697
446.1293	0.031571
446.3493	0.031212
446.5694	0.030537
446.7894	0.031339
447.0094	0.030452
447.2295	0.030009
447.4496	0.028743
447.6696	0.028616
447.8897	0.028468
448.1098	0.029102
448.3300	0.027772
448.5501	0.029228
448.7702	0.028067
448.9904	0.027413
449.2106	0.027899
449.4307	0.027582
449.6509	0.027814
449.8711	0.027160
450.0914	0.027329
450.3116	0.028215
450.5318	0.026864
450.7521	0.026801
450.9724	0.025387
451.1926	0.024290
451.4129	0.025366
451.6332	0.024163
451.8535	0.025345
452.0739	0.025472
452.2942	0.025155
452.5146	0.023931
452.7349	0.025028
452.9553	0.022454
453.1757	0.023593
453.3961	0.023319
453.6165	0.022918
453.8369	0.022496
454.0574	0.022496
454.2778	0.020829
454.4983	0.022095
454.7188	0.021989
454.9393	0.022475
455.1597	0.022074
455.3803	0.021230
455.6008	0.022264
455.8213	0.022116
456.0419	0.020301
456.2624	0.021757
456.4830	0.021631
456.7036	0.021272
456.9242	0.019710
457.1448	0.019246
457.3654	0.021863
457.5860	0.021398
457.8067	0.020765
458.0274	0.021842
458.2480	0.022137
458.4687	0.020617
458.6894	0.023298
458.9101	0.021778
459.1308	0.022390
459.3516	0.020913
459.5723	0.021377
459.7931	0.020596
460.0138	0.021504
460.2346	0.019837
460.4554	0.020976
460.6762	0.019309
460.8970	0.019541
461.1178	0.019415
461.3387	0.019436
461.5595	0.018992
461.7804	0.018486
462.0013	0.017853
462.2222	0.017114
462.4431	0.016460
462.6640	0.016017
462.8849	0.017262
463.1059	0.017177
463.3268	0.016059
463.5478	0.017578
463.7687	0.017958
463.9897	0.017093
464.2107	0.018950
464.4317	0.017705
464.6528	0.018380
464.8738	0.018866
465.0948	0.017304
465.3159	0.019203
465.5370	0.017346
465.7581	0.018380
465.9792	0.018887
466.2003	0.017346
466.4214	0.016776
466.6425	0.014624
466.8637	0.015151
467.0848	0.014898
467.3060	0.015088
467.5272	0.011353
467.7484	0.014244
467.9696	0.013315
468.1908	0.013505
468.4120	0.014392
468.6333	0.014349
468.8545	0.012344
469.0758	0.012682
469.2970	0.012661
469.5183	0.013379
469.7396	0.011163
469.9610	0.010403
470.1823	0.010255
470.4036	0.012260
470.6250	0.009770
470.8463	0.010234
471.0677	0.008968
471.2891	0.011015
471.5105	0.010930
471.7319	0.010445
471.9533	0.010804
472.1748	0.010128
472.3962	0.010783
472.6177	0.009812
472.8391	0.009875
473.0606	0.009094
473.2821	0.012492
473.5036	0.009369
473.7251	0.008292
473.9467	0.012302
474.1682	0.010382
474.3898	0.010719
474.6113	0.010382
474.8329	0.009538
475.0545	0.012408
475.2761	0.010994
475.4977	0.010846
475.7193	0.009179
475.9410	0.009369
476.1626	0.009516
476.3843	0.008947
476.6060	0.009474
476.8277	0.008271
477.0494	0.009137
477.2711	0.006836
477.4928	0.007723
477.7145	0.008736
477.9363	0.009833
478.1580	0.006667
478.3798	0.010086
478.6016	0.008503
478.8234	0.008630
479.0452	0.007068
479.2670	0.009453
479.4888	0.008883
479.7107	0.007174
479.9325	0.009137
480.1544	0.008947
480.3763	0.008356
480.5982	0.008419
480.8201	0.007490
481.0420	0.008081
481.2639	0.007089
481.4859	0.007300
481.7078	0.007997
481.9298	0.008166
482.1517	0.006942
482.3737	0.006456
482.5957	0.006520
482.8177	0.007111
483.0398	0.006372
483.2618	0.007680
483.4838	0.006836
483.7059	0.006055
483.9280	0.006773
484.1501	0.007469
484.3721	0.006266
484.5943	0.007744
484.8164	0.005929
485.0385	0.007364
485.2606	0.007406
485.4828	0.010656
485.7050	0.016228
485.9271	0.020048
486.1493	0.019246
486.3715	0.017452
486.5937	0.013505
486.8160	0.012112
487.0382	0.011078
487.2605	0.011289
487.4827	0.010255
487.7050	0.009073
487.9273	0.007638
488.1496	0.006604
488.3719	0.005696
488.5942	0.005485
488.8165	0.006266
489.0389	0.005443
489.2612	0.005549
489.4836	0.005211
489.7060	0.005190
489.9284	0.005886
490.1508	0.004789
490.3732	0.005338
490.5956	0.004979
490.8180	0.005950
491.0405	0.004219
491.2630	0.005675
491.4854	0.005612
491.7079	0.004620
491.9304	0.004071
492.1529	0.004325
492.3755	0.003565
492.5980	0.004304
492.8205	0.005802
493.0431	0.004515
493.2657	0.004831
493.4882	0.004557
493.7108	0.003924
493.9334	0.004198
494.1561	0.004240
494.3787	0.004430
494.6013	0.004325
494.8240	0.004494
495.0466	0.005211
495.2693	0.003291
495.4920	0.003037
495.7147	0.004557
495.9374	0.002868
496.1601	0.004156
496.3829	0.004008
496.6056	0.003776
496.8284	0.005232
497.0511	0.005401
497.2739	0.003734
497.4967	0.005084
497.7195	0.003903
497.9423	0.003185
498.1652	0.003628
498.3880	0.003628
498.6109	0.003776
498.8337	0.004346
499.0566	0.004937
499.2795	0.004093
499.5024	0.003143
499.7253	0.003797
499.9482	0.004304
500.1712	0.005000
500.3941	0.004093
500.6171	0.004578
500.8400	0.003037
501.0630	0.003797
501.2860	0.004472
501.5090	0.005169
501.7320	0.004430
501.9551	0.004008
502.1781	0.003586
502.4012	0.004071
502.6242	0.004578
502.8473	0.003797
503.0704	0.004599
503.2935	0.005422
503.5166	0.004135
503.7397	0.003248
503.9628	0.005127
504.1860	0.004810
504.4092	0.003966
504.6323	0.004641
504.8555	0.004367
505.0787	0.004768
505.3019	0.003417
505.5251	0.004430
505.7483	0.002594
505.9716	0.002657
506.1948	0.002890
506.4181	0.003459
506.6414	0.002383
506.8647	0.003016
507.0880	0.002088
507.3113	0.004304
507.5346	0.002700
507.7579	0.003924
507.9813	0.003101
508.2046	0.004282
508.4280	0.002953
508.6514	0.004219
508.8748	0.002995
509.0982	0.002784
509.3216	0.002784
509.5450	0.004325
509.7685	0.002932
509.9919	0.003185
510.2154	0.003291
510.4388	0.003924
510.6623	0.003797
510.8858	0.003586
511.1093	0.003248
511.3329	0.004852
511.5564	0.004240
511.7799	0.002510
512.0035	0.002130
512.2270	0.003164
512.4506	0.002763
512.6742	0.003734
512.8978	0.003523
513.1214	0.002341
513.3451	0.002615
513.5687	0.003818
513.7923	0.005148
514.0160	0.002573
514.2397	0.003143
514.4634	0.003291
514.6871	0.002425
514.9108	0.003037
515.1345	0.003354
515.3582	0.004304
515.5819	0.003248
515.8057	0.002045
516.0295	0.002826
516.2532	0.003586
516.4770	0.002953
516.7008	0.003586
516.9246	0.002911
517.1485	0.002594
517.3723	0.003080
517.5961	0.004114
517.8200	0.003755
518.0439	0.002446
518.2677	0.002742
518.4916	0.004156
518.7155	0.004430
518.9395	0.002974
519.1634	0.003417
519.3873	0.003080
519.6113	0.004662
519.8352	0.004578
520.0592	0.004282
520.2832	0.003354
520.5072	0.004937
520.7312	0.003670
520.9552	0.003122
521.1792	0.004599
521.4033	0.004810
521.6273	0.002679
521.8514	0.004156
522.0755	0.003502
522.2996	0.003818
522.5237	0.003734
522.7478	0.003122
522.9719	0.003523
523.1960	0.004135
523.4202	0.003586
523.6443	0.003987
523.8685	0.003649
524.0927	0.004515
524.3169	0.003860
524.5411	0.003227
524.7653	0.003692
524.9895	0.005718
525.2138	0.004494
525.4380	0.003269
525.6623	0.004050
525.8865	0.003945
526.1108	0.004198
526.3351	0.005021
526.5594	0.003438
526.7837	0.004451
527.0081	0.005021
527.2324	0.005591
527.4568	0.004451
527.6811	0.003797
527.9055	0.003459
528.1299	0.005232
528.3543	0.005232
528.5787	0.004536
528.8031	0.004261
529.0276	0.004472
529.2520	0.006667
529.4765	0.005148
529.7009	0.004873
529.9254	0.005781
530.1499	0.003839
530.3744	0.006351
530.5989	0.004135
530.8234	0.005675
531.0480	0.006604
531.2725	0.005612
531.4971	0.005781
531.7217	0.006182
531.9462	0.005781
532.1708	0.006604
532.3954	0.004367
532.6200	0.005063
532.8447	0.006435
533.0693	0.006942
533.2940	0.005844
533.5186	0.007891
533.7433	0.007005
533.9680	0.005296
534.1927	0.005929
534.4174	0.007111
534.6421	0.008377
534.8668	0.007068
535.0916	0.006393
535.3163	0.009348
535.5411	0.007765
535.7659	0.009601
535.9907	0.007891
536.2155	0.007216
536.4403	0.008651
536.6651	0.008757
536.8899	0.008947
537.1148	0.007997
537.3396	0.007955
537.5645	0.009031
537.7894	0.008947
538.0143	0.008419
538.2392	0.010276
538.4641	0.010171
538.6890	0.009073
538.9139	0.009474
539.1389	0.009917
539.3638	0.010593
539.5888	0.010614
539.8138	0.010783
540.0388	0.010973
540.2638	0.010677
540.4888	0.011648
540.7138	0.009601
540.9389	0.010276
541.1639	0.012534
541.3890	0.012978
541.6140	0.010276
541.8391	0.012703
542.0642	0.012007
542.2893	0.012408
542.5144	0.011184
542.7396	0.012978
542.9647	0.012978
543.1899	0.011669
543.4150	0.012281
543.6402	0.013273
543.8654	0.013970
544.0906	0.014244
544.3158	0.015953
544.5410	0.014877
544.7662	0.016755
544.9915	0.016924
545.2167	0.015763
545.4420	0.016122
545.6673	0.014265
545.8926	0.016798
546.1179	0.012366
546.3432	0.013505
546.5685	0.015531
546.7938	0.016502
547.0192	0.017515
547.2445	0.015215
547.4699	0.015911
547.6953	0.017726
547.9206	0.018127
548.1460	0.019035
548.3715	0.019520
548.5969	0.019668
548.8223	0.020807
549.0478	0.018401
549.2732	0.016586
549.4987	0.018275
549.7242	0.019689
549.9496	0.017262
550.1751	0.018718
550.4007	0.018127
550.6262	0.018929
550.8517	0.019372
551.0773	0.017536
551.3028	0.018106
551.5284	0.018760
551.7540	0.019710
551.9796	0.021187
552.2052	0.022221
552.4308	0.022306
552.6564	0.021251
552.8820	0.022095
553.1077	0.022496
553.3333	0.022348
553.5590	0.023488
553.7847	0.025155
554.0104	0.026231
554.2361	0.025345
554.4618	0.023910
554.6875	0.021715
554.9132	0.023150
555.1390	0.024522
555.3648	0.024860
555.5905	0.025113
555.8163	0.025493
556.0421	0.027666
556.2679	0.025957
556.4937	0.025282
556.7195	0.027413
556.9454	0.025261
557.1712	0.027265
557.3971	0.027561
557.6230	0.025873
557.8488	0.027730
558.0747	0.027688
558.3006	0.027730
558.5266	0.026252
558.7525	0.025894
558.9784	0.026316
559.2044	0.027287
559.4303	0.025303
559.6563	0.024817
559.8823	0.026611
560.1083	0.030115
560.3343	0.031381
560.5603	0.032900
560.7863	0.032246
561.0124	0.036151
561.2384	0.033702
561.4645	0.034441
561.6905	0.034800
561.9166	0.034314
562.1427	0.033175
562.3688	0.035180
562.5949	0.033154
562.8211	0.034863
563.0472	0.036277
563.2733	0.034990
563.4995	0.036889
563.7257	0.037522
563.9519	0.037902
564.1781	0.035792
564.4043	0.040477
564.6305	0.040857
564.8567	0.038556
565.0829	0.039633
565.3092	0.040941
565.5355	0.041617
565.7617	0.039506
565.9880	0.041047
566.2143	0.042672
566.4406	0.041363
566.6669	0.042693
566.8932	0.045627
567.1196	0.045838
567.3459	0.051916
567.5723	0.055609
567.7987	0.054702
568.0250	0.058057
568.2514	0.057783
568.4778	0.061919
568.7043	0.063798
568.9307	0.071226
569.1571	0.072999
569.3836	0.079879
569.6100	0.088068
569.8365	0.094674
570.0630	0.103116
570.2895	0.105289
570.5160	0.107590
570.7425	0.109299
570.9690	0.112824
571.1956	0.118796
571.4221	0.124917
571.6487	0.131058
571.8752	0.134562
572.1018	0.138487
572.3284	0.136545
572.5550	0.129623
572.7816	0.118775
573.0082	0.118649
573.2349	0.124115
573.4615	0.137010
573.6882	0.152205
573.9149	0.157544
574.1415	0.164108
574.3682	0.171642
574.5949	0.170207
574.8216	0.177003
575.0484	0.175441
575.2751	0.174428
575.5018	0.176454
575.7286	0.167295
575.9554	0.158790
576.1821	0.160668
576.4089	0.166873
576.6357	0.174091
576.8626	0.186057
577.0894	0.184917
577.3162	0.192599
577.5431	0.202919
577.7699	0.218917
577.9968	0.247767
578.2237	0.239684
578.4505	0.229532
578.6774	0.215118
578.9044	0.203489
579.1313	0.193528
579.3582	0.196187
579.5851	0.206317
579.8121	0.210792
580.0391	0.211994
580.2660	0.210876
580.4930	0.213366
580.7200	0.203194
580.9470	0.208913
581.1741	0.244306
581.4011	0.298038
581.6281	0.325263
581.8552	0.329885
582.0822	0.324060
582.3093	0.306079
582.5364	0.293648
582.7635	0.265875
582.9906	0.244432
583.2177	0.224615
583.4449	0.212733
583.6720	0.200218
583.8991	0.196060
584.1263	0.197875
584.3535	0.198129
584.5807	0.202476
584.8079	0.214358
585.0351	0.226726
585.2623	0.236518
585.4895	0.241224
585.7167	0.236919
585.9440	0.234133
586.1713	0.219276
586.3985	0.203996
586.6258	0.199817
586.8531	0.202413
587.0804	0.218199
587.3077	0.232529
587.5350	0.231305
587.7624	0.229722
587.9897	0.216701
588.2171	0.209230
588.4445	0.206887
588.6718	0.200872
588.8992	0.193971
589.1266	0.178628
589.3540	0.173985
589.5815	0.164087
589.8089	0.166092
590.0363	0.162757
590.2638	0.158874
590.4913	0.153978
590.7187	0.147034
590.9462	0.140745
591.1737	0.135195
591.4012	0.135026
591.6288	0.132472
591.8563	0.136377
592.0838	0.131417
592.3114	0.134287
592.5389	0.154231
592.7665	0.181435
592.9941	0.203764
593.2217	0.202919
593.4493	0.206233
593.6769	0.203025
593.9046	0.194731
594.1322	0.183334
594.3598	0.176433
594.5875	0.171642
594.8152	0.181308
595.0429	0.197517
595.2705	0.199627
595.4983	0.196018
595.7260	0.186437
595.9537	0.175441
596.1814	0.167020
596.4092	0.155181
596.6369	0.141737
596.8647	0.142075
597.0925	0.147625
597.3203	0.152986
597.5481	0.155835
597.7759	0.152353
598.0037	0.145367
598.2315	0.142623
598.4594	0.145409
598.6872	0.160161
598.9151	0.176750
599.1430	0.185656
599.3709	0.182026
599.5988	0.181161
599.8267	0.181013
600.0546	0.181815
600.2825	0.183461
600.5105	0.185930
600.7384	0.181646
600.9664	0.182659
601.1944	0.189286
601.4223	0.183039
601.6503	0.181055
601.8783	0.176201
602.1064	0.172212
602.3344	0.166556
602.5624	0.167168
602.7905	0.173310
603.0185	0.177024
603.2466	0.182849
603.4747	0.190341
603.7028	0.193296
603.9309	0.182342
604.1590	0.177172
604.3871	0.169996
604.6152	0.166176
604.8434	0.154822
605.0715	0.155455
605.2997	0.161702
605.5279	0.165986
605.7561	0.173563
605.9843	0.177552
606.2125	0.177298
606.4407	0.168202
606.6689	0.160394
606.8972	0.157523
607.1254	0.154442
607.3537	0.159085
607.5819	0.160710
607.8102	0.160900
608.0385	0.156278
608.2668	0.152690
608.4951	0.152838
608.7235	0.146676
608.9518	0.143995
609.1801	0.136883
609.4085	0.135279
609.6369	0.134751
609.8653	0.138614
610.0936	0.148659
610.3220	0.153218
610.5505	0.149715
610.7789	0.143341
611.0073	0.141969
611.2357	0.139711
611.4642	0.138550
611.6927	0.139437
611.9211	0.136967
612.1496	0.133949
612.3781	0.129623
612.6066	0.130763
612.8351	0.133105
613.0637	0.131839
613.2922	0.130953
613.5208	0.129876
613.7493	0.131121
613.9779	0.129201
614.2065	0.130172
614.4351	0.126436
614.6637	0.126141
614.8923	0.126141
615.1209	0.126394
615.3495	0.127808
615.5782	0.133232
615.8068	0.132683
616.0355	0.128420
616.2642	0.119429
616.4929	0.114196
616.7216	0.114533
616.9503	0.110291
617.1790	0.110038
617.4077	0.110608
617.6365	0.108940
617.8652	0.110903
618.0940	0.112169
618.3227	0.110502
618.5515	0.106070
618.7803	0.095307
619.0091	0.094526
619.2379	0.091318
619.4667	0.091424
619.6956	0.090727
619.9244	0.095834
620.1533	0.096489
620.3821	0.095813
620.6110	0.093576
620.8399	0.092226
621.0688	0.083552
621.2977	0.073632
621.5266	0.074202
621.7556	0.076123
621.9845	0.079183
622.2135	0.083720
622.4424	0.085810
622.6714	0.086823
622.9004	0.089060
623.1294	0.086654
623.3584	0.091466
623.5874	0.091803
623.8164	0.090284
624.0454	0.091065
624.2745	0.089060
624.5035	0.090242
624.7326	0.090854
624.9617	0.090178
625.1908	0.084142
625.4199	0.088406
625.6490	0.083404
625.8781	0.080829
626.1072	0.079415
626.3364	0.075405
626.5655	0.073421
626.7947	0.072050
627.0238	0.070509
627.2530	0.069433
627.4822	0.069728
627.7114	0.070994
627.9406	0.067322
628.1698	0.065148
628.3991	0.061117
628.6283	0.060273
628.8576	0.059366
629.0868	0.059851
629.3161	0.063523
629.5454	0.063418
629.7747	0.062236
630.0040	0.062848
630.2333	0.062426
630.4626	0.056854
630.6920	0.058648
630.9213	0.056664
631.1507	0.054891
631.3801	0.054744
631.6094	0.053414
631.8388	0.052380
632.0682	0.052464
632.2976	0.050037
632.5271	0.052760
632.7565	0.047610
632.9859	0.046513
633.2154	0.043453
633.4448	0.045120
633.6743	0.045563
633.9038	0.045500
634.1333	0.045732
634.3628	0.043600
634.5923	0.042587
634.8218	0.042334
635.0514	0.043136
635.2809	0.040456
635.5105	0.042714
635.7400	0.041764
635.9696	0.044951
636.1992	0.043727
636.4288	0.047716
636.6584	0.046724
636.8880	0.047041
637.1177	0.043600
637.3473	0.042925
637.5770	0.041131
637.8066	0.040582
638.0363	0.042165
638.2660	0.041448
638.4957	0.043052
638.7254	0.043010
638.9551	0.043854
639.1848	0.041216
639.4145	0.041384
639.6443	0.038246
639.8740	0.036219
640.1038	0.038032
640.3336	0.038810
640.5633	0.036015
640.7931	0.037551
641.0229	0.036265
641.2528	0.033861
641.4826	0.033653
641.7124	0.035432
641.9423	0.032280
642.1721	0.032426
642.4020	0.029539
642.6319	0.030268
642.8617	0.029450
643.0916	0.030434
643.3216	0.029055
643.5515	0.032082
643.7814	0.030482
644.0113	0.029317
644.2413	0.027366
644.4712	0.028854
644.7012	0.029097
644.9312	0.027934
645.1612	0.027401
645.3912	0.028569
645.6212	0.027003
645.8512	0.028979
646.0812	0.026848
646.3113	0.027900
646.5413	0.026620
646.7714	0.025327
647.0015	0.025630
647.2316	0.025121
647.4616	0.024940
647.6918	0.026121
647.9219	0.029591
648.1520	0.030096
648.3821	0.032012
648.6123	0.031293
648.8424	0.032682
649.0726	0.033938
649.3028	0.034606
649.5329	0.033012
649.7631	0.030635
649.9933	0.032923
650.2236	0.031091
650.4538	0.029782
650.6840	0.028936
650.9143	0.028826
651.1445	0.028063
651.3748	0.030701
651.6051	0.030621
651.8354	0.031273
652.0657	0.030940
652.2960	0.033012
652.5263	0.032482
652.7566	0.032052
652.9870	0.033257
653.2173	0.033077
653.4477	0.031270
653.6780	0.034919
653.9084	0.030603
654.1388	0.031876
654.3692	0.035696
654.5996	0.037146
654.8300	0.041938
655.0605	0.064539
655.2909	0.190695
655.5213	0.530780
655.7518	0.958964
655.9823	1.013447
656.2128	1.004490
656.4433	1.006725
656.6738	1.005680
656.9043	1.013171
657.1348	0.883276
657.3653	0.710608
657.5959	0.614769
657.8264	0.541264
658.0570	0.485889
658.2875	0.455892
658.5181	0.411620
658.7487	0.380988
658.9793	0.367802
659.2099	0.332081
659.4406	0.257744
659.6712	0.171156
659.9018	0.101031
660.1325	0.061514
660.3632	0.040738
660.5938	0.032817
660.8245	0.026754
661.0552	0.025213
661.2859	0.024639
661.5166	0.024550
661.7474	0.022823
661.9781	0.023705
662.2088	0.023421
662.4396	0.021466
662.6704	0.020971
662.9011	0.023390
663.1319	0.020750
663.3627	0.021886
663.5935	0.021034
663.8243	0.022102
664.0552	0.022924
664.2860	0.023450
664.5168	0.022289
664.7477	0.022161
664.9786	0.023738
665.2094	0.023944
665.4403	0.024914
665.6712	0.025465
665.9021	0.023619
666.1330	0.023260
666.3640	0.023357
666.5949	0.021733
666.8259	0.022543
667.0568	0.020884
667.2878	0.020159
667.5188	0.023212
667.7497	0.022093
667.9807	0.021898
668.2117	0.019551
668.4428	0.021947
668.6738	0.022707
668.9048	0.023066
669.1359	0.020892
669.3669	0.024522
669.5980	0.021736
669.8291	0.022749
670.0602	0.021736
670.2913	0.021736
670.5224	0.022770
670.7535	0.022876
670.9846	0.021230
671.2157	0.025661
671.4469	0.023910
671.6781	0.028447
671.9092	0.030473
672.1404	0.031634
672.3716	0.032710
672.6028	0.034525
672.8340	0.034378
673.0652	0.031571
673.2964	0.033154
673.5277	0.030959
673.7589	0.030030
673.9902	0.028933
674.2214	0.029840
674.4527	0.028848
674.6840	0.026653
674.9153	0.025830
675.1466	0.025957
675.3779	0.027835
675.6093	0.025261
675.8406	0.025450
676.0719	0.027308
676.3033	0.025640
676.5347	0.024712
676.7661	0.025113
676.9974	0.022390
677.2288	0.025725
677.4602	0.023952
677.6917	0.027877
677.9231	0.027688
678.1545	0.030157
678.3860	0.029904
678.6174	0.029629
678.8489	0.031064
679.0804	0.031930
679.3119	0.031507
679.5434	0.034821
679.7749	0.035116
680.0064	0.035349
680.2379	0.033723
680.4694	0.035686
680.7010	0.033998
680.9325	0.034357
681.1641	0.034272
681.3957	0.037754
681.6273	0.036298
681.8589	0.035116
682.0905	0.032668
682.3221	0.031212
682.5537	0.032120
682.7854	0.029165
683.0170	0.028384
683.2487	0.032837
683.4803	0.032246
683.7120	0.032077
683.9437	0.031719
684.1754	0.033470
684.4071	0.036699
684.6388	0.036805
684.8705	0.038683
685.1023	0.040709
685.3340	0.043790
685.5658	0.046070
685.7975	0.044740
686.0293	0.046154
686.2611	0.043790
686.4929	0.044128
686.7247	0.041342
686.9565	0.044550
687.1883	0.044571
687.4202	0.046006
687.6520	0.044930
687.8838	0.043368
688.1157	0.040456
688.3476	0.041110
688.5795	0.040055
688.8114	0.036826
689.0433	0.034990
689.2752	0.035327
689.5071	0.036952
689.7390	0.039485
689.9710	0.034926
690.2029	0.035855
690.4349	0.032563
690.6669	0.034019
690.8988	0.037290
691.1308	0.036509
691.3628	0.039380
691.5948	0.037522
691.8269	0.039232
692.0589	0.037649
692.2909	0.037944
692.5230	0.037164
692.7550	0.038810
692.9871	0.039401
693.2192	0.037776
693.4513	0.039696
693.6834	0.037923
693.9155	0.036657
694.1476	0.036530
694.3797	0.035137
694.6119	0.035792
694.8440	0.035433
695.0762	0.034019
695.3083	0.035792
695.5405	0.031676
695.7727	0.028891
696.0049	0.031381
696.2371	0.029946
696.4693	0.031655
696.7016	0.036868
696.9338	0.038113
697.1660	0.037818
697.3983	0.037712
697.6306	0.038451
697.8628	0.038219
698.0951	0.039844
698.3274	0.038134
698.5597	0.037438
698.7920	0.037480
699.0243	0.036383
699.2567	0.036974
699.4890	0.032077
699.7214	0.032246
699.9537	0.030579
700.1861	0.033006
700.4185	0.031191
700.6509	0.031803
700.8833	0.027899
701.1157	0.028321
701.3481	0.027455
701.5806	0.028173
701.8130	0.028975
702.0454	0.030642
702.2779	0.029228
702.5104	0.030516
702.7429	0.030642
702.9753	0.030832
703.2078	0.028511
703.4403	0.027118
703.6729	0.027540
703.9054	0.027076
704.1379	0.028616
704.3705	0.027856
704.6030	0.026020
704.8356	0.027097
705.0682	0.025450
705.3008	0.025134
705.5334	0.024543
705.7660	0.024860
705.9986	0.024269
706.2312	0.027076
706.4638	0.029165
706.6965	0.034019
706.9291	0.034103
707.1618	0.037142
707.3945	0.038366
707.6272	0.040203
707.8599	0.038029
708.0926	0.037227
708.3253	0.037121
708.5580	0.037248
708.7907	0.035032
709.0235	0.033723
709.2562	0.034399
709.4890	0.035517
709.7217	0.033090
709.9545	0.033196
710.1873	0.035454
710.4201	0.035053
710.6529	0.036594
710.8857	0.035032
711.1186	0.033217
711.3514	0.033154
711.5842	0.032626
711.8171	0.031043
712.0500	0.027793
712.2828	0.029038
712.5157	0.027624
712.7486	0.030663
712.9815	0.028173
713.2144	0.030410
713.4474	0.031001
713.6803	0.034040
713.9132	0.035327
714.1462	0.034399
714.3791	0.035201
714.6121	0.033006
714.8451	0.034863
715.0781	0.034441
715.3111	0.036446
715.5441	0.036256
715.7771	0.034314
716.0102	0.031043
716.2432	0.029038
716.4762	0.029397
716.7093	0.029481
716.9424	0.028848
717.1754	0.028152
717.4085	0.027498
717.6416	0.029165
717.8747	0.028004
718.1078	0.030093
718.3410	0.028194
718.5741	0.027202
718.8072	0.027709
719.0404	0.028236
719.2736	0.029460
719.5067	0.029397
719.7399	0.029566
719.9731	0.028025
720.2063	0.028933
720.4395	0.028701
720.6727	0.029692
720.9060	0.030938
721.1392	0.030093
721.3725	0.030684
721.6057	0.029840
721.8390	0.029418
722.0723	0.028004
722.3055	0.029355
722.5388	0.029798
722.7721	0.027498
723.0055	0.027920
723.2388	0.027709
723.4721	0.027941
723.7055	0.029313
723.9388	0.028616
724.1722	0.026970
724.4056	0.026738
724.6389	0.026231
724.8723	0.026928
725.1057	0.029503
725.3391	0.032457
725.5726	0.033238
725.8060	0.032499
726.0394	0.036235
726.2729	0.034019
726.5063	0.032542
726.7398	0.032689
726.9733	0.032098
727.2068	0.031613
727.4403	0.033048
727.6738	0.032964
727.9073	0.033660
728.1408	0.034420
728.3743	0.034314
728.6079	0.032415
728.8414	0.034525
729.0750	0.034082
729.3086	0.035517
729.5421	0.037417
729.7757	0.036530
730.0093	0.036467
730.2429	0.037881
730.4766	0.035686
730.7102	0.038599
730.9438	0.044107
731.1775	0.042208
731.4111	0.041511
731.6448	0.041363
731.8785	0.042376
732.1122	0.043263
732.3458	0.040139
732.5795	0.042081
732.8133	0.044381
733.0470	0.043600
733.2807	0.043389
733.5145	0.044107
733.7482	0.046027
733.9820	0.045162
734.2157	0.051261
734.4495	0.050966
734.6833	0.050734
734.9171	0.048159
735.1509	0.049067
735.3847	0.045901
735.6185	0.046555
735.8524	0.048222
736.0862	0.049362
736.3201	0.047315
736.5539	0.048075
736.7878	0.049995
737.0217	0.048412
737.2556	0.047315
737.4895	0.049763
737.7234	0.044740
737.9573	0.042904
738.1912	0.042039
738.4252	0.040857
738.6591	0.042334
738.8931	0.042798
739.1271	0.043854
739.3610	0.046703
739.5950	0.047737
739.8290	0.046196
740.0630	0.045584
740.2970	0.042039
740.5310	0.040646
740.7651	0.040751
740.9991	0.038725
741.2332	0.038535
741.4672	0.037100
741.7013	0.035412
741.9354	0.032309
742.1695	0.035095
742.4036	0.032879
742.6377	0.036256
742.8718	0.033111
743.1059	0.034082
743.3400	0.031381
743.5742	0.030832
743.8083	0.031486
744.0425	0.032732
744.2767	0.027329
744.5108	0.030199
744.7450	0.031951
744.9792	0.032921
745.2134	0.031064
745.4477	0.030473
745.6819	0.029376
745.9161	0.029819
746.1504	0.028321
746.3846	0.028363
746.6189	0.026653
746.8532	0.028553
747.0874	0.027476
747.3217	0.032732
747.5560	0.031170
747.7903	0.030537
748.0247	0.028827
748.2590	0.027835
748.4933	0.028869
748.7277	0.029355
748.9620	0.028954
749.1964	0.030262
749.4308	0.032120
749.6652	0.032879
749.8995	0.037417
750.1339	0.038936
750.3684	0.039844
750.6028	0.041997
750.8372	0.042292
751.0717	0.039886
751.3061	0.039316
751.5406	0.039380
751.7750	0.039823
752.0095	0.040857
752.2440	0.039316
752.4785	0.037269
752.7130	0.035665
752.9475	0.035665
753.1820	0.035918
753.4166	0.038535
753.6511	0.038535
753.8856	0.043896
754.1202	0.042862
754.3548	0.040182
754.5894	0.041089
754.8239	0.039105
755.0585	0.038979
755.2931	0.041638
755.5278	0.039781
755.7624	0.042461
755.9970	0.044993
756.2317	0.043917
756.4663	0.049404
756.7010	0.051346
756.9356	0.052380
757.1703	0.053393
757.4050	0.055693
757.6397	0.058880
757.8744	0.060125
758.1091	0.056200
758.3438	0.056812
758.5786	0.055651
758.8133	0.055335
759.0481	0.054132
759.2828	0.057403
759.5176	0.058901
759.7524	0.058458
759.9872	0.061835
760.2220	0.062510
760.4568	0.062975
760.6916	0.064093
760.9264	0.064874
761.1613	0.062004
761.3961	0.061434
761.6310	0.055335
761.8658	0.053245
762.1007	0.051177
762.3356	0.046998
762.5705	0.046851
762.8054	0.048856
763.0403	0.049425
763.2752	0.048370
763.5101	0.049446
763.7450	0.051494
763.9800	0.048666
764.2149	0.055968
764.4499	0.056580
764.6849	0.057276
764.9198	0.061012
765.1548	0.060336
765.3898	0.056453
765.6248	0.056052
765.8599	0.051177
766.0949	0.049615
766.3299	0.048370
766.5650	0.042967
766.8000	0.041279
767.0351	0.039928
767.2701	0.039886
767.5052	0.040308
767.7403	0.038599
767.9754	0.040709
768.2105	0.043347
768.4456	0.047821
768.6808	0.051747
768.9159	0.049088
769.1510	0.049974
769.3862	0.047842
769.6214	0.046618
769.8565	0.048011
770.0917	0.045458
770.3269	0.045204
770.5621	0.045247
770.7973	0.047230
771.0325	0.048286
771.2677	0.049531
771.5030	0.048497
771.7382	0.045816
771.9735	0.041975
772.2087	0.041659
772.4440	0.040941
772.6793	0.040160
772.9146	0.042208
773.1499	0.040730
773.3852	0.038008
773.6205	0.037797
773.8558	0.036003
774.0911	0.037628
774.3265	0.034483
774.5618	0.033217
774.7972	0.032246
775.0326	0.030389
775.2679	0.030579
775.5033	0.028637
775.7387	0.027202
775.9741	0.026590
776.2095	0.027054
776.4450	0.025155
776.6804	0.026316
776.9158	0.024691
777.1513	0.026611
777.3868	0.026126
777.6222	0.024501
777.8577	0.024311
778.0932	0.025218
778.3287	0.026020
778.5642	0.027751
778.7997	0.029334
779.0352	0.029503
779.2707	0.030895
779.5063	0.031782
779.7418	0.031402
779.9774	0.030178
780.2130	0.031592
780.4485	0.028848
780.6841	0.028152
780.9197	0.028933
781.1553	0.033470
781.3909	0.035813
781.6265	0.035623
781.8622	0.035602
782.0978	0.033850
782.3335	0.036383
782.5691	0.035581
782.8048	0.034715
783.0405	0.035623
783.2761	0.035053
783.5118	0.034420
783.7475	0.036974
783.9832	0.035201
784.2190	0.034124
784.4547	0.032689
784.6904	0.030093
784.9262	0.030516
785.1619	0.030030
785.3977	0.028131
785.6335	0.028490
785.8692	0.029481
786.1050	0.028426
786.3408	0.028152
786.5766	0.028110
786.8124	0.027139
787.0483	0.027350
787.2841	0.028236
787.5199	0.031782
787.7558	0.029946
787.9917	0.031360
788.2275	0.031106
788.4634	0.029017
788.6993	0.030368
788.9352	0.032331
789.1711	0.033217
789.4070	0.029882
789.6429	0.028490
789.8789	0.025725
790.1148	0.028046
790.3507	0.025873
790.5867	0.023846
790.8227	0.026062
791.0586	0.024226
791.2946	0.023825
791.5306	0.024353
791.7666	0.023403
792.0026	0.024100
792.2387	0.022475
792.4747	0.022918
792.7107	0.023087
792.9468	0.020976
793.1828	0.023488
793.4189	0.021061
793.6550	0.022855
793.8910	0.026949
794.1271	0.030811
794.3632	0.032373
794.5993	0.032457
794.8355	0.032373
795.0716	0.031022
795.3077	0.033555
795.5439	0.032542
795.7800	0.030262
796.0162	0.027582
796.2523	0.025936
796.4885	0.023804
796.7247	0.023572
796.9609	0.021652
797.1971	0.020428
797.4333	0.023593
797.6695	0.025472
797.9058	0.023002
798.1420	0.024543
798.3783	0.023382
798.6145	0.020997
798.8508	0.023657
799.0871	0.023509
799.3233	0.023994
799.5596	0.023530
799.7959	0.023762
800.0322	0.020850
800.2686	0.019520
800.5049	0.019541
800.7412	0.019731
800.9776	0.017789
801.2139	0.018380
801.4503	0.017937
801.6867	0.018739
801.9230	0.018718
802.1594	0.018380
802.3958	0.017283
802.6322	0.018528
802.8686	0.016966
803.1051	0.018169
803.3415	0.018001
803.5779	0.018824
803.8144	0.018971
804.0508	0.015679
804.2873	0.015890
804.5238	0.016861
804.7603	0.017473
804.9968	0.017979
805.2333	0.017009
805.4698	0.017663
805.7063	0.016861
805.9428	0.019541
806.1794	0.021694
806.4159	0.022918
806.6525	0.024627
806.8890	0.022855
807.1256	0.024184
807.3622	0.024269
807.5988	0.024374
807.8354	0.022496
808.0720	0.023530
808.3086	0.022243
808.5452	0.022517
808.7818	0.024036
809.0185	0.022200
809.2551	0.023762
809.4918	0.019478
809.7284	0.020639
809.9651	0.018866
810.2018	0.021483
810.4385	0.019330
810.6752	0.020132
810.9119	0.017853
811.1486	0.019731
811.3853	0.020617
811.6221	0.017346
811.8588	0.016439
812.0956	0.017515
812.3323	0.017578
812.5691	0.015320
812.8059	0.014898
813.0427	0.013653
813.2795	0.012872
813.5163	0.017557
813.7531	0.017642
813.9899	0.018634
814.2267	0.019203
814.4636	0.018106
814.7004	0.019921
814.9373	0.018760
815.1742	0.015341
815.4110	0.014940
815.6479	0.016397
815.8848	0.014159
816.1217	0.014265
816.3586	0.013083
816.5955	0.014138
816.8324	0.014497
817.0694	0.014328
817.3063	0.015405
817.5433	0.014560
817.7802	0.016544
818.0172	0.015320
818.2542	0.014919
818.4912	0.014096
818.7282	0.012408
818.9652	0.012809
819.2022	0.013125
819.4392	0.013547
819.6762	0.012809
819.9133	0.012872
820.1503	0.012239
820.3874	0.014518
820.6244	0.016840
820.8615	0.016375
821.0986	0.016164
821.3357	0.015109
821.5727	0.014265
821.8099	0.012450
822.0470	0.014138
822.2841	0.013758
822.5212	0.014054
822.7584	0.011120
822.9955	0.011901
823.2327	0.012703
823.4698	0.010424
823.7070	0.011564
823.9442	0.011627
824.1814	0.009833
824.4186	0.010107
824.6558	0.012661
824.8930	0.009981
825.1302	0.011479
825.3675	0.013231
825.6047	0.012133
825.8419	0.013062
826.0792	0.013210
826.3165	0.011627
826.5537	0.012914
826.7910	0.012197
827.0283	0.014033
827.2656	0.012999
827.5029	0.014476
827.7402	0.014687
827.9776	0.013547
828.2149	0.010930
828.4522	0.014349
828.6896	0.013590
828.9270	0.014075
829.1643	0.014033
829.4017	0.013062
829.6391	0.012598
829.8765	0.013611
830.1139	0.011627
830.3513	0.010909
830.5887	0.010846
830.8261	0.012007
831.0636	0.008862
831.3010	0.008947
831.5385	0.008313
831.7759	0.009495
832.0134	0.008651
832.2509	0.008567
832.4884	0.007554
832.7259	0.009221
832.9634	0.009052
833.2009	0.009896
833.4384	0.010572
833.6759	0.010677
833.9135	0.009939
834.1510	0.009580
834.3886	0.010635
834.6261	0.011395
834.8637	0.009601
835.1013	0.010930
835.3389	0.011901
835.5765	0.011268
835.8141	0.009538
836.0517	0.009179
836.2893	0.009242
836.5269	0.007828
836.7646	0.007533
837.0022	0.007533
837.2399	0.006773
837.4775	0.008736
837.7152	0.006710
837.9529	0.006393
838.1906	0.007406
838.4283	0.008250
838.6660	0.005718
838.9037	0.008419
839.1414	0.005591
839.3791	0.007955
839.6169	0.008672
839.8546	0.007490
840.0924	0.007596
840.3302	0.006731
840.5679	0.007934
840.8057	0.008841
841.0435	0.008313
841.2813	0.007469
841.5191	0.006372
841.7569	0.005886
841.9947	0.005696
842.2326	0.006836
842.4704	0.005886
842.7082	0.005929
842.9461	0.005992
843.1840	0.006625
843.4218	0.004219
843.6597	0.005359
843.8976	0.006646
844.1355	0.004641
844.3734	0.005823
844.6113	0.006245
844.8492	0.006330
845.0872	0.005844
845.3251	0.005359
845.5631	0.006456
845.8010	0.005127
846.0390	0.005190
846.2770	0.004135
846.5149	0.005485
846.7529	0.004451
846.9909	0.004304
847.2289	0.003966
847.4669	0.004515
847.7050	0.005633
847.9430	0.006182
848.1810	0.005422
848.4191	0.006393
848.6571	0.005063
848.8952	0.004388
849.1333	0.004029
849.3713	0.004578
849.6094	0.006055
849.8475	0.004451
850.0856	0.004979
850.3237	0.006097
850.5619	0.005127
850.8000	0.005021
851.0381	0.005464
851.2763	0.004662
851.5144	0.005148
851.7526	0.005739
851.9908	0.006667
852.2289	0.006013
852.4671	0.008567
852.7053	0.008926
852.9435	0.011986
853.1817	0.011986
853.4200	0.014181
853.6582	0.014434
853.8964	0.015046
854.1347	0.013822
854.3729	0.014223
854.6112	0.015616
854.8495	0.014560
855.0877	0.013695
855.3260	0.012872
855.5643	0.012133
855.8026	0.012788
856.0409	0.011732
856.2792	0.010656
856.5176	0.012513
856.7559	0.012471
856.9942	0.010762
857.2326	0.011268
857.4710	0.009158
857.7093	0.011775
857.9477	0.011669
858.1861	0.010361
858.4245	0.010656
858.6629	0.009369
858.9013	0.009073
859.1397	0.010424
859.3781	0.009432
859.6166	0.008377
859.8550	0.009305
860.0935	0.007723
860.3319	0.008145
860.5704	0.009601
860.8089	0.007575
861.0473	0.007765
861.2858	0.005992
861.5243	0.007089
861.7628	0.006773
862.0013	0.007132
862.2399	0.006815
862.4784	0.005612
862.7169	0.006203
862.9555	0.007026
863.1940	0.006520
863.4326	0.007195
863.6712	0.008926
863.9098	0.007322
864.1483	0.006646
864.3869	0.006309
864.6255	0.007997
864.8642	0.005929
865.1028	0.005886
865.3414	0.005739
865.5800	0.005148
865.8187	0.004747
866.0573	0.006287
866.2960	0.003776
866.5347	0.005929
866.7733	0.004515
867.0120	0.004472
867.2507	0.005654
867.4894	0.005739
867.7281	0.006119
867.9669	0.004958
868.2056	0.006899
868.4443	0.006330
868.6831	0.005422
868.9218	0.006625
869.1606	0.005507
869.3993	0.005929
869.6381	0.003586
869.8769	0.005317
870.1157	0.005971
870.3545	0.004472
870.5933	0.004494
870.8321	0.005781
871.0709	0.006287
871.3097	0.006097
871.5486	0.005253
871.7874	0.004726
872.0263	0.005190
872.2651	0.004768
872.5040	0.005000
872.7429	0.005886
872.9818	0.004472
873.2207	0.005781
873.4596	0.004789
873.6985	0.004831
873.9374	0.005021
874.1763	0.005739
874.4153	0.004114
874.6542	0.005612
874.8932	0.004494
875.1321	0.005612
875.3711	0.007089
875.6101	0.005802
875.8491	0.005401
876.0880	0.006097
876.3270	0.005950
876.5661	0.006688
876.8051	0.007068
877.0441	0.005950
877.2831	0.006034
877.5222	0.007195
877.7612	0.007511
878.0003	0.006541
878.2393	0.007026
878.4784	0.007912
878.7175	0.006562
878.9566	0.007617
879.1957	0.008398
879.4348	0.007195
879.6739	0.008018
879.9130	0.006498
880.1521	0.006794
880.3913	0.008630
880.6304	0.009348
880.8696	0.009706
881.1087	0.009939
881.3479	0.006224
881.5871	0.007089
881.8262	0.007976
882.0654	0.007364
882.3046	0.007174
882.5438	0.007047
882.7831	0.006498
883.0223	0.008567
883.2615	0.007469
883.5007	0.007068
883.7400	0.006287
883.9792	0.006055
884.2185	0.007279
884.4578	0.006161
884.6971	0.006224
884.9363	0.005718
885.1756	0.008124
885.4149	0.005886
885.6542	0.008588
885.8936	0.007174
886.1329	0.007659
886.3722	0.007427
886.6116	0.006203
886.8509	0.006477
887.0903	0.007343
887.3296	0.005591
887.5690	0.004873
887.8084	0.006921
888.0478	0.003438
888.2872	0.006878
888.5266	0.005929
888.7660	0.004409
889.0054	0.005464
889.2448	0.006161
889.4843	0.004472
889.7237	0.004261
889.9632	0.004979
890.2026	0.005000
890.4421	0.005021
890.6816	0.004472
890.9211	0.004726
891.1606	0.005802
891.4001	0.004789
891.6396	0.004979
891.8791	0.005908
892.1186	0.005929
892.3581	0.005338
892.5977	0.005359
892.8372	0.005802
893.0768	0.003987
893.3163	0.004494
893.5559	0.005338
893.7955	0.005443
894.0351	0.004430
894.2747	0.004810
894.5143	0.006498
894.7539	0.002467
894.9935	0.005528
895.2331	0.003903
895.4727	0.005042
895.7124	0.003269
895.9520	0.004831
896.1917	0.005211
896.4314	0.006245
896.6710	0.003797
896.9107	0.005865
897.1504	0.005612
897.3901	0.005021
897.6298	0.003734
897.8695	0.005718
898.1092	0.004346
898.3489	0.005359
898.5887	0.004261
898.8284	0.004662
899.0682	0.004093
899.3079	0.006076
899.5477	0.003734
899.7875	0.005929
900.0272	0.004135
900.2670	0.003924
900.5068	0.005528
900.7466	0.006076
900.9864	0.004304
901.2263	0.004135
901.4661	0.005169
901.7059	0.004895
901.9458	0.004071
902.1856	0.005274
902.4255	0.004135
902.6654	0.005675
902.9052	0.004937
903.1451	0.005528
903.3850	0.003692
903.6249	0.006119
903.8648	0.005654
904.1047	0.004789
904.3446	0.005296
904.5846	0.003776
904.8245	0.003860
905.0644	0.004325
905.3044	0.004662
905.5444	0.006245
905.7843	0.005169
906.0243	0.004367
906.2643	0.004029
906.5043	0.004050
906.7443	0.005021
906.9843	0.007089
907.2243	0.002742
907.4643	0.005232
907.7043	0.004515
907.9444	0.004979
908.1844	0.003776
908.4245	0.004810
908.6645	0.001877
908.9046	0.003375
909.1447	0.004747
909.3847	0.003649
909.6248	0.004536
909.8649	0.002974
910.1050	0.004282
910.3452	0.004873
910.5853	0.004852
910.8254	0.003164
911.0655	0.002256
911.3057	0.004873
911.5458	0.005211
911.7860	0.004683
912.0262	0.004451
912.2663	0.003080
912.5065	0.003248
912.7467	0.005296
912.9869	0.003755
913.2271	0.003269
913.4673	0.002130
913.7075	0.003692
913.9478	0.002974
914.1880	0.003143
914.4283	0.003101
914.6685	0.005190
914.9088	0.003016
915.1490	0.003987
915.3893	0.002045
915.6296	0.004451
915.8699	0.002594
916.1102	0.003607
916.3505	0.003776
916.5908	0.003312
916.8311	0.004683
917.0714	0.003692
917.3118	0.004683
917.5521	0.004409
917.7925	0.004831
918.0328	0.005148
918.2732	0.003459
918.5136	0.004958
918.7539	0.003924
918.9943	0.004705
919.2347	0.003396
919.4751	0.004409
919.7155	0.004515
919.9560	0.003248
920.1964	0.004768
920.4368	0.004114
920.6773	0.004472
920.9177	0.002320
921.1582	0.002573
921.3986	0.004261
921.6391	0.003206
921.8796	0.003924
922.1201	0.003734
922.3606	0.003755
922.6011	0.003185
922.8416	0.003755
923.0821	0.004937
923.3226	0.004219
923.5631	0.002510
923.8037	0.002172
924.0442	0.003945
924.2848	0.003185
924.5254	0.002805
924.7659	0.002510
925.0065	0.002256
925.2471	0.004409
925.4877	0.003333
925.7283	0.002911
925.9689	0.003312
926.2095	0.002552
926.4501	0.003164
926.6908	0.003291
926.9314	0.003797
927.1720	0.003143
927.4127	0.003502
927.6533	0.003966
927.8940	0.000927
928.1347	0.002320
928.3754	0.002066
928.6161	0.002278
928.8568	0.002510
929.0975	0.003101
929.3382	0.002657
929.5789	0.001011
929.8196	0.001982
930.0604	0.003523
930.3011	0.001539
930.5419	0.001855
930.7826	0.001391
931.0234	0.002235
931.2642	0.001560
931.5049	0.002826
931.7457	0.001349
931.9865	0.001539
932.2273	0.001581
932.4681	0.004093
932.7089	0.001834
932.9498	0.001771
933.1906	0.001666
933.4314	0.003502
933.6723	0.003248
933.9131	0.001982
934.1540	0.000104
934.3949	0.002911
934.6358	0.001813
934.8766	0.003101
935.1175	0.002341
935.3584	0.002193
935.5993	0.002826
935.8403	0.002256
936.0812	0.002573
936.3221	0.000927
936.5630	0.002742
936.8040	0.001581
937.0449	0.001961
937.2859	0.000378
937.5269	0.002024
937.7678	0.000083
938.0088	0.001898
938.2498	0.002911
938.4908	0.002235
938.7318	0.001476
938.9728	0.001877
939.2138	0.000188
939.4549	0.001771
939.6959	0.002932
939.9369	0.003269
940.1780	0.001940
940.4190	0.002320
940.6601	0.000526
940.9012	0.002953
941.1422	0.000927
941.3833	0.002045
941.6244	0.000695
941.8655	0.001940
942.1066	-0.000951
942.3477	0.002657
942.5889	-0.000023
942.8300	0.000357
943.0711	0.001729
943.3123	0.000737
943.5534	0.001180
943.7946	0.001644
944.0357	0.001813
944.2769	0.001792
944.5181	0.000125
944.7593	0.002320
945.0005	0.000906
945.2417	0.002299
945.4829	-0.000255
945.7241	0.003016
945.9653	0.001708
946.2066	0.001454
946.4478	0.001159
946.6891	0.000146
946.9303	0.001032
947.1716	0.002003
947.4128	0.001349
947.6541	0.001075
947.8954	0.001454
948.1367	0.000631
948.3780	0.002193
948.6193	0.001687
948.8606	0.000652
949.1019	0.002109
949.3433	0.001096
949.5846	0.001581
949.8259	0.001560
950.0673	0.000315
950.3086	0.000441
950.5500	0.002151
950.7914	0.001877
951.0327	0.001898
951.2741	0.001180
951.5155	-0.000128
951.7569	0.001159
951.9983	0.001729
952.2398	0.001412
952.4812	0.001898
952.7226	0.002425
952.9640	0.000821
953.2055	0.001644
953.4469	0.000906
953.6884	-0.000529
953.9299	0.002615
954.1713	0.001855
954.4128	0.002763
954.6543	0.000821
954.8958	0.002700
955.1373	0.000399
955.3788	0.001666
955.6203	0.000927
955.8618	0.000758
956.1034	0.001497
956.3449	0.000420
956.5865	0.002467
956.8280	0.001581
957.0696	0.001729
957.3111	0.001813
957.5527	0.000547
957.7943	0.000125
958.0359	0.002489
958.2775	0.001096
958.5191	0.001518
958.7607	0.002594
959.0023	-0.000487
959.2439	0.001602
959.4856	0.001729
959.7272	0.001792
959.9688	0.000631
960.2105	0.000800
960.4522	0.000399
960.6938	0.001919
960.9355	-0.000424
961.1772	0.000990
961.4189	0.001328
961.6606	0.002024
961.9023	0.000737
962.1440	0.000378
962.3857	-0.000065
962.6274	0.001159
962.8692	-0.000023
963.1109	0.000547
963.3527	0.002045
963.5944	0.001771
963.8362	0.001159
964.0779	0.001159
964.3197	0.001518
964.5615	0.001075
964.8033	0.000568
965.0451	0.000758
965.2869	0.000948
965.5287	0.000737
965.7705	0.002679
966.0123	0.000420
966.2542	0.001813
966.4960	0.001159
966.7379	0.000547
966.9797	0.002594
967.2216	0.001222
967.4634	0.000758
967.7053	0.000399
967.9472	0.002826
968.1891	0.000568
968.4310	0.002446
968.6729	-0.000804
968.9148	-0.000635
969.1567	0.001075
969.3987	-0.000107
969.6406	0.000969
969.8825	0.001053
970.1245	0.001539
970.3664	0.001644
970.6084	0.001032
970.8504	0.000209
971.0923	0.001982
971.3343	0.000315
971.5763	0.001075
971.8183	0.002320
972.0603	0.000083
972.3023	-0.000128
972.5443	-0.000403
972.7864	0.002278
973.0284	0.001476
973.2704	0.000083
973.5125	0.001328
973.7545	0.002214
973.9966	0.000463
974.2387	-0.000171
974.4807	0.000209
974.7228	0.001518
974.9649	-0.000529
975.2070	0.002003
975.4491	0.000505
975.6912	0.001961
975.9333	0.002425
976.1755	0.000251
976.4176	-0.001585
976.6597	0.000800
976.9019	0.000209
977.1440	0.002193
977.3862	0.001961
977.6283	0.002953
977.8705	0.001497
978.1127	0.001075
978.3549	0.000568
978.5971	0.000273
978.8393	0.000864
979.0815	0.000864
979.3237	0.000737
979.5659	0.001602
979.8082	0.001560
980.0504	0.001539
980.2926	0.002003
980.5349	0.000927
980.7771	0.001265
981.0194	0.001581
981.2617	-0.000403
981.5040	0.000948
981.7462	0.001159
981.9885	0.000230
982.2308	0.000420
982.4731	0.000040
982.7155	0.000779
982.9578	0.000125
983.2001	-0.000382
983.4424	0.000695
983.6848	0.000209
983.9271	0.001877
984.1695	0.001454
984.4118	0.002467
984.6542	-0.000002
984.8966	0.000864
985.1390	0.000589
985.3814	0.001053
985.6238	0.000885
985.8662	0.001581
986.1086	0.001581
986.3510	0.000737
986.5934	0.000990
986.8358	0.000948
987.0783	0.000547
987.3207	0.002636
987.5632	0.001476
987.8056	0.000906
988.0481	0.000906
988.2906	0.000948
988.5331	-0.000065
988.7756	0.000251
989.0180	0.000610
989.2605	0.000652
989.5031	-0.000635
989.7456	0.001560
989.9881	0.000800
990.2306	0.001813
990.4732	0.000441
990.7157	0.001476
990.9582	0.001433
991.2008	0.000652
991.4434	0.001560
991.6859	0.001391
991.9285	0.001729
992.1711	0.000610
992.4137	-0.000656
992.6563	0.001433
992.8989	0.000631
993.1415	-0.000529
993.3841	0.000230
993.6267	0.002341
993.8694	0.000779
994.1120	0.000125
994.3547	-0.000192
994.5973	0.000821
994.8400	-0.000424
995.0826	-0.000002
995.3253	0.000927
995.5680	0.000463
995.8107	-0.000234
996.0534	0.000505
996.2961	-0.001500
996.5388	0.001518
996.7815	0.000294
997.0242	0.000716
997.2670	0.000420
997.5097	0.000505
997.7524	0.001180
997.9952	0.001370
998.2379	0.000969
998.4807	0.001096
998.7235	-0.000466
998.9662	0.000230
999.2090	0.001180
999.4518	-0.000192
999.6946	0.000188
999.9374	0.000463
1000.1802	-0.000614
1000.4230	0.001138
1000.6659	0.001412
1000.9087	0.000885
1001.1515	0.000273
1001.3944	0.000969
1001.6372	0.001307
1001.8801	0.000779
1002.1230	0.002299
1002.3658	0.002594
1002.6087	0.001666
1002.8516	0.000209
1003.0945	-0.000255
1003.3374	0.002721
1003.5803	0.000631
1003.8232	0.000821
1004.0661	-0.000593
1004.3091	-0.000508
1004.5520	0.000800
1004.7949	0.000885
1005.0379	0.000441
1005.2808	-0.000973
1005.5238	0.000568
1005.7667	-0.000107
1006.0097	0.001138
1006.2527	0.000695
1006.4957	0.001708
1006.7387	-0.000318
1006.9817	0.000568
1007.2247	0.001581
1007.4677	-0.000086
1007.7107	0.000188
1007.9538	0.000674
1008.1968	0.000652
1008.4398	0.000631
1008.6829	0.000019
1008.9259	0.000906
1009.1690	0.000568
1009.4121	0.001497
1009.6551	0.000631
1009.8982	0.001834
1010.1413	0.001412
1010.3844	0.000167
1010.6275	0.000737
1010.8706	0.001265
1011.1137	-0.000297
1011.3568	0.000589
1011.6000	-0.000677
1011.8431	0.002024
1012.0863	0.000083
1012.3294	0.000125
1012.5726	0.001265
1012.8157	0.000484
1013.0589	0.000842
1013.3021	0.000399
1013.5452	-0.000044
1013.7884	0.000821
1014.0316	0.000420
1014.2748	0.000779
1014.5180	-0.000002
1014.7613	0.000842
1015.0045	-0.000424
1015.2477	-0.000044
1015.4909	-0.000213
1015.7342	0.002299
1015.9774	0.001433
1016.2207	0.001243
1016.4640	0.000842
1016.7072	0.000568
1016.9505	0.000716
1017.1938	0.000842
1017.4371	-0.000698
1017.6804	0.001370
1017.9237	-0.001374
1018.1670	0.002256
1018.4103	-0.000487
1018.6536	0.000568
1018.8969	0.000357
1019.1403	0.000631
1019.3836	0.000378
1019.6270	0.000927
1019.8703	-0.000951
1020.1137	0.001222
1020.3571	0.000547
1020.6004	0.001075
1020.8438	0.000399
1021.0872	0.001053
1021.3306	0.001560
1021.5740	-0.000909
1021.8174	0.000062
1022.0608	-0.000192
1022.3042	-0.000656
1022.5477	-0.000424
1022.7911	-0.000973
1023.0345	0.001138
