# Wavelength (nm)	Intensity (a.u.)
197.7802	0.000760
197.9842	0.000866
198.1882	0.000127
198.3922	0.001182
198.5963	-0.001056
198.8003	0.000802
199.0044	-0.000063
199.2085	-0.000148
199.4126	0.001393
199.6168	-0.000422
199.8209	-0.000042
200.0251	-0.000718
200.2292	-0.000507
200.4334	-0.000253
200.6376	0.000591
200.8418	-0.001330
201.0461	0.000676
201.2503	-0.000844
201.4546	-0.001499
201.6589	0.000654
201.8631	-0.000084
202.0674	0.000148
202.2718	-0.000317
202.4761	0.000063
202.6805	-0.001098
202.8848	-0.000148
203.0892	-0.000042
203.2936	-0.000929
203.4980	0.000296
203.7024	-0.000591
203.9069	-0.001098
204.1113	0.000591
204.3158	0.001246
204.5203	-0.000591
204.7248	0.001626
204.9293	0.000063
205.1338	0.001330
205.3384	0.000148
205.5430	-0.000042
205.7475	0.000253
205.9521	0.000464
206.1567	-0.001330
206.3614	0.000211
206.5660	0.000042
206.7706	0.001351
206.9753	-0.001351
207.1800	0.000676
207.3847	-0.000823
207.5894	-0.000802
207.7941	-0.001309
207.9989	0.000190
208.2036	0.002027
208.4084	-0.000084
208.6132	-0.001161
208.8180	-0.000063
209.0228	-0.001203
209.2276	-0.000317
209.4325	0.000253
209.6373	0.001647
209.8422	0.000084
210.0471	0.000148
210.2520	-0.000042
210.4569	0.000528
210.6618	-0.000211
210.8668	0.000127
211.0718	0.001203
211.2767	-0.002111
211.4817	-0.001710
211.6867	-0.000338
211.8918	-0.000127
212.0968	0.000633
212.3018	0.000253
212.5069	-0.001224
212.7120	0.000654
212.9171	-0.000296
213.1222	-0.001140
213.3273	0.001056
213.5325	0.000084
213.7376	0.000718
213.9428	-0.000274
214.1480	0.000253
214.3532	-0.000654
214.5584	0.000211
214.7636	-0.001478
214.9689	0.001414
215.1741	-0.001562
215.3794	0.001140
215.5847	-0.000844
215.7900	-0.000486
215.9953	0.000929
216.2007	0.000844
216.4060	-0.000232
216.6114	0.000359
216.8168	0.000338
217.0222	0.001013
217.2276	-0.000148
217.4330	-0.001309
217.6384	-0.000739
217.8439	0.000760
218.0494	-0.000507
218.2548	-0.000106
218.4603	0.000296
218.6659	0.000844
218.8714	-0.000211
219.0769	0.000676
219.2825	0.000507
219.4881	0.000084
219.6936	-0.000866
219.8992	0.000211
220.1049	0.000274
220.3105	0.000464
220.5161	-0.000697
220.7218	0.001541
220.9275	0.000338
221.1332	0.001393
221.3389	-0.000338
221.5446	0.000359
221.7503	-0.000802
221.9561	0.000253
222.1618	-0.001098
222.3676	0.001056
222.5734	-0.000866
222.7792	0.000971
222.9850	0.000887
223.1909	-0.000443
223.3967	-0.000570
223.6026	0.001246
223.8085	-0.001583
224.0144	-0.000317
224.2203	0.000253
224.4262	0.000000
224.6322	0.001267
224.8381	0.000739
225.0441	-0.000380
225.2501	-0.001562
225.4561	0.001056
225.6621	-0.000232
225.8681	0.000000
226.0742	0.000507
226.2802	-0.000380
226.4863	-0.000718
226.6924	-0.000317
226.8985	-0.000211
227.1046	0.000084
227.3107	-0.000211
227.5169	-0.000274
227.7230	0.000042
227.9292	-0.000380
228.1354	0.000676
228.3416	-0.000422
228.5478	0.001077
228.7541	-0.000127
228.9603	0.000739
229.1666	-0.001963
229.3729	0.000486
229.5791	0.000633
229.7855	-0.000169
229.9918	-0.000063
230.1981	0.000612
230.4045	-0.000232
230.6108	0.000697
230.8172	-0.000697
231.0236	0.000063
231.2300	-0.000528
231.4364	0.000802
231.6429	-0.000380
231.8493	0.000612
232.0558	-0.000253
232.2623	0.000507
232.4688	0.001161
232.6753	0.000802
232.8818	0.000697
233.0884	0.000148
233.2949	-0.000127
233.5015	0.000992
233.7081	-0.000422
233.9147	0.001098
234.1213	-0.000697
234.3279	0.000422
234.5346	-0.000380
234.7413	-0.000380
234.9479	-0.000929
235.1546	-0.000507
235.3613	0.000549
235.5680	-0.000633
235.7748	-0.000380
235.9815	0.000507
236.1883	-0.001393
236.3951	-0.000718
236.6018	-0.000950
236.8087	-0.000570
237.0155	-0.000507
237.2223	0.000887
237.4292	0.000760
237.6360	0.000063
237.8429	-0.000401
238.0498	0.000844
238.2567	0.000739
238.4636	0.000844
238.6706	-0.000549
238.8775	0.000739
239.0845	-0.000676
239.2915	-0.000760
239.4985	-0.001562
239.7055	0.001773
239.9125	0.001098
240.1195	0.000042
240.3266	-0.000338
240.5337	-0.000676
240.7407	0.000338
240.9478	-0.000317
241.1549	0.000000
241.3621	0.001604
241.5692	-0.000211
241.7764	0.000190
241.9835	0.000042
242.1907	0.000422
242.3979	-0.001267
242.6051	0.001013
242.8124	0.000211
243.0196	0.000380
243.2269	0.000528
243.4341	0.000296
243.6414	-0.001056
243.8487	-0.000464
244.0560	0.000042
244.2634	0.000866
244.4707	-0.000042
244.6781	0.000464
244.8854	0.000549
245.0928	-0.000718
245.3002	0.000042
245.5076	-0.000866
245.7151	-0.000169
245.9225	0.000739
246.1300	0.000169
246.3375	0.000697
246.5449	0.000021
246.7524	-0.000042
246.9600	0.000633
247.1675	-0.000781
247.3750	-0.000443
247.5826	-0.000401
247.7902	0.000317
247.9978	-0.001056
248.2054	-0.000169
248.4130	-0.000169
248.6206	0.000063
248.8283	-0.000760
249.0359	0.000929
249.2436	0.000549
249.4513	-0.000844
249.6590	0.001794
249.8667	-0.002174
250.0745	-0.000211
250.2822	-0.001309
250.4900	-0.000654
250.6978	-0.000591
250.9056	0.001056
251.1134	0.000359
251.3212	-0.000591
251.5290	0.000253
251.7369	0.000823
251.9447	0.000464
252.1526	0.000148
252.3605	-0.000042
252.5684	-0.000760
252.7763	-0.000190
252.9843	-0.001267
253.1922	0.000296
253.4002	-0.000253
253.6082	-0.000084
253.8162	-0.000866
254.0242	-0.000549
254.2322	0.000697
254.4402	0.000887
254.6483	0.000718
254.8564	0.000866
255.0644	0.000253
255.2725	0.000190
255.4806	0.000063
255.6888	0.000211
255.8969	0.000106
256.1051	0.000739
256.3132	0.000507
256.5214	-0.000549
256.7296	0.001056
256.9378	0.000992
257.1460	0.000971
257.3543	-0.000359
257.5625	0.000823
257.7708	-0.001140
257.9791	0.002006
258.1874	-0.000380
258.3957	0.000654
258.6040	0.001056
258.8124	-0.000253
259.0207	-0.000148
259.2291	0.000992
259.4375	-0.000274
259.6459	0.002048
259.8543	-0.000338
260.0627	0.000211
260.2711	-0.000338
260.4796	0.001203
260.6881	0.001773
260.8965	0.000042
261.1050	-0.000190
261.3135	-0.000127
261.5221	-0.000296
261.7306	0.000169
261.9392	0.000253
262.1477	0.000042
262.3563	-0.001034
262.5649	0.000570
262.7735	0.000401
262.9822	0.001013
263.1908	0.000211
263.3995	-0.001161
263.6081	-0.000507
263.8168	-0.000063
264.0255	0.000084
264.2342	0.000697
264.4429	-0.000718
264.6517	0.000866
264.8604	0.000106
265.0692	-0.000232
265.2780	-0.001330
265.4868	0.000676
265.6956	0.000507
265.9044	-0.000570
266.1133	0.000169
266.3221	0.001161
266.5310	0.000296
266.7399	0.001288
266.9488	-0.000654
267.1577	0.000232
267.3666	0.000084
267.5755	0.000549
267.7845	-0.000464
267.9935	0.000697
268.2024	-0.000697
268.4114	0.001140
268.6205	-0.000063
268.8295	-0.000211
269.0385	-0.000486
269.2476	0.000338
269.4566	0.000443
269.6657	0.000422
269.8748	0.001520
270.0839	0.000317
270.2931	0.001583
270.5022	-0.000802
270.7114	0.000549
270.9205	0.000676
271.1297	0.000760
271.3389	0.000633
271.5481	0.000338
271.7573	0.000654
271.9666	-0.001309
272.1758	0.001098
272.3851	0.000021
272.5944	0.000422
272.8037	0.000929
273.0130	-0.001034
273.2223	-0.000084
273.4316	0.001372
273.6410	-0.000908
273.8504	0.001710
274.0597	0.000464
274.2691	-0.000127
274.4785	-0.000718
274.6880	-0.000359
274.8974	-0.000380
275.1069	0.000654
275.3163	-0.000887
275.5258	-0.000591
275.7353	-0.000063
275.9448	0.000000
276.1543	-0.000992
276.3639	0.001478
276.5734	-0.000232
276.7830	-0.000190
276.9926	-0.000718
277.2022	-0.000338
277.4118	0.001034
277.6214	-0.000507
277.8310	-0.000612
278.0407	0.000148
278.2503	-0.000676
278.4600	0.000380
278.6697	-0.000359
278.8794	0.000169
279.0891	-0.000106
279.2989	0.000802
279.5086	-0.000359
279.7184	0.000528
279.9281	0.000042
280.1379	-0.000697
280.3477	-0.001393
280.5576	0.000633
280.7674	0.000486
280.9772	0.000486
281.1871	-0.000971
281.3970	-0.000676
281.6069	-0.000084
281.8168	0.000464
282.0267	-0.000317
282.2366	0.000169
282.4466	0.001182
282.6565	0.000633
282.8665	0.001182
283.0765	0.000950
283.2865	-0.000063
283.4965	0.000106
283.7065	-0.000380
283.9166	0.000633
284.1266	0.000380
284.3367	-0.000253
284.5468	0.000317
284.7569	0.000633
284.9670	-0.000633
285.1771	-0.000359
285.3873	0.000802
285.5974	0.000633
285.8076	0.000443
286.0178	-0.000127
286.2280	-0.000591
286.4382	0.000633
286.6484	-0.000697
286.8587	0.001499
287.0689	0.000253
287.2792	0.000760
287.4895	-0.001351
287.6998	-0.000654
287.9101	0.000127
288.1204	0.000127
288.3308	0.000296
288.5411	0.000908
288.7515	0.001203
288.9619	-0.000063
289.1723	-0.000443
289.3827	-0.000591
289.5931	0.000106
289.8035	0.001203
290.0140	0.000274
290.2245	0.000169
290.4349	-0.000127
290.6454	0.001077
290.8559	0.001013
291.0665	-0.000591
291.2770	0.001182
291.4875	0.001119
291.6981	-0.000549
291.9087	0.000992
292.1193	0.000718
292.3299	0.001520
292.5405	0.000084
292.7511	0.001499
292.9618	-0.000148
293.1724	-0.000211
293.3831	-0.000063
293.5938	0.001647
293.8045	-0.000021
294.0152	0.000084
294.2260	-0.000338
294.4367	0.001056
294.6475	-0.001077
294.8582	-0.000401
295.0690	0.000127
295.2798	0.000084
295.4906	0.000274
295.7015	-0.001161
295.9123	0.000697
296.1232	-0.001203
296.3340	-0.001034
296.5449	-0.000549
296.7558	0.000169
296.9667	-0.000380
297.1777	0.000950
297.3886	-0.000169
297.5995	0.000570
297.8105	0.000739
298.0215	0.000169
298.2325	0.000929
298.4435	0.000676
298.6545	0.000190
298.8656	0.001288
299.0766	-0.000443
299.2877	0.001562
299.4988	0.001203
299.7099	0.000274
299.9210	-0.001098
300.1321	-0.000063
300.3432	0.001689
300.5544	-0.001034
300.7655	0.000148
300.9767	0.000232
301.1879	0.000802
301.3991	-0.000528
301.6103	0.000676
301.8215	-0.000866
302.0328	-0.000296
302.2441	-0.000106
302.4553	-0.000950
302.6666	-0.000021
302.8779	-0.000887
303.0892	0.001583
303.3006	-0.000127
303.5119	0.000718
303.7233	0.001499
303.9346	0.000169
304.1460	0.000950
304.3574	0.000084
304.5688	0.000528
304.7803	0.001246
304.9917	0.000000
305.2031	0.001034
305.4146	-0.000190
305.6261	-0.001161
305.8376	-0.000317
306.0491	-0.001541
306.2606	0.000042
306.4722	0.000908
306.6837	0.001267
306.8953	-0.001140
307.1069	0.000296
307.3184	0.000718
307.5301	0.000528
307.7417	-0.000486
307.9533	-0.000422
308.1650	-0.000253
308.3766	-0.000570
308.5883	-0.000760
308.8000	-0.000887
309.0117	-0.000464
309.2234	0.000591
309.4351	-0.001056
309.6469	0.000760
309.8586	-0.000908
310.0704	0.000802
310.2822	0.000084
310.4940	0.000802
310.7058	-0.000992
310.9176	-0.000148
311.1295	-0.000823
311.3413	-0.000296
311.5532	0.000232
311.7651	-0.000232
311.9770	-0.001562
312.1889	0.000781
312.4008	-0.000401
312.6127	0.001414
312.8247	0.000338
313.0366	-0.000021
313.2486	0.001077
313.4606	-0.000654
313.6726	-0.000169
313.8846	0.000359
314.0967	-0.000380
314.3087	-0.000844
314.5208	0.000127
314.7328	0.000844
314.9449	-0.000169
315.1570	0.001351
315.3692	-0.000464
315.5813	0.000253
315.7934	-0.000253
316.0056	0.002364
316.2177	-0.000274
316.4299	-0.000486
316.6421	-0.000338
316.8543	0.000971
317.0666	0.000676
317.2788	0.000084
317.4911	0.000169
317.7033	0.000844
317.9156	0.000084
318.1279	0.000760
318.3402	0.000549
318.5525	-0.000084
318.7649	-0.000676
318.9772	-0.000443
319.1896	0.000464
319.4019	0.000211
319.6143	-0.000866
319.8267	-0.000507
320.0392	0.000296
320.2516	-0.001267
320.4640	-0.000971
320.6765	-0.000148
320.8890	-0.000612
321.1014	-0.000422
321.3139	-0.000844
321.5265	0.000317
321.7390	-0.000697
321.9515	0.000760
322.1641	-0.001604
322.3766	0.000274
322.5892	0.000866
322.8018	-0.000422
323.0144	0.000359
323.2270	-0.000253
323.4397	-0.000739
323.6523	0.001161
323.8650	0.000887
324.0777	0.000633
324.2904	-0.000253
324.5031	0.001773
324.7158	-0.000633
324.9285	0.000612
325.1412	-0.000127
325.3540	0.001752
325.5668	0.000697
325.7796	-0.000106
325.9924	0.000612
326.2052	0.000359
326.4180	-0.000317
326.6308	0.000063
326.8437	-0.001098
327.0566	0.000528
327.2694	0.000781
327.4823	0.000380
327.6952	0.001013
327.9082	0.001351
328.1211	0.000528
328.3340	0.000359
328.5470	0.000549
328.7600	-0.000148
328.9730	0.000274
329.1860	0.000992
329.3990	0.000211
329.6120	0.000359
329.8251	0.000190
330.0381	0.001119
330.2512	0.000063
330.4643	0.001267
330.6774	0.000253
330.8905	0.000866
331.1036	-0.001034
331.3167	0.000274
331.5299	-0.000148
331.7431	0.001098
331.9562	0.000570
332.1694	0.000866
332.3826	0.000507
332.5959	-0.000654
332.8091	0.000528
333.0223	-0.000296
333.2356	0.001414
333.4489	0.000211
333.6622	-0.000211
333.8755	0.000253
334.0888	-0.000380
334.3021	0.001351
334.5154	0.001140
334.7288	0.000359
334.9422	-0.000380
335.1555	0.000190
335.3689	-0.000739
335.5823	0.000253
335.7958	-0.000190
336.0092	0.000549
336.2227	0.000549
336.4361	-0.000169
336.6496	0.001077
336.8631	-0.001034
337.0766	0.000486
337.2901	0.000296
337.5036	-0.000338
337.7172	-0.000190
337.9307	-0.000422
338.1443	0.000739
338.3579	-0.000317
338.5715	0.000084
338.7851	0.000190
338.9987	-0.000253
339.2124	0.000021
339.4260	0.000739
339.6397	-0.000232
339.8533	0.000274
340.0670	-0.000908
340.2807	0.000887
340.4945	-0.000211
340.7082	0.001161
340.9219	-0.001182
341.1357	-0.000232
341.3495	0.000169
341.5633	-0.000844
341.7771	0.001499
341.9909	0.000063
342.2047	0.000063
342.4185	0.001182
342.6324	0.000338
342.8463	0.000781
343.0601	0.000042
343.2740	0.001351
343.4879	-0.000908
343.7019	-0.000464
343.9158	-0.000401
344.1297	0.001224
344.3437	0.000443
344.5577	-0.000908
344.7717	0.000021
344.9857	0.001520
345.1997	-0.001668
345.4137	-0.000084
345.6277	-0.000781
345.8418	0.001541
346.0559	-0.000253
346.2699	0.000106
346.4840	-0.000063
346.6981	0.000823
346.9123	0.000127
347.1264	0.000612
347.3406	-0.000887
347.5547	0.002111
347.7689	-0.000274
347.9831	0.000084
348.1973	0.000190
348.4115	0.000950
348.6257	-0.000422
348.8400	0.000338
349.0542	-0.001330
349.2685	0.000528
349.4828	-0.000570
349.6971	0.000253
349.9114	-0.000401
350.1257	0.000084
350.3400	-0.000338
350.5544	-0.000211
350.7687	-0.000127
350.9831	0.001203
351.1975	-0.000486
351.4119	0.000823
351.6263	0.000211
351.8407	0.000971
352.0552	0.000422
352.2696	-0.000591
352.4841	-0.000612
352.6986	0.000317
352.9131	-0.000253
353.1276	0.000359
353.3421	0.000697
353.5566	0.001773
353.7712	-0.000549
353.9858	0.000253
354.2003	0.000274
354.4149	0.000211
354.6295	-0.000380
354.8441	0.001203
355.0588	-0.000887
355.2734	-0.001182
355.4881	-0.000380
355.7027	0.000380
355.9174	0.000676
356.1321	-0.000697
356.3468	0.000781
356.5615	-0.000887
356.7763	0.000549
356.9910	-0.000106
357.2058	0.000718
357.4206	-0.000127
357.6353	-0.001182
357.8501	-0.000148
358.0650	0.000992
358.2798	0.000169
358.4946	0.000676
358.7095	0.000591
358.9243	-0.000211
359.1392	-0.000148
359.3541	-0.000232
359.5690	0.000971
359.7839	0.000549
359.9989	0.000633
360.2138	0.000274
360.4288	-0.000317
360.6438	0.001056
360.8587	0.001562
361.0737	0.000612
361.2888	0.000486
361.5038	-0.000253
361.7188	0.000232
361.9339	0.000443
362.1489	-0.000169
362.3640	0.001689
362.5791	-0.000148
362.7942	0.000739
363.0093	0.001034
363.2245	-0.000232
363.4396	0.000063
363.6548	-0.000232
363.8699	0.000296
364.0851	0.000296
364.3003	0.001668
364.5155	0.000042
364.7308	-0.000296
364.9460	0.000190
365.1612	0.000802
365.3765	-0.000169
365.5918	-0.000464
365.8071	-0.000676
366.0224	0.001077
366.2377	-0.001562
366.4530	0.000127
366.6684	0.000317
366.8837	0.000950
367.0991	-0.000401
367.3145	0.000127
367.5299	-0.000063
367.7453	0.000106
367.9607	0.000718
368.1761	0.001140
368.3916	-0.000739
368.6070	0.000676
368.8225	0.000211
369.0380	-0.000211
369.2535	0.001921
369.4690	0.000359
369.6845	0.000042
369.9001	0.000570
370.1156	-0.000359
370.3312	-0.000823
370.5468	-0.000654
370.7624	0.001668
370.9780	0.000443
371.1936	-0.000253
371.4092	-0.000211
371.6249	0.000654
371.8405	-0.000021
372.0562	-0.000253
372.2719	-0.000676
372.4876	0.000760
372.7033	0.000000
372.9190	0.001478
373.1348	0.000000
373.3505	0.001710
373.5663	-0.000929
373.7820	0.000908
373.9978	-0.000232
374.2136	0.000570
374.4294	-0.000148
374.6453	0.000127
374.8611	0.001499
375.0770	-0.000844
375.2928	-0.000317
375.5087	0.001098
375.7246	-0.000633
375.9405	0.001668
376.1564	-0.001562
376.3724	0.001267
376.5883	-0.000127
376.8043	0.001182
377.0203	-0.001077
377.2362	0.000760
377.4522	-0.000106
377.6682	0.000739
377.8843	-0.000338
378.1003	0.000802
378.3164	0.001182
378.5324	0.000528
378.7485	0.000591
378.9646	0.000739
379.1807	-0.000654
379.3968	0.000781
379.6129	-0.000148
379.8291	-0.000063
380.0452	0.000823
380.2614	-0.000169
380.4776	-0.000507
380.6938	0.001436
380.9100	-0.000084
381.1262	0.000190
381.3424	0.000464
381.5587	0.000844
381.7749	0.000253
381.9912	-0.000528
382.2075	0.000591
382.4238	0.001098
382.6401	-0.000169
382.8564	0.001816
383.0728	0.000127
383.2891	0.000844
383.5055	-0.000042
383.7219	0.001647
383.9382	0.000570
384.1546	0.000697
384.3711	-0.000422
384.5875	0.000274
384.8039	0.001246
385.0204	-0.000021
385.2368	0.001161
385.4533	0.000802
385.6698	0.000127
385.8863	0.000507
386.1028	0.000338
386.3194	0.000929
386.5359	0.000000
386.7525	0.000823
386.9690	0.000359
387.1856	0.001203
387.4022	0.001710
387.6188	0.001858
387.8355	-0.000106
388.0521	0.003314
388.2687	0.001773
388.4854	0.002196
388.7021	0.001794
388.9188	0.002871
389.1355	0.002470
389.3522	0.001710
389.5689	0.002090
389.7856	0.002512
390.0024	0.003061
390.2192	0.003863
390.4359	0.003526
390.6527	0.003441
390.8695	0.004201
391.0863	0.004581
391.3032	0.003103
391.5200	0.004665
391.7369	0.005637
391.9537	0.005003
392.1706	0.005067
392.3875	0.006375
392.6044	0.007157
392.8213	0.007663
393.0383	0.007748
393.2552	0.008719
393.4722	0.009120
393.6891	0.008191
393.9061	0.007895
394.1231	0.007494
394.3401	0.008677
394.5572	0.009943
394.7742	0.008402
394.9912	0.009943
395.2083	0.010830
395.4254	0.009627
395.6425	0.011801
395.8596	0.010703
396.0767	0.010893
396.2938	0.011147
396.5109	0.012392
396.7281	0.013110
396.9453	0.012920
397.1624	0.012983
397.3796	0.013152
397.5968	0.014208
397.8140	0.015981
398.0313	0.015516
398.2485	0.015284
398.4658	0.018324
398.6830	0.015601
398.9003	0.018303
399.1176	0.017585
399.3349	0.016551
399.5522	0.017311
399.7696	0.017142
399.9869	0.018071
400.2043	0.018113
400.4216	0.017881
400.6390	0.019274
400.8564	0.017121
401.0738	0.019696
401.2912	0.021618
401.5087	0.020034
401.7261	0.019929
401.9436	0.020646
402.1610	0.021301
402.3785	0.022103
402.5960	0.019971
402.8135	0.021955
403.0310	0.021575
403.2486	0.022631
403.4661	0.020794
403.6837	0.022568
403.9013	0.022209
404.1189	0.023750
404.3365	0.021744
404.5541	0.023454
404.7717	0.024404
404.9893	0.024024
405.2070	0.023222
405.4246	0.027845
405.6423	0.025586
405.8600	0.026410
406.0777	0.025143
406.2954	0.025059
406.5131	0.023771
406.7309	0.025797
406.9486	0.024679
407.1664	0.022209
407.3842	0.025080
407.6020	0.023560
407.8198	0.025460
408.0376	0.025417
408.2554	0.025776
408.4733	0.025607
408.6911	0.025692
408.9090	0.026811
409.1269	0.025924
409.3448	0.026705
409.5627	0.025797
409.7806	0.025607
409.9985	0.026114
410.2165	0.026811
410.4344	0.025840
410.6524	0.027486
410.8704	0.027930
411.0884	0.028035
411.3064	0.025882
411.5244	0.026009
411.7424	0.026621
411.9605	0.027655
412.1785	0.027149
412.3966	0.027866
412.6147	0.027909
412.8328	0.029217
413.0509	0.029471
413.2690	0.030442
413.4871	0.029893
413.7053	0.030167
413.9234	0.028943
414.1416	0.029429
414.3598	0.028732
414.5780	0.027529
414.7962	0.028479
415.0144	0.029450
415.2326	0.030020
415.4509	0.030759
415.6692	0.029006
415.8874	0.029344
416.1057	0.029851
416.3240	0.031096
416.5423	0.031012
416.7606	0.031350
416.9790	0.028289
417.1973	0.029006
417.4157	0.030294
417.6341	0.030780
417.8524	0.030252
418.0708	0.027571
418.2893	0.029830
418.5077	0.031012
418.7261	0.030780
418.9446	0.030315
419.1630	0.031054
419.3815	0.028859
419.6000	0.031075
419.8185	0.030379
420.0370	0.030421
420.2555	0.032173
420.4741	0.031645
420.6926	0.033461
420.9112	0.033967
421.1298	0.033587
421.3483	0.034875
421.5669	0.034368
421.7856	0.037197
422.0042	0.037071
422.2228	0.036944
422.4415	0.034094
422.6601	0.033355
422.8788	0.034200
423.0975	0.033777
423.3162	0.033355
423.5349	0.034917
423.7536	0.034368
423.9724	0.033207
424.1911	0.031645
424.4099	0.034347
424.6287	0.034664
424.8475	0.035255
425.0663	0.032553
425.2851	0.031687
425.5039	0.033017
425.7228	0.031561
425.9416	0.031223
426.1605	0.030843
426.3793	0.029555
426.5982	0.029977
426.8171	0.030167
427.0361	0.030294
427.2550	0.031329
427.4739	0.032342
427.6929	0.030780
427.9118	0.032426
428.1308	0.030759
428.3498	0.031307
428.5688	0.030569
428.7878	0.030484
429.0068	0.032490
429.2259	0.032827
429.4449	0.032680
429.6640	0.034453
429.8831	0.037071
430.1022	0.037788
430.3213	0.036585
430.5404	0.035973
430.7595	0.036480
430.9787	0.036670
431.1978	0.034052
431.4170	0.031983
431.6362	0.032975
431.8553	0.031751
432.0745	0.028563
432.2938	0.029724
432.5130	0.029365
432.7322	0.028521
432.9515	0.029429
433.1707	0.027909
433.3900	0.028183
433.6093	0.032236
433.8286	0.034284
434.0479	0.034917
434.2673	0.033630
434.4866	0.032131
434.7059	0.030759
434.9253	0.031772
435.1447	0.031856
435.3641	0.032637
435.5835	0.031497
435.8029	0.030590
436.0223	0.030484
436.2418	0.030294
436.4612	0.031687
436.6807	0.033102
436.9001	0.031329
437.1196	0.030949
437.3391	0.030336
437.5586	0.030653
437.7782	0.029281
437.9977	0.032088
438.2173	0.030294
438.4368	0.029977
438.6564	0.031730
438.8760	0.031265
439.0956	0.030273
439.3152	0.030189
439.5348	0.030104
439.7545	0.030484
439.9741	0.029070
440.1938	0.029809
440.4135	0.029217
440.6331	0.029302
440.8528	0.029619
441.0725	0.031751
441.2923	0.033482
441.5120	0.034558
441.7318	0.034284
441.9515	0.034537
442.1713	0.035403
442.3911	0.034580
442.6109	0.032511
442.8307	0.033292
443.0505	0.032785
443.2703	0.032236
443.4902	0.029703
443.7101	0.032785
443.9299	0.034368
444.1498	0.031793
444.3697	0.032891
444.5896	0.033566
444.8095	0.031835
445.0295	0.032152
445.2494	0.032426
445.4694	0.030189
445.6894	0.030252
445.9093	0.029640
446.1293	0.028626
446.3493	0.032468
446.5694	0.029619
446.7894	0.032426
447.0094	0.031075
447.2295	0.029619
447.4496	0.029386
447.6696	0.029513
447.8897	0.028225
448.1098	0.029935
448.3300	0.028922
448.5501	0.027465
448.7702	0.028711
448.9904	0.028035
449.2106	0.028626
449.4307	0.027550
449.6509	0.026747
449.8711	0.028816
450.0914	0.025819
450.3116	0.026937
450.5318	0.027866
450.7521	0.027170
450.9724	0.025164
451.1926	0.026705
451.4129	0.024594
451.6332	0.024763
451.8535	0.025059
452.0739	0.026705
452.2942	0.024615
452.5146	0.024700
452.7349	0.021934
452.9553	0.025375
453.1757	0.022757
453.3961	0.022842
453.6165	0.020752
453.8369	0.021786
454.0574	0.022842
454.2778	0.022673
454.4983	0.020710
454.7188	0.022356
454.9393	0.021449
455.1597	0.021132
455.3803	0.022251
455.6008	0.022378
455.8213	0.020182
456.0419	0.020203
456.2624	0.019528
456.4830	0.023053
456.7036	0.021111
456.9242	0.020351
457.1448	0.021090
457.3654	0.018704
457.5860	0.021723
457.8067	0.021723
458.0274	0.021216
458.2480	0.021765
458.4687	0.020900
458.6894	0.019211
458.9101	0.020351
459.1308	0.021660
459.3516	0.020435
459.5723	0.021681
459.7931	0.021280
460.0138	0.019781
460.2346	0.020731
460.4554	0.019950
460.6762	0.019084
460.8970	0.019063
461.1178	0.019422
461.3387	0.018029
461.5595	0.016973
461.7804	0.017691
462.0013	0.017501
462.2222	0.016635
462.4431	0.017416
462.6640	0.014630
462.8849	0.015791
463.1059	0.016065
463.3268	0.017142
463.5478	0.015580
463.7687	0.017501
463.9897	0.017163
464.2107	0.017670
464.4317	0.017015
464.6528	0.017438
464.8738	0.016319
465.0948	0.018535
465.3159	0.017248
465.5370	0.017796
465.7581	0.018409
465.9792	0.017332
466.2003	0.018092
466.4214	0.017754
466.6425	0.015326
466.8637	0.015158
467.0848	0.015052
467.3060	0.014925
467.5272	0.014102
467.7484	0.013954
467.9696	0.012350
468.1908	0.013574
468.4120	0.011484
468.6333	0.014271
468.8545	0.013574
469.0758	0.011653
469.2970	0.010767
469.5183	0.011949
469.7396	0.011484
469.9610	0.011083
470.1823	0.011653
470.4036	0.011315
470.6250	0.011041
470.8463	0.009817
471.0677	0.010661
471.2891	0.010619
471.5105	0.010682
471.7319	0.011590
471.9533	0.009605
472.1748	0.008909
472.3962	0.008191
472.6177	0.009035
472.8391	0.010555
473.0606	0.011104
473.2821	0.008634
473.5036	0.010555
473.7251	0.011548
473.9467	0.011147
474.1682	0.009753
474.3898	0.009394
474.6113	0.008782
474.8329	0.009057
475.0545	0.008930
475.2761	0.011273
475.4977	0.008719
475.7193	0.009753
475.9410	0.010007
476.1626	0.008085
476.3843	0.010239
476.6060	0.009985
476.8277	0.008803
477.0494	0.007347
477.2711	0.008444
477.4928	0.009035
477.7145	0.007051
477.9363	0.007727
478.1580	0.008212
478.3798	0.008972
478.6016	0.006587
478.8234	0.009057
479.0452	0.007178
479.2670	0.008698
479.4888	0.006819
479.7107	0.007389
479.9325	0.008001
480.1544	0.007769
480.3763	0.008677
480.5982	0.007537
480.8201	0.008128
481.0420	0.008064
481.2639	0.007621
481.4859	0.006164
481.7078	0.007304
481.9298	0.006777
482.1517	0.006312
482.3737	0.006502
482.5957	0.006819
482.8177	0.008107
483.0398	0.006460
483.2618	0.008613
483.4838	0.005784
483.7059	0.006777
483.9280	0.006122
484.1501	0.006249
484.3721	0.007811
484.5943	0.007030
484.8164	0.006460
485.0385	0.008128
485.2606	0.007368
485.4828	0.008719
485.7050	0.014081
485.9271	0.019612
486.1493	0.021913
486.3715	0.018493
486.5937	0.012540
486.8160	0.010640
487.0382	0.011970
487.2605	0.010239
487.4827	0.009753
487.7050	0.006544
487.9273	0.006101
488.1496	0.007009
488.3719	0.005594
488.5942	0.005573
488.8165	0.003673
489.0389	0.006650
489.2612	0.005637
489.4836	0.004813
489.7060	0.004687
489.9284	0.005109
490.1508	0.004813
490.3732	0.005320
490.5956	0.004349
490.8180	0.005911
491.0405	0.004518
491.2630	0.004687
491.4854	0.003462
491.7079	0.004834
491.9304	0.005594
492.1529	0.005024
492.3755	0.003884
492.5980	0.005594
492.8205	0.003779
493.0431	0.003420
493.2657	0.004518
493.4882	0.003906
493.7108	0.003758
493.9334	0.004919
494.1561	0.003589
494.3787	0.004053
494.6013	0.003694
494.8240	0.004982
495.0466	0.001858
495.2693	0.002301
495.4920	0.002702
495.7147	0.002892
495.9374	0.002343
496.1601	0.003800
496.3829	0.003504
496.6056	0.004708
496.8284	0.003927
497.0511	0.004201
497.2739	0.004159
497.4967	0.005911
497.7195	0.004264
497.9423	0.003357
498.1652	0.002639
498.3880	0.002787
498.6109	0.003188
498.8337	0.003399
499.0566	0.002364
499.2795	0.004391
499.5024	0.003969
499.7253	0.003673
499.9482	0.003293
500.1712	0.004074
500.3941	0.002977
500.6171	0.002913
500.8400	0.003589
501.0630	0.003547
501.2860	0.002871
501.5090	0.003969
501.7320	0.002196
501.9551	0.002428
502.1781	0.003230
502.4012	0.003800
502.6242	0.002048
502.8473	0.003842
503.0704	0.001794
503.2935	0.004581
503.5166	0.002576
503.7397	0.003061
503.9628	0.002470
504.1860	0.002069
504.4092	0.001203
504.6323	0.002470
504.8555	0.001900
505.0787	0.003969
505.3019	0.003568
505.5251	0.003800
505.7483	0.002808
505.9716	0.002977
506.1948	0.002111
506.4181	0.004328
506.6414	0.004307
506.8647	0.002280
507.0880	0.003504
507.3113	0.003568
507.5346	0.002238
507.7579	0.001773
507.9813	0.001900
508.2046	0.001879
508.4280	0.001731
508.6514	0.001351
508.8748	0.001203
509.0982	0.002660
509.3216	0.002533
509.5450	0.003526
509.7685	0.003209
509.9919	0.002934
510.2154	0.002386
510.4388	0.001520
510.6623	0.002723
510.8858	0.002977
511.1093	0.002639
511.3329	0.003906
511.5564	0.003399
511.7799	0.002554
512.0035	0.003758
512.2270	0.003547
512.4506	0.000591
512.6742	0.003167
512.8978	0.002913
513.1214	0.004074
513.3451	0.002681
513.5687	0.002280
513.7923	0.002702
514.0160	0.004264
514.2397	0.001478
514.4634	0.004476
514.6871	0.001267
514.9108	0.003927
515.1345	0.003251
515.3582	0.003504
515.5819	0.002364
515.8057	0.000929
516.0295	0.002871
516.2532	0.002576
516.4770	0.003526
516.7008	0.001879
516.9246	0.001752
517.1485	0.003420
517.3723	0.001858
517.5961	0.002027
517.8200	0.002554
518.0439	0.002512
518.2677	0.002280
518.4916	0.001984
518.7155	0.003293
518.9395	0.002364
519.1634	0.002702
519.3873	0.002681
519.6113	0.002913
519.8352	0.003103
520.0592	0.002702
520.2832	0.002027
520.5072	0.001921
520.7312	0.003167
520.9552	0.002280
521.1792	0.002217
521.4033	0.003420
521.6273	0.002449
521.8514	0.003378
522.0755	0.002554
522.2996	0.003589
522.5237	0.003420
522.7478	0.003737
522.9719	0.001414
523.1960	0.004180
523.4202	0.003737
523.6443	0.001267
523.8685	0.003124
524.0927	0.002977
524.3169	0.002238
524.5411	0.003399
524.7653	0.002829
524.9895	0.002787
525.2138	0.004602
525.4380	0.003694
525.6623	0.003441
525.8865	0.003230
526.1108	0.004286
526.3351	0.004286
526.5594	0.004497
526.7837	0.004180
527.0081	0.003948
527.2324	0.003821
527.4568	0.004096
527.6811	0.002871
527.9055	0.004032
528.1299	0.004222
528.3543	0.003927
528.5787	0.004476
528.8031	0.002618
529.0276	0.005615
529.2520	0.006249
529.4765	0.005214
529.7009	0.005637
529.9254	0.005679
530.1499	0.004898
530.3744	0.005425
530.5989	0.004349
530.8234	0.006375
531.0480	0.005890
531.2725	0.004877
531.4971	0.003441
531.7217	0.006650
531.9462	0.004644
532.1708	0.005257
532.3954	0.006249
532.6200	0.005869
532.8447	0.006608
533.0693	0.006080
533.2940	0.005679
533.5186	0.007642
533.7433	0.007389
533.9680	0.007452
534.1927	0.007452
534.4174	0.007473
534.6421	0.008001
534.8668	0.008212
535.0916	0.007917
535.3163	0.007304
535.5411	0.006692
535.7659	0.006924
535.9907	0.006523
536.2155	0.008444
536.4403	0.008275
536.6651	0.007178
536.8899	0.009078
537.1148	0.007748
537.3396	0.007600
537.5645	0.007093
537.7894	0.007621
538.0143	0.009162
538.2392	0.007304
538.4641	0.010260
538.6890	0.009141
538.9139	0.008254
539.1389	0.009732
539.3638	0.009753
539.5888	0.009078
539.8138	0.009057
540.0388	0.009289
540.2638	0.011358
540.4888	0.009289
540.7138	0.010598
540.9389	0.011569
541.1639	0.012265
541.3890	0.012160
541.6140	0.011041
541.8391	0.012730
542.0642	0.011210
542.2893	0.012688
542.5144	0.012941
542.7396	0.011991
542.9647	0.012477
543.1899	0.013849
543.4150	0.012139
543.6402	0.012941
543.8654	0.015115
544.0906	0.013237
544.3158	0.015031
544.5410	0.014693
544.7662	0.016382
544.9915	0.014250
545.2167	0.015495
545.4420	0.015896
545.6673	0.014250
545.8926	0.015559
546.1179	0.014566
546.3432	0.014883
546.5685	0.014609
546.7938	0.014419
547.0192	0.015833
547.2445	0.016129
547.4699	0.016065
547.6953	0.016382
547.9206	0.016889
548.1460	0.020288
548.3715	0.021322
548.5969	0.018620
548.8223	0.020731
549.0478	0.017691
549.2732	0.019760
549.4987	0.017881
549.7242	0.016382
549.9496	0.018409
550.1751	0.018704
550.4007	0.019105
550.6262	0.018155
550.8517	0.017986
551.0773	0.017670
551.3028	0.018134
551.5284	0.019042
551.7540	0.018493
551.9796	0.020562
552.2052	0.020646
552.4308	0.023602
552.6564	0.022736
552.8820	0.022673
553.1077	0.023053
553.3333	0.024024
553.5590	0.023391
553.7847	0.023306
554.0104	0.022779
554.2361	0.024066
554.4618	0.022652
554.6875	0.023370
554.9132	0.021681
555.1390	0.020773
555.3648	0.023560
555.5905	0.027381
555.8163	0.023053
556.0421	0.026790
556.2679	0.027613
556.4937	0.027465
556.7195	0.025249
556.9454	0.025249
557.1712	0.025185
557.3971	0.027170
557.6230	0.027233
557.8488	0.025206
558.0747	0.027381
558.3006	0.027486
558.5266	0.026241
558.7525	0.026790
558.9784	0.025945
559.2044	0.024826
559.4303	0.026283
559.6563	0.026093
559.8823	0.026283
560.1083	0.029302
560.3343	0.031054
560.5603	0.031540
560.7863	0.032912
561.0124	0.034812
561.2384	0.034200
561.4645	0.035720
561.6905	0.034791
561.9166	0.034917
562.1427	0.034474
562.3688	0.033545
562.5949	0.032954
562.8211	0.033524
563.0472	0.033862
563.2733	0.035213
563.4995	0.035530
563.7257	0.035762
563.9519	0.035846
564.1781	0.039815
564.4043	0.039097
564.6305	0.039287
564.8567	0.038021
565.0829	0.039857
565.3092	0.042961
565.5355	0.042348
565.7617	0.040828
565.9880	0.040385
566.2143	0.043129
566.4406	0.041061
566.6669	0.043066
566.8932	0.045789
567.1196	0.047331
567.3459	0.048977
567.5723	0.055754
567.7987	0.055184
568.0250	0.055120
568.2514	0.059026
568.4778	0.061855
568.7043	0.065233
568.9307	0.071904
569.1571	0.074965
569.3836	0.076569
569.6100	0.088644
569.8365	0.097954
570.0630	0.102620
570.2895	0.107496
570.5160	0.105808
570.7425	0.103612
570.9690	0.114484
571.1956	0.122105
571.4221	0.126137
571.6487	0.127087
571.8752	0.136819
572.1018	0.142498
572.3284	0.138635
572.5550	0.130782
572.7816	0.122654
573.0082	0.114505
573.2349	0.128692
573.4615	0.143174
573.6882	0.153096
573.9149	0.159112
574.1415	0.163187
574.3682	0.168338
574.5949	0.176761
574.8216	0.172180
575.0484	0.174228
575.2751	0.177521
575.5018	0.177690
575.7286	0.169457
575.9554	0.164432
576.1821	0.160865
576.4089	0.167451
576.6357	0.177669
576.8626	0.187169
577.0894	0.184044
577.3162	0.193882
577.5431	0.200553
577.7699	0.218350
577.9968	0.248665
578.2237	0.246174
578.4505	0.232388
578.6774	0.217864
578.9044	0.206422
579.1313	0.193777
579.3582	0.199455
579.5851	0.204184
579.8121	0.209821
580.0391	0.212629
580.2660	0.215922
580.4930	0.208449
580.7200	0.205472
580.9470	0.209610
581.1741	0.243049
581.4011	0.290528
581.6281	0.321349
581.8552	0.325656
582.0822	0.321582
582.3093	0.311512
582.5364	0.290485
582.7635	0.260212
582.9906	0.241930
583.2177	0.228757
583.4449	0.213325
583.6720	0.198822
583.8991	0.196289
584.1263	0.199835
584.3535	0.201756
584.5807	0.201968
584.8079	0.214465
585.0351	0.227068
585.2623	0.243155
585.4895	0.239819
585.7167	0.237075
585.9440	0.230362
586.1713	0.219785
586.3985	0.210011
586.6258	0.201419
586.8531	0.201651
587.0804	0.216196
587.3077	0.227216
587.5350	0.227427
587.7624	0.232050
587.9897	0.222530
588.2171	0.206527
588.4445	0.204438
588.6718	0.198210
588.8992	0.188773
589.1266	0.180054
589.3540	0.169056
589.5815	0.166881
589.8089	0.167662
590.0363	0.164010
590.2638	0.158606
590.4913	0.151871
590.7187	0.152843
590.9462	0.139353
591.1737	0.135046
591.4012	0.135363
591.6288	0.133421
591.8563	0.135869
592.0838	0.129283
592.3114	0.137981
592.5389	0.154426
592.7665	0.181406
592.9941	0.203150
593.2217	0.209610
593.4493	0.203255
593.6769	0.201250
593.9046	0.196669
594.1322	0.185459
594.3598	0.171167
594.5875	0.173806
594.8152	0.184973
595.0429	0.197112
595.2705	0.204121
595.4983	0.196838
595.7260	0.184382
595.9537	0.175558
596.1814	0.164686
596.4092	0.154173
596.6369	0.148705
596.8647	0.148853
597.0925	0.146699
597.3203	0.149317
597.5481	0.148789
597.7759	0.156453
598.0037	0.149993
598.2315	0.140767
598.4594	0.145179
598.6872	0.158606
598.9151	0.179949
599.1430	0.187633
599.3709	0.185733
599.5988	0.179801
599.8267	0.176170
600.0546	0.184657
600.2825	0.187422
600.5105	0.188583
600.7384	0.185459
600.9664	0.186282
601.1944	0.192383
601.4223	0.190694
601.6503	0.184277
601.8783	0.174439
602.1064	0.171842
602.3344	0.169267
602.5624	0.168380
602.7905	0.173806
603.0185	0.175769
603.2466	0.184614
603.4747	0.193143
603.7028	0.190884
603.9309	0.185543
604.1590	0.177922
604.3871	0.171505
604.6152	0.166459
604.8434	0.160295
605.0715	0.156347
605.2997	0.160654
605.5279	0.165382
605.7561	0.175410
605.9843	0.180054
606.2125	0.175875
606.4407	0.163862
606.6689	0.161181
606.8972	0.158374
607.1254	0.155840
607.3537	0.159640
607.5819	0.163461
607.8102	0.161329
608.0385	0.155629
608.2668	0.150879
608.4951	0.150753
608.7235	0.147924
608.9518	0.145876
609.1801	0.139479
609.4085	0.132365
609.6369	0.131732
609.8653	0.141063
610.0936	0.147860
610.3220	0.151639
610.5505	0.147649
610.7789	0.142203
611.0073	0.139311
611.2357	0.136059
611.4642	0.137748
611.6927	0.139606
611.9211	0.139585
612.1496	0.133421
612.3781	0.128671
612.6066	0.130338
612.8351	0.130423
613.0637	0.131922
613.2922	0.128924
613.5208	0.132471
613.7493	0.126855
613.9779	0.130254
614.2065	0.130887
614.4351	0.129621
614.6637	0.127995
614.8923	0.128080
615.1209	0.124913
615.3495	0.131626
615.5782	0.133716
615.8068	0.131732
616.0355	0.126285
616.2642	0.119635
616.4929	0.116321
616.7216	0.114104
616.9503	0.111571
617.1790	0.111529
617.4077	0.110346
617.6365	0.108742
617.8652	0.116173
618.0940	0.112795
618.3227	0.110579
618.5515	0.105174
618.7803	0.096287
619.0091	0.093078
619.2379	0.092402
619.4667	0.089193
619.6956	0.090713
619.9244	0.094450
620.1533	0.096667
620.3821	0.096287
620.6110	0.097997
620.8399	0.087863
621.0688	0.080728
621.2977	0.075324
621.5266	0.075598
621.7556	0.077941
621.9845	0.083430
622.2135	0.087800
622.4424	0.086048
622.6714	0.085921
622.9004	0.088074
623.1294	0.088729
623.3584	0.089067
623.5874	0.092550
623.8164	0.087378
624.0454	0.087124
624.2745	0.088096
624.5035	0.090734
624.7326	0.091199
624.9617	0.089024
625.1908	0.086913
625.4199	0.085119
625.6490	0.082649
625.8781	0.080475
626.1072	0.076654
626.3364	0.076358
626.5655	0.073402
626.7947	0.069560
627.0238	0.069075
627.2530	0.070932
627.4822	0.071714
627.7114	0.072558
627.9406	0.068104
628.1698	0.064388
628.3991	0.064261
628.6283	0.058435
628.8576	0.059891
629.0868	0.059153
629.3161	0.063290
629.5454	0.062847
629.7747	0.064684
630.0040	0.062678
630.2333	0.061559
630.4626	0.061454
630.6920	0.058688
630.9213	0.057759
631.1507	0.056767
631.3801	0.053854
631.6094	0.053748
631.8388	0.054825
632.0682	0.053833
632.2976	0.053220
632.5271	0.049695
632.7565	0.049209
632.9859	0.046359
633.2154	0.045072
633.4448	0.046634
633.6743	0.044438
633.9038	0.042855
634.1333	0.046317
634.3628	0.041082
634.5923	0.042327
634.8218	0.044713
635.0514	0.042559
635.2809	0.040871
635.5105	0.039013
635.7400	0.041736
635.9696	0.041842
636.1992	0.041884
636.4288	0.045388
636.6584	0.047267
636.8880	0.047457
637.1177	0.046001
637.3473	0.041061
637.5770	0.040765
637.8066	0.041018
638.0363	0.041905
638.2660	0.043214
638.4957	0.042982
638.7254	0.042391
638.9551	0.044079
639.1848	0.044628
639.4145	0.039224
639.6443	0.038912
639.8740	0.038465
640.1038	0.036543
640.3336	0.038823
640.5633	0.038518
640.7931	0.036541
641.0229	0.036949
641.2528	0.036093
641.4826	0.033516
641.7124	0.031385
641.9423	0.031040
642.1721	0.030862
642.4020	0.030356
642.6319	0.029183
642.8617	0.031843
643.0916	0.030508
643.3216	0.028525
643.5515	0.029093
643.7814	0.029373
644.0113	0.029840
644.2413	0.029267
644.4712	0.028775
644.7012	0.027589
644.9312	0.028390
645.1612	0.027927
645.3912	0.028221
645.6212	0.026991
645.8512	0.026697
646.0812	0.026033
646.3113	0.027063
646.5413	0.023218
646.7714	0.023291
647.0015	0.024950
647.2316	0.024865
647.4616	0.024949
647.6918	0.025997
647.9219	0.027701
648.1520	0.029470
648.3821	0.031410
648.6123	0.030864
648.8424	0.034284
649.0726	0.033820
649.3028	0.034965
649.5329	0.032403
649.7631	0.034229
649.9933	0.030555
650.2236	0.028534
650.4538	0.030949
650.6840	0.030767
650.9143	0.029388
651.1445	0.028819
651.3748	0.029923
651.6051	0.028471
651.8354	0.030626
652.0657	0.030781
652.2960	0.030106
652.5263	0.031489
652.7566	0.032340
652.9870	0.033247
653.2173	0.032372
653.4477	0.033089
653.6780	0.032487
653.9084	0.030975
654.1388	0.032762
654.3692	0.035178
654.5996	0.035877
654.8300	0.040521
655.0605	0.066821
655.2909	0.192573
655.5213	0.528013
655.7518	0.957741
655.9823	1.000000
656.2128	1.000000
656.4433	1.000000
656.6738	1.000000
656.9043	1.000000
657.1348	0.869225
657.3653	0.722533
657.5959	0.622877
657.8264	0.543894
658.0570	0.490329
658.2875	0.458545
658.5181	0.416564
658.7487	0.386258
658.9793	0.372455
659.2099	0.331649
659.4406	0.253227
659.6712	0.164266
659.9018	0.099243
660.1325	0.058986
660.3632	0.038830
660.5938	0.029834
660.8245	0.027738
661.0552	0.025581
661.2859	0.025896
661.5166	0.023358
661.7474	0.022366
661.9781	0.021194
662.2088	0.021249
662.4396	0.021745
662.6704	0.022742
662.9011	0.022848
663.1319	0.022526
663.3627	0.022970
663.5935	0.019786
663.8243	0.021482
664.0552	0.023609
664.2860	0.022421
664.5168	0.022487
664.7477	0.021246
664.9786	0.023156
665.2094	0.023764
665.4403	0.023025
665.6712	0.024406
665.9021	0.024794
666.1330	0.023941
666.3640	0.022566
666.5949	0.023746
666.8259	0.021646
667.0568	0.022120
667.2878	0.021342
667.5188	0.019699
667.7497	0.021490
667.9807	0.022676
668.2117	0.020187
668.4428	0.021153
668.6738	0.020646
668.9048	0.022145
669.1359	0.020435
669.3669	0.020668
669.5980	0.019506
669.8291	0.022019
670.0602	0.021829
670.2913	0.022356
670.5224	0.022715
670.7535	0.020773
670.9846	0.020836
671.2157	0.023201
671.4469	0.026093
671.6781	0.031941
671.9092	0.031181
672.1404	0.031139
672.3716	0.034812
672.6028	0.035593
672.8340	0.034390
673.0652	0.031835
673.2964	0.034622
673.5277	0.032300
673.7589	0.028901
673.9902	0.029935
674.2214	0.031075
674.4527	0.028732
674.6840	0.027254
674.9153	0.024552
675.1466	0.026431
675.3779	0.028795
675.6093	0.027043
675.8406	0.026262
676.0719	0.025945
676.3033	0.024425
676.5347	0.023750
676.7661	0.025460
676.9974	0.023496
677.2288	0.024299
677.4602	0.025671
677.6917	0.026642
677.9231	0.027212
678.1545	0.029745
678.3860	0.030505
678.6174	0.028162
678.8489	0.028647
679.0804	0.032912
679.3119	0.034622
679.5434	0.034896
679.7749	0.036437
680.0064	0.034305
680.2379	0.034727
680.4694	0.035065
680.7010	0.034368
680.9325	0.034305
681.1641	0.033862
681.3957	0.034748
681.6273	0.035297
681.8589	0.034727
682.0905	0.033144
682.3221	0.033630
682.5537	0.030949
682.7854	0.031540
683.0170	0.030400
683.2487	0.030062
683.4803	0.032300
683.7120	0.032933
683.9437	0.030083
684.1754	0.034791
684.4071	0.035910
684.6388	0.036226
684.8705	0.038295
685.1023	0.041208
685.3340	0.044417
685.5658	0.046127
685.7975	0.046803
686.0293	0.043868
686.2611	0.044713
686.4929	0.044713
686.7247	0.043784
686.9565	0.044185
687.1883	0.043573
687.4202	0.046824
687.6520	0.041124
687.8838	0.041567
688.1157	0.038422
688.3476	0.040702
688.5795	0.037197
688.8114	0.038084
689.0433	0.038886
689.2752	0.036015
689.5071	0.037577
689.7390	0.036416
689.9710	0.035487
690.2029	0.034580
690.4349	0.034622
690.6669	0.035255
690.8988	0.036374
691.1308	0.037493
691.3628	0.040828
691.5948	0.038738
691.8269	0.036564
692.0589	0.038844
692.2909	0.035382
692.5230	0.036965
692.7550	0.036606
692.9871	0.039161
693.2192	0.039287
693.4513	0.041039
693.6834	0.038928
693.9155	0.038295
694.1476	0.035213
694.3797	0.033883
694.6119	0.033186
694.8440	0.036311
695.0762	0.035530
695.3083	0.035487
695.5405	0.032743
695.7727	0.030526
696.0049	0.029492
696.2371	0.030590
696.4693	0.029049
696.7016	0.035171
696.9338	0.038084
697.1660	0.040132
697.3983	0.040512
697.6306	0.038570
697.8628	0.036796
698.0951	0.036078
698.3274	0.037134
698.5597	0.035762
698.7920	0.038717
699.0243	0.038042
699.2567	0.036226
699.4890	0.035994
699.7214	0.033334
699.9537	0.034284
700.1861	0.032384
700.4185	0.031920
700.6509	0.030695
700.8833	0.030759
701.1157	0.030442
701.3481	0.027993
701.5806	0.027317
701.8130	0.029006
702.0454	0.029555
702.2779	0.029745
702.5104	0.030294
702.7429	0.030949
702.9753	0.031877
703.2078	0.029049
703.4403	0.029597
703.6729	0.028584
703.9054	0.028922
704.1379	0.026937
704.3705	0.027191
704.6030	0.026874
704.8356	0.025797
705.0682	0.024953
705.3008	0.025059
705.5334	0.024087
705.7660	0.025460
705.9986	0.026156
706.2312	0.027529
706.4638	0.029471
706.6965	0.035171
706.9291	0.036374
707.1618	0.037113
707.3945	0.039794
707.6272	0.040638
707.8599	0.037282
708.0926	0.038717
708.3253	0.038105
708.5580	0.036142
708.7907	0.036585
709.0235	0.036311
709.2562	0.036311
709.4890	0.031835
709.7217	0.033397
709.9545	0.034643
710.1873	0.034474
710.4201	0.036057
710.6529	0.036838
710.8857	0.035466
711.1186	0.032553
711.3514	0.033186
711.5842	0.031582
711.8171	0.029745
712.0500	0.029682
712.2828	0.028880
712.5157	0.027761
712.7486	0.029217
712.9815	0.030210
713.2144	0.028647
713.4474	0.032891
713.6803	0.032321
713.9132	0.033418
714.1462	0.033693
714.3791	0.034010
714.6121	0.033946
714.8451	0.034833
715.0781	0.035888
715.3111	0.035361
715.5441	0.034010
715.7771	0.034580
716.0102	0.030484
716.2432	0.029640
716.4762	0.028563
716.7093	0.027719
716.9424	0.028457
717.1754	0.026346
717.4085	0.026790
717.6416	0.025692
717.8747	0.027486
718.1078	0.027993
718.3410	0.030020
718.5741	0.031286
718.8072	0.027296
719.0404	0.029365
719.2736	0.032511
719.5067	0.030125
719.7399	0.028985
719.9731	0.029281
720.2063	0.029049
720.4395	0.028289
720.6727	0.030737
720.9060	0.028120
721.1392	0.028521
721.3725	0.031139
721.6057	0.030780
721.8390	0.030632
722.0723	0.028162
722.3055	0.029450
722.5388	0.028204
722.7721	0.028373
723.0055	0.029851
723.2388	0.027191
723.4721	0.030189
723.7055	0.029323
723.9388	0.027149
724.1722	0.027887
724.4056	0.027592
724.6389	0.027951
724.8723	0.027761
725.1057	0.030020
725.3391	0.031962
725.5726	0.032278
725.8060	0.035825
726.0394	0.033123
726.2729	0.034664
726.5063	0.032806
726.7398	0.035846
726.9733	0.031519
727.2068	0.031877
727.4403	0.031561
727.6738	0.032236
727.9073	0.032891
728.1408	0.034770
728.3743	0.034685
728.6079	0.032574
728.8414	0.033102
729.0750	0.034706
729.3086	0.036184
729.5421	0.037240
729.7757	0.035128
730.0093	0.038591
730.2429	0.037788
730.4766	0.036817
730.7102	0.039583
730.9438	0.041588
731.1775	0.042855
731.4111	0.041398
731.6448	0.043531
731.8785	0.044818
732.1122	0.040828
732.3458	0.042222
732.5795	0.041335
732.8133	0.043446
733.0470	0.041567
733.2807	0.043024
733.5145	0.043784
733.7482	0.045726
733.9820	0.049294
734.2157	0.049315
734.4495	0.051743
734.6833	0.052439
734.9171	0.049062
735.1509	0.047457
735.3847	0.049252
735.6185	0.048323
735.8524	0.050877
736.0862	0.047879
736.3201	0.049273
736.5539	0.048133
736.7878	0.047309
737.0217	0.048829
737.2556	0.048787
737.4895	0.048956
737.7234	0.046697
737.9573	0.042707
738.1912	0.042306
738.4252	0.040470
738.6591	0.042391
738.8931	0.043362
739.1271	0.044248
739.3610	0.046824
739.5950	0.044164
739.8290	0.046507
740.0630	0.043742
740.2970	0.040470
740.5310	0.040111
740.7651	0.039710
740.9991	0.040195
741.2332	0.038443
741.4672	0.034643
741.7013	0.035551
741.9354	0.036395
742.1695	0.035424
742.4036	0.034094
742.6377	0.036712
742.8718	0.034347
743.1059	0.034368
743.3400	0.030231
743.5742	0.033228
743.8083	0.031265
744.0425	0.029703
744.2767	0.029006
744.5108	0.029977
744.7450	0.028626
744.9792	0.030357
745.2134	0.028774
745.4477	0.028225
745.6819	0.029049
745.9161	0.028985
746.1504	0.028605
746.3846	0.028964
746.6189	0.027782
746.8532	0.028563
747.0874	0.030611
747.3217	0.030484
747.5560	0.034136
747.7903	0.034474
748.0247	0.032215
748.2590	0.029302
748.4933	0.028225
748.7277	0.030167
748.9620	0.029049
749.1964	0.031772
749.4308	0.033165
749.6652	0.034516
749.8995	0.037050
750.1339	0.038928
750.3684	0.040913
750.6028	0.040892
750.8372	0.040660
751.0717	0.039013
751.3061	0.039625
751.5406	0.036944
751.7750	0.038717
752.0095	0.039435
752.2440	0.039921
752.4785	0.039878
752.7130	0.038063
752.9475	0.036965
753.1820	0.036817
753.4166	0.037577
753.6511	0.042179
753.8856	0.042581
754.1202	0.041504
754.3548	0.039498
754.5894	0.041968
754.8239	0.038928
755.0585	0.038886
755.2931	0.043129
755.5278	0.040997
755.7624	0.044649
755.9970	0.042918
756.2317	0.045789
756.4663	0.049758
756.7010	0.049484
756.9356	0.052144
757.1703	0.052228
757.4050	0.056577
757.6397	0.058920
757.8744	0.059300
758.1091	0.058540
758.3438	0.056197
758.5786	0.055796
758.8133	0.054382
759.0481	0.051869
759.2828	0.057358
759.5176	0.059870
759.7524	0.060187
759.9872	0.059343
760.2220	0.062108
760.4568	0.063691
760.6916	0.064071
760.9264	0.061623
761.1613	0.061749
761.3961	0.059195
761.6310	0.057210
761.8658	0.052819
762.1007	0.051109
762.3356	0.050370
762.5705	0.050075
762.8054	0.049653
763.0403	0.049421
763.2752	0.049209
763.5101	0.050539
763.7450	0.052186
763.9800	0.051384
764.2149	0.050117
764.4499	0.056683
764.6849	0.057527
764.9198	0.059385
765.1548	0.061031
765.3898	0.055163
765.6248	0.055500
765.8599	0.054508
766.0949	0.050328
766.3299	0.044882
766.5650	0.041884
766.8000	0.042285
767.0351	0.038865
767.2701	0.038717
767.5052	0.039942
767.7403	0.038506
767.9754	0.041884
768.2105	0.044354
768.4456	0.044628
768.6808	0.046064
768.9159	0.047605
769.1510	0.048492
769.3862	0.046951
769.6214	0.043995
769.8565	0.044797
770.0917	0.044734
770.3269	0.044206
770.5621	0.045916
770.7973	0.047795
771.0325	0.047119
771.2677	0.045705
771.5030	0.045958
771.7382	0.046043
771.9735	0.042496
772.2087	0.043024
772.4440	0.041652
772.6793	0.041799
772.9146	0.041082
773.1499	0.039836
773.3852	0.038971
773.6205	0.038738
773.8558	0.039435
774.0911	0.037683
774.3265	0.034664
774.5618	0.034031
774.7972	0.033418
775.0326	0.031540
775.2679	0.028626
775.5033	0.029260
775.7387	0.031265
775.9741	0.026853
776.2095	0.026916
776.4450	0.026769
776.6804	0.025523
776.9158	0.027317
777.1513	0.025206
777.3868	0.025122
777.6222	0.024172
777.8577	0.023095
778.0932	0.024826
778.3287	0.024953
778.5642	0.028394
778.7997	0.029534
779.0352	0.028014
779.2707	0.029260
779.5063	0.033988
779.7418	0.031117
779.9774	0.031709
780.2130	0.029682
780.4485	0.028880
780.6841	0.027085
780.9197	0.029429
781.1553	0.032743
781.3909	0.034284
781.6265	0.037197
781.8622	0.034368
782.0978	0.034558
782.3335	0.034917
782.5691	0.035234
782.8048	0.035825
783.0405	0.032236
783.2761	0.034791
783.5118	0.035762
783.7475	0.034748
783.9832	0.032743
784.2190	0.034284
784.4547	0.030547
784.6904	0.028795
784.9262	0.027191
785.1619	0.031434
785.3977	0.030231
785.6335	0.027444
785.8692	0.029323
786.1050	0.030653
786.3408	0.030020
786.5766	0.029049
786.8124	0.027254
787.0483	0.027339
787.2841	0.026747
787.5199	0.029386
787.7558	0.029513
787.9917	0.031329
788.2275	0.030463
788.4634	0.029872
788.6993	0.029872
788.9352	0.032806
789.1711	0.031455
789.4070	0.028225
789.6429	0.029006
789.8789	0.026663
790.1148	0.026536
790.3507	0.025227
790.5867	0.025797
790.8227	0.024679
791.0586	0.024109
791.2946	0.023940
791.5306	0.024531
791.7666	0.024932
792.0026	0.024235
792.2387	0.022209
792.4747	0.023349
792.7107	0.024151
792.9468	0.023813
793.1828	0.020836
793.4189	0.022082
793.6550	0.026684
793.8910	0.026051
794.1271	0.029175
794.3632	0.032152
794.5993	0.032426
794.8355	0.032490
795.0716	0.033186
795.3077	0.031709
795.5439	0.031645
795.7800	0.029407
796.0162	0.027360
796.2523	0.024826
796.4885	0.022990
796.7247	0.020731
796.9609	0.023306
797.1971	0.021512
797.4333	0.024045
797.6695	0.023412
797.9058	0.024024
798.1420	0.023412
798.3783	0.024256
798.6145	0.022420
798.8508	0.021069
799.0871	0.023180
799.3233	0.021892
799.5596	0.022314
799.7959	0.022040
800.0322	0.022019
800.2686	0.020435
800.5049	0.019696
800.7412	0.019612
800.9776	0.019211
801.2139	0.020625
801.4503	0.017881
801.6867	0.019718
801.9230	0.016889
802.1594	0.017860
802.3958	0.017395
802.6322	0.017332
802.8686	0.016931
803.1051	0.017965
803.3415	0.018008
803.5779	0.017670
803.8144	0.017818
804.0508	0.017501
804.2873	0.016150
804.5238	0.017754
804.7603	0.016973
804.9968	0.017459
805.2333	0.017100
805.4698	0.016804
805.7063	0.017733
805.9428	0.020794
806.1794	0.022399
806.4159	0.024383
806.6525	0.024932
806.8890	0.024573
807.1256	0.023475
807.3622	0.023729
807.5988	0.025354
807.8354	0.023475
808.0720	0.021955
808.3086	0.022589
808.5452	0.023222
808.7818	0.023813
809.0185	0.021111
809.2551	0.021470
809.4918	0.022209
809.7284	0.020140
809.9651	0.019971
810.2018	0.019865
810.4385	0.019612
810.6752	0.019570
810.9119	0.018599
811.1486	0.020245
811.3853	0.018071
811.6221	0.018979
811.8588	0.018050
812.0956	0.015833
812.3323	0.014419
812.5691	0.016424
812.8059	0.015031
813.0427	0.012519
813.2795	0.014925
813.5163	0.017902
813.7531	0.018662
813.9899	0.018514
814.2267	0.019865
814.4636	0.018134
814.7004	0.017733
814.9373	0.018282
815.1742	0.014904
815.4110	0.016762
815.6479	0.014292
815.8848	0.013806
816.1217	0.014925
816.3586	0.014841
816.5955	0.013258
816.8324	0.015010
817.0694	0.014524
817.3063	0.013806
817.5433	0.013849
817.7802	0.015538
818.0172	0.014334
818.2542	0.015010
818.4912	0.013595
818.7282	0.013279
818.9652	0.012498
819.2022	0.012983
819.4392	0.012603
819.6762	0.012519
819.9133	0.013363
820.1503	0.012603
820.3874	0.013173
820.6244	0.016952
820.8615	0.015390
821.0986	0.015453
821.3357	0.014862
821.5727	0.014482
821.8099	0.015580
822.0470	0.013891
822.2841	0.014989
822.5212	0.013617
822.7584	0.012962
822.9955	0.013363
823.2327	0.013047
823.4698	0.010851
823.7070	0.012308
823.9442	0.010555
824.1814	0.012878
824.4186	0.010534
824.6558	0.011505
824.8930	0.011210
825.1302	0.012160
825.3675	0.012160
825.6047	0.013891
825.8419	0.014440
826.0792	0.012941
826.3165	0.013110
826.5537	0.011252
826.7910	0.012772
827.0283	0.013300
827.2656	0.012730
827.5029	0.014376
827.7402	0.013954
827.9776	0.012751
828.2149	0.011738
828.4522	0.010893
828.6896	0.012751
828.9270	0.011590
829.1643	0.011294
829.4017	0.012561
829.6391	0.012751
829.8765	0.011294
830.1139	0.011358
830.3513	0.010724
830.5887	0.008719
830.8261	0.008128
831.0636	0.008444
831.3010	0.008698
831.5385	0.011020
831.7759	0.007009
832.0134	0.007494
832.2509	0.007452
832.4884	0.007980
832.7259	0.008128
832.9634	0.008487
833.2009	0.009204
833.4384	0.009500
833.6759	0.009373
833.9135	0.009838
834.1510	0.009880
834.3886	0.009458
834.6261	0.011780
834.8637	0.008993
835.1013	0.010534
835.3389	0.008001
835.5765	0.010133
835.8141	0.010091
836.0517	0.009711
836.2893	0.007262
836.5269	0.008297
836.7646	0.008339
837.0022	0.008339
837.2399	0.007368
837.4775	0.007283
837.7152	0.006333
837.9529	0.006734
838.1906	0.005995
838.4283	0.007220
838.6660	0.006861
838.9037	0.008381
839.1414	0.005953
839.3791	0.007769
839.6169	0.009711
839.8546	0.007347
840.0924	0.008254
840.3302	0.008275
840.5679	0.007684
840.8057	0.006228
841.0435	0.007178
841.2813	0.007389
841.5191	0.005974
841.7569	0.006713
841.9947	0.006059
842.2326	0.007642
842.4704	0.005700
842.7082	0.005953
842.9461	0.006819
843.1840	0.005067
843.4218	0.005341
843.6597	0.005932
843.8976	0.004349
844.1355	0.006164
844.3734	0.005404
844.6113	0.005489
844.8492	0.003990
845.0872	0.005193
845.3251	0.005679
845.5631	0.004940
845.8010	0.005700
846.0390	0.006439
846.2770	0.004138
846.5149	0.006671
846.7529	0.004898
846.9909	0.004370
847.2289	0.004370
847.4669	0.006101
847.7050	0.004243
847.9430	0.005763
848.1810	0.005235
848.4191	0.004011
848.6571	0.003969
848.8952	0.006122
849.1333	0.003969
849.3713	0.004518
849.6094	0.003568
849.8475	0.003821
850.0856	0.002871
850.3237	0.003547
850.5619	0.004792
850.8000	0.004771
851.0381	0.004138
851.2763	0.004264
851.5144	0.003188
851.7526	0.005953
851.9908	0.006164
852.2289	0.005869
852.4671	0.006840
852.7053	0.007895
852.9435	0.009690
853.1817	0.010978
853.4200	0.013870
853.6582	0.013785
853.8964	0.013047
854.1347	0.014165
854.3729	0.014018
854.6112	0.014123
854.8495	0.013532
855.0877	0.013131
855.3260	0.014165
855.5643	0.014566
855.8026	0.012329
856.0409	0.014250
856.2792	0.014292
856.5176	0.011907
856.7559	0.011674
856.9942	0.010513
857.2326	0.011569
857.4710	0.009247
857.7093	0.010682
857.9477	0.010450
858.1861	0.010154
858.4245	0.009774
858.6629	0.008740
858.9013	0.009500
859.1397	0.009057
859.3781	0.009183
859.6166	0.008677
859.8550	0.006734
860.0935	0.007621
860.3319	0.009479
860.5704	0.007093
860.8089	0.007473
861.0473	0.007114
861.2858	0.006608
861.5243	0.006418
861.7628	0.005953
862.0013	0.006587
862.2399	0.006439
862.4784	0.005172
862.7169	0.006861
862.9555	0.005573
863.1940	0.007199
863.4326	0.007727
863.6712	0.007389
863.9098	0.006671
864.1483	0.005995
864.3869	0.005320
864.6255	0.007220
864.8642	0.006143
865.1028	0.006861
865.3414	0.005784
865.5800	0.006122
865.8187	0.005447
866.0573	0.005193
866.2960	0.005489
866.5347	0.004201
866.7733	0.005700
867.0120	0.005447
867.2507	0.006544
867.4894	0.005003
867.7281	0.004982
867.9669	0.005658
868.2056	0.005658
868.4443	0.004982
868.6831	0.005995
868.9218	0.005615
869.1606	0.004286
869.3993	0.004982
869.6381	0.003948
869.8769	0.005024
870.1157	0.004919
870.3545	0.005742
870.5933	0.004074
870.8321	0.006397
871.0709	0.005531
871.3097	0.006608
871.5486	0.006544
871.7874	0.005489
872.0263	0.002787
872.2651	0.005911
872.5040	0.004138
872.7429	0.004117
872.9818	0.005193
873.2207	0.005109
873.4596	0.005742
873.6985	0.006291
873.9374	0.004898
874.1763	0.004581
874.4153	0.004961
874.6542	0.006164
874.8932	0.005299
875.1321	0.005299
875.3711	0.006038
875.6101	0.006122
875.8491	0.005742
876.0880	0.005531
876.3270	0.005341
876.5661	0.005489
876.8051	0.005320
877.0441	0.004011
877.2831	0.004940
877.5222	0.005235
877.7612	0.006798
878.0003	0.006228
878.2393	0.008022
878.4784	0.006777
878.7175	0.005700
878.9566	0.006523
879.1957	0.006101
879.4348	0.007494
879.6739	0.005995
879.9130	0.006967
880.1521	0.007874
880.3913	0.007600
880.6304	0.009183
880.8696	0.007959
881.1087	0.008043
881.3479	0.007093
881.5871	0.007769
881.8262	0.005658
882.0654	0.008698
882.3046	0.007473
882.5438	0.005953
882.7831	0.005151
883.0223	0.006777
883.2615	0.006608
883.5007	0.007705
883.7400	0.007790
883.9792	0.007347
884.2185	0.006544
884.4578	0.006375
884.6971	0.005573
884.9363	0.005637
885.1756	0.005848
885.4149	0.005784
885.6542	0.005995
885.8936	0.007748
886.1329	0.006629
886.3722	0.006629
886.6116	0.005742
886.8509	0.006397
887.0903	0.006861
887.3296	0.007790
887.5690	0.005109
887.8084	0.005679
888.0478	0.006692
888.2872	0.003589
888.5266	0.005278
888.7660	0.003610
889.0054	0.006038
889.2448	0.006608
889.4843	0.006080
889.7237	0.005193
889.9632	0.004011
890.2026	0.006502
890.4421	0.003948
890.6816	0.004560
890.9211	0.004729
891.1606	0.004961
891.4001	0.005109
891.6396	0.004518
891.8791	0.005995
892.1186	0.005489
892.3581	0.005489
892.5977	0.004349
892.8372	0.004855
893.0768	0.004391
893.3163	0.004264
893.5559	0.005700
893.7955	0.004454
894.0351	0.004792
894.2747	0.003589
894.5143	0.005130
894.7539	0.003040
894.9935	0.003209
895.2331	0.003040
895.4727	0.006017
895.7124	0.004518
895.9520	0.004117
896.1917	0.005341
896.4314	0.004771
896.6710	0.005045
896.9107	0.004855
897.1504	0.003019
897.3901	0.005531
897.6298	0.005130
897.8695	0.004433
898.1092	0.005109
898.3489	0.005024
898.5887	0.004159
898.8284	0.006207
899.0682	0.004687
899.3079	0.004476
899.5477	0.004370
899.7875	0.005067
900.0272	0.003737
900.2670	0.003716
900.5068	0.004222
900.7466	0.005848
900.9864	0.002892
901.2263	0.004243
901.4661	0.003547
901.7059	0.005932
901.9458	0.002597
902.1856	0.002322
902.4255	0.004286
902.6654	0.005447
902.9052	0.005447
903.1451	0.004813
903.3850	0.003694
903.6249	0.003251
903.8648	0.005257
904.1047	0.003842
904.3446	0.005700
904.5846	0.005827
904.8245	0.003948
905.0644	0.005067
905.3044	0.003779
905.5444	0.005151
905.7843	0.006017
906.0243	0.005299
906.2643	0.005214
906.5043	0.003631
906.7443	0.003990
906.9843	0.004074
907.2243	0.003842
907.4643	0.003399
907.7043	0.003673
907.9444	0.003040
908.1844	0.004665
908.4245	0.004222
908.6645	0.003927
908.9046	0.004834
909.1447	0.003927
909.3847	0.003589
909.6248	0.003504
909.8649	0.004096
910.1050	0.003082
910.3452	0.004412
910.5853	0.003779
910.8254	0.003589
911.0655	0.004813
911.3057	0.003716
911.5458	0.003673
911.7860	0.003040
912.0262	0.004539
912.2663	0.003631
912.5065	0.004074
912.7467	0.004665
912.9869	0.005024
913.2271	0.005151
913.4673	0.004328
913.7075	0.003906
913.9478	0.002787
914.1880	0.004750
914.4283	0.001583
914.6685	0.001921
914.9088	0.002238
915.1490	0.003863
915.3893	0.001457
915.6296	0.004286
915.8699	0.003061
916.1102	0.003082
916.3505	0.003906
916.5908	0.003884
916.8311	0.002744
917.0714	0.004750
917.3118	0.005763
917.5521	0.004602
917.7925	0.003737
918.0328	0.004919
918.2732	0.003716
918.5136	0.003716
918.7539	0.003990
918.9943	0.003821
919.2347	0.004792
919.4751	0.004581
919.7155	0.004855
919.9560	0.004813
920.1964	0.002512
920.4368	0.002977
920.6773	0.003251
920.9177	0.004307
921.1582	0.003800
921.3986	0.002850
921.6391	0.002744
921.8796	0.002829
922.1201	0.003631
922.3606	0.004011
922.6011	0.002533
922.8416	0.001816
923.0821	0.004201
923.3226	0.002512
923.5631	0.002744
923.8037	0.002090
924.0442	0.002407
924.2848	0.005088
924.5254	0.003462
924.7659	0.002470
925.0065	0.002850
925.2471	0.004117
925.4877	0.001626
925.7283	0.002533
925.9689	0.001626
926.2095	0.001330
926.4501	0.002132
926.6908	0.002660
926.9314	0.003124
927.1720	0.003483
927.4127	0.002386
927.6533	0.003589
927.8940	0.003040
928.1347	0.003504
928.3754	0.002364
928.6161	0.002301
928.8568	0.002618
929.0975	0.002027
929.3382	0.002259
929.5789	0.003842
929.8196	0.002238
930.0604	0.000739
930.3011	0.002153
930.5419	0.002639
930.7826	0.000042
931.0234	0.002554
931.2642	0.001816
931.5049	0.001900
931.7457	0.001731
931.9865	0.001752
932.2273	0.002027
932.4681	0.001541
932.7089	0.001288
932.9498	0.002829
933.1906	0.002428
933.4314	0.001731
933.6723	0.002196
933.9131	0.001752
934.1540	0.002132
934.3949	0.002027
934.6358	0.002153
934.8766	0.001224
935.1175	0.000654
935.3584	0.001689
935.5993	0.001140
935.8403	0.002322
936.0812	0.001098
936.3221	0.001436
936.5630	0.000676
936.8040	0.001879
937.0449	0.000697
937.2859	0.003040
937.5269	0.001900
937.7678	0.002069
938.0088	0.002196
938.2498	0.000612
938.4908	0.002069
938.7318	0.001414
938.9728	0.002618
939.2138	0.003124
939.4549	0.001457
939.6959	-0.000844
939.9369	0.001963
940.1780	0.001879
940.4190	0.001246
940.6601	0.001457
940.9012	0.000781
941.1422	0.001119
941.3833	-0.000633
941.6244	0.000612
941.8655	0.001520
942.1066	0.000971
942.3477	0.002259
942.5889	0.001182
942.8300	0.001309
943.0711	0.000422
943.3123	0.002533
943.5534	0.000274
943.7946	0.001414
944.0357	0.000591
944.2769	0.002027
944.5181	0.000633
944.7593	0.001457
945.0005	0.001414
945.2417	0.001520
945.4829	0.000380
945.7241	0.001182
945.9653	0.001013
946.2066	0.000443
946.4478	-0.000042
946.6891	0.001182
946.9303	0.001478
947.1716	0.000823
947.4128	0.001816
947.6541	0.001794
947.8954	0.000380
948.1367	0.000317
948.3780	0.000380
948.6193	0.000992
948.8606	-0.000464
949.1019	-0.000127
949.3433	0.000296
949.5846	0.002027
949.8259	0.000992
950.0673	0.002111
950.3086	0.002238
950.5500	0.001161
950.7914	-0.000317
951.0327	0.001921
951.2741	0.000422
951.5155	0.002111
951.7569	0.001246
951.9983	0.000971
952.2398	0.001013
952.4812	0.002153
952.7226	0.001330
952.9640	0.002871
953.2055	0.001794
953.4469	0.002069
953.6884	0.000084
953.9299	0.001267
954.1713	0.001436
954.4128	0.002660
954.6543	0.001562
954.8958	0.001583
955.1373	-0.000760
955.3788	0.001119
955.6203	-0.001013
955.8618	0.002111
956.1034	0.001267
956.3449	0.001478
956.5865	0.000507
956.8280	0.001520
957.0696	0.001330
957.3111	0.000253
957.5527	0.000063
957.7943	0.000127
958.0359	0.000760
958.2775	0.000084
958.5191	-0.000486
958.7607	0.001457
959.0023	0.000570
959.2439	-0.000802
959.4856	-0.000148
959.7272	0.000633
959.9688	0.000359
960.2105	-0.000021
960.4522	-0.000380
960.6938	0.000633
960.9355	0.000464
961.1772	0.001541
961.4189	-0.000296
961.6606	0.001119
961.9023	0.000232
962.1440	0.000317
962.3857	0.000443
962.6274	0.001246
962.8692	0.000570
963.1109	0.000676
963.3527	0.000253
963.5944	0.000528
963.8362	0.001267
964.0779	-0.000443
964.3197	0.000654
964.5615	0.000380
964.8033	0.000422
965.0451	0.000232
965.2869	-0.000021
965.5287	0.002090
965.7705	0.002618
966.0123	0.001731
966.2542	0.000042
966.4960	0.001963
966.7379	-0.000338
966.9797	-0.000296
967.2216	0.000549
967.4634	0.000528
967.7053	0.000676
967.9472	0.000507
968.1891	0.000042
968.4310	0.000084
968.6729	0.001731
968.9148	0.000591
969.1567	0.000443
969.3987	0.001478
969.6406	0.000760
969.8825	0.001288
970.1245	0.000760
970.3664	0.000000
970.6084	0.001457
970.8504	0.000718
971.0923	-0.000084
971.3343	0.001203
971.5763	0.000549
971.8183	-0.000190
972.0603	0.000169
972.3023	0.000781
972.5443	0.000380
972.7864	0.000274
973.0284	0.000338
973.2704	0.000000
973.5125	-0.000507
973.7545	0.001077
973.9966	0.000232
974.2387	-0.000486
974.4807	0.002386
974.7228	0.000612
974.9649	0.001478
975.2070	0.000802
975.4491	0.001393
975.6912	0.000591
975.9333	-0.000486
976.1755	0.000380
976.4176	0.000591
976.6597	0.000422
976.9019	0.001647
977.1440	0.001710
977.3862	0.000549
977.6283	-0.000443
977.8705	-0.000253
978.1127	0.000781
978.3549	0.001520
978.5971	0.000823
978.8393	0.000464
979.0815	0.000211
979.3237	0.001436
979.5659	0.000063
979.8082	0.001077
980.0504	0.000528
980.2926	0.000380
980.5349	-0.000591
980.7771	0.000507
981.0194	0.000084
981.2617	0.000697
981.5040	0.000486
981.7462	-0.001393
981.9885	0.002069
982.2308	-0.000296
982.4731	0.000654
982.7155	0.001288
982.9578	0.001140
983.2001	0.000380
983.4424	0.001203
983.6848	0.000380
983.9271	0.000528
984.1695	0.000401
984.4118	-0.000718
984.6542	-0.000211
984.8966	0.000211
985.1390	-0.000380
985.3814	0.000169
985.6238	0.001224
985.8662	0.000633
986.1086	-0.000401
986.3510	0.000169
986.5934	-0.000253
986.8358	0.000127
987.0783	-0.000063
987.3207	-0.000317
987.5632	0.000844
987.8056	-0.000148
988.0481	-0.000992
988.2906	0.000106
988.5331	0.000338
988.7756	-0.000148
989.0180	0.000253
989.2605	0.000190
989.5031	0.000042
989.7456	0.000612
989.9881	-0.000823
990.2306	0.000232
990.4732	-0.001309
990.7157	-0.000612
990.9582	-0.001119
991.2008	0.001436
991.4434	-0.000148
991.6859	0.000000
991.9285	0.000464
992.1711	0.000127
992.4137	0.000591
992.6563	0.000127
992.8989	0.000106
993.1415	0.000929
993.3841	-0.000401
993.6267	-0.000042
993.8694	0.000063
994.1120	-0.000591
994.3547	0.001731
994.5973	-0.000549
994.8400	0.001034
995.0826	0.000718
995.3253	0.000127
995.5680	0.000549
995.8107	-0.000296
996.0534	0.000338
996.2961	0.000443
996.5388	0.000338
996.7815	0.000084
997.0242	-0.000760
997.2670	-0.001414
997.5097	-0.000464
997.7524	0.000676
997.9952	-0.000190
998.2379	-0.000528
998.4807	0.001203
998.7235	-0.000148
998.9662	0.000844
999.2090	0.001013
999.4518	0.001203
999.6946	-0.000422
999.9374	0.000380
1000.1802	0.000739
1000.4230	-0.000676
1000.6659	0.001034
1000.9087	0.001119
1001.1515	-0.001647
1001.3944	0.000211
1001.6372	-0.000528
1001.8801	0.000127
1002.1230	-0.000127
1002.3658	-0.000591
1002.6087	0.000000
1002.8516	-0.000338
1003.0945	-0.000676
1003.3374	0.001119
1003.5803	0.000084
1003.8232	-0.000718
1004.0661	-0.000232
1004.3091	0.000422
1004.5520	0.000866
1004.7949	-0.000084
1005.0379	-0.000464
1005.2808	-0.000063
1005.5238	0.000317
1005.7667	-0.001077
1006.0097	0.000232
1006.2527	0.000908
1006.4957	-0.001013
1006.7387	0.000274
1006.9817	-0.000063
1007.2247	-0.000338
1007.4677	0.001541
1007.7107	-0.000148
1007.9538	0.003188
1008.1968	0.000000
1008.4398	-0.001119
1008.6829	-0.000338
1008.9259	0.000844
1009.1690	-0.000950
1009.4121	-0.000443
1009.6551	0.000380
1009.8982	0.001098
1010.1413	0.000253
1010.3844	0.000127
1010.6275	-0.001858
1010.8706	-0.000718
1011.1137	0.000633
1011.3568	0.001077
1011.6000	-0.000697
1011.8431	0.000887
1012.0863	0.000844
1012.3294	-0.000507
1012.5726	-0.000021
1012.8157	0.001161
1013.0589	-0.001436
1013.3021	0.001140
1013.5452	-0.000253
1013.7884	-0.000148
1014.0316	0.000190
1014.2748	-0.000844
1014.5180	0.000950
1014.7613	0.001562
1015.0045	0.000274
1015.2477	0.001414
1015.4909	0.000887
1015.7342	-0.001098
1015.9774	-0.000781
1016.2207	0.001013
1016.4640	0.000549
1016.7072	-0.000148
1016.9505	0.000148
1017.1938	0.000380
1017.4371	-0.000844
1017.6804	0.001013
1017.9237	-0.000591
1018.1670	0.000908
1018.4103	0.000887
1018.6536	0.000781
1018.8969	0.001330
1019.1403	0.000296
1019.3836	-0.000148
1019.6270	0.000760
1019.8703	-0.000317
1020.1137	0.000823
1020.3571	0.000042
1020.6004	0.000739
1020.8438	-0.000317
1021.0872	0.001267
1021.3306	0.000190
1021.5740	-0.000887
1021.8174	-0.000866
1022.0608	-0.000338
1022.3042	-0.000781
1022.5477	-0.000591
1022.7911	-0.001077
1023.0345	-0.001457
