# Wavelength (nm)	Intensity (a.u.)
197.7802	-0.000025
197.9842	0.000229
198.1882	0.000123
198.3922	-0.001376
198.5963	-0.000320
198.8003	0.000102
199.0044	0.001221
199.2085	-0.000257
199.4126	0.001094
199.6168	-0.000236
199.8209	-0.000426
200.0251	0.000271
200.2292	0.000883
200.4334	0.000208
200.6376	0.000967
200.8418	0.000482
201.0461	-0.000320
201.2503	0.000355
201.4546	-0.000806
201.6589	-0.000004
201.8631	0.001094
202.0674	0.001179
202.2718	0.000862
202.4761	0.000440
202.6805	0.001073
202.8848	0.001558
203.0892	-0.000172
203.2936	0.000419
203.4980	0.000925
203.7024	0.001284
203.9069	-0.000025
204.1113	-0.000278
204.3158	0.001432
204.5203	-0.001101
204.7248	0.001010
204.9293	-0.000088
205.1338	0.001284
205.3384	-0.000595
205.5430	0.002276
205.7475	0.001031
205.9521	0.001960
206.1567	0.000566
206.3614	0.000946
206.5660	0.001094
206.7706	0.000419
206.9753	0.001031
207.1800	0.001284
207.3847	0.000630
207.5894	0.000925
207.7941	0.000630
207.9989	0.000967
208.2036	0.001558
208.4084	-0.000383
208.6132	0.000271
208.8180	0.000018
209.0228	-0.000067
209.2276	0.003036
209.4325	0.000060
209.6373	0.001453
209.8422	-0.000974
210.0471	0.001263
210.2520	0.000398
210.4569	0.001115
210.6618	0.000208
210.8668	0.000419
211.0718	-0.000130
211.2767	0.001432
211.4817	0.000060
211.6867	0.000186
211.8918	0.000398
212.0968	0.000292
212.3018	0.000756
212.5069	0.001157
212.7120	-0.000109
212.9171	0.000419
213.1222	0.000208
213.3273	0.001664
213.5325	0.000440
213.7376	0.000967
213.9428	0.000609
214.1480	0.000060
214.3532	-0.000721
214.5584	0.000018
214.7636	-0.000848
214.9689	0.000081
215.1741	0.000334
215.3794	0.000482
215.5847	0.001136
215.7900	0.001727
215.9953	0.000566
216.2007	0.000461
216.4060	0.000376
216.6114	0.000081
216.8168	0.000735
217.0222	0.000777
217.2276	0.000376
217.4330	0.001580
217.6384	-0.000552
217.8439	-0.000299
218.0494	0.000440
218.2548	0.002128
218.4603	-0.000806
218.6659	0.000461
218.8714	0.000144
219.0769	0.000609
219.2825	0.001221
219.4881	0.001305
219.6936	0.000904
219.8992	0.000250
220.1049	0.000440
220.3105	-0.000088
220.5161	-0.000848
220.7218	0.001664
220.9275	0.000461
221.1332	-0.000004
221.3389	0.000376
221.5446	0.001136
221.7503	0.000313
221.9561	0.000102
222.1618	0.000039
222.3676	0.001960
222.5734	0.000756
222.7792	0.000398
222.9850	0.000292
223.1909	0.000355
223.3967	-0.000700
223.6026	0.000925
223.8085	0.000355
224.0144	0.001516
224.2203	0.001453
224.4262	0.001052
224.6322	0.000144
224.8381	-0.000996
225.0441	0.000208
225.2501	0.000545
225.4561	-0.000890
225.6621	0.001179
225.8681	-0.001207
226.0742	0.000989
226.2802	-0.001038
226.4863	0.000693
226.6924	0.001221
226.8985	0.001073
227.1046	-0.000299
227.3107	-0.000911
227.5169	-0.000172
227.7230	0.000841
227.9292	0.001516
228.1354	0.000967
228.3416	-0.000236
228.5478	0.001115
228.7541	0.000693
228.9603	-0.000236
229.1666	0.001157
229.3729	0.000081
229.5791	0.000651
229.7855	0.001432
229.9918	0.001073
230.1981	0.000250
230.4045	0.000862
230.6108	0.001073
230.8172	-0.000341
231.0236	0.000123
231.2300	0.000799
231.4364	0.000313
231.6429	0.000060
231.8493	0.000039
232.0558	0.000989
232.2623	0.000482
232.4688	-0.000362
232.6753	0.000165
232.8818	0.000039
233.0884	0.000862
233.2949	-0.000067
233.5015	-0.000257
233.7081	0.000630
233.9147	0.001601
234.1213	-0.000215
234.3279	0.001537
234.5346	0.000883
234.7413	-0.000489
234.9479	0.000440
235.1546	0.000102
235.3613	0.001073
235.5680	0.000609
235.7748	0.001369
235.9815	0.000229
236.1883	0.000355
236.3951	-0.001101
236.6018	0.000313
236.8087	-0.000172
237.0155	0.000904
237.2223	0.000820
237.4292	0.000461
237.6360	0.000208
237.8429	0.001981
238.0498	0.000925
238.2567	0.001791
238.4636	0.001052
238.6706	0.000419
238.8775	0.000566
239.0845	0.000799
239.2915	0.000799
239.4985	0.000630
239.7055	0.000208
239.9125	0.000777
240.1195	0.001622
240.3266	0.000102
240.5337	0.000904
240.7407	0.000672
240.9478	0.000989
241.1549	0.000144
241.3621	0.000756
241.5692	0.000651
241.7764	-0.000215
241.9835	0.000630
242.1907	0.000292
242.3979	-0.000193
242.6051	0.000482
242.8124	0.000102
243.0196	0.001200
243.2269	0.000609
243.4341	0.000672
243.6414	0.000165
243.8487	0.000039
244.0560	0.000081
244.2634	0.000883
244.4707	0.000271
244.6781	0.000693
244.8854	-0.000130
245.0928	-0.000932
245.3002	-0.000172
245.5076	0.000039
245.7151	-0.000785
245.9225	-0.000890
246.1300	-0.000721
246.3375	0.000545
246.5449	0.000651
246.7524	-0.000236
246.9600	-0.000510
247.1675	0.000841
247.3750	0.000102
247.5826	0.000250
247.7902	0.000524
247.9978	0.000630
248.2054	-0.000215
248.4130	0.000440
248.6206	0.000841
248.8283	0.001179
249.0359	0.000060
249.2436	0.001622
249.4513	-0.000130
249.6590	0.000630
249.8667	0.000102
250.0745	0.001411
250.2822	-0.000257
250.4900	0.000419
250.6978	-0.001671
250.9056	0.001052
251.1134	0.000989
251.3212	0.000081
251.5290	0.001305
251.7369	0.000503
251.9447	0.000123
252.1526	0.001326
252.3605	0.002276
252.5684	0.000208
252.7763	0.000186
252.9843	0.001347
253.1922	0.001073
253.4002	0.000398
253.6082	0.000081
253.8162	0.000925
254.0242	0.000165
254.2322	-0.000700
254.4402	-0.000130
254.6483	0.000925
254.8564	0.001432
255.0644	-0.000046
255.2725	-0.000046
255.4806	0.000334
255.6888	0.000292
255.8969	0.000313
256.1051	0.000018
256.3132	0.001326
256.5214	0.000904
256.7296	0.000588
256.9378	-0.001249
257.1460	-0.000869
257.3543	-0.000257
257.5625	-0.000953
257.7708	-0.000109
257.9791	0.000651
258.1874	0.000208
258.3957	0.000630
258.6040	0.000672
258.8124	0.000925
259.0207	-0.001734
259.2291	0.001727
259.4375	0.000334
259.6459	0.001390
259.8543	0.000060
260.0627	0.000925
260.2711	0.000989
260.4796	0.001347
260.6881	0.000461
260.8965	0.000777
261.1050	0.000756
261.3135	0.001601
261.5221	-0.000616
261.7306	0.001284
261.9392	0.000229
262.1477	0.000925
262.3563	0.000989
262.5649	0.000693
262.7735	0.001179
262.9822	0.000503
263.1908	0.000989
263.3995	0.000862
263.6081	-0.000658
263.8168	0.000609
264.0255	0.000967
264.2342	0.000039
264.4429	0.000292
264.6517	0.001664
264.8604	0.000271
265.0692	0.001221
265.2780	-0.001038
265.4868	0.000714
265.6956	0.000989
265.9044	0.001706
266.1133	0.001369
266.3221	0.000292
266.5310	0.000693
266.7399	0.001305
266.9488	0.000777
267.1577	0.000313
267.3666	0.001453
267.5755	0.001305
267.7845	0.001960
267.9935	0.002107
268.2024	0.001453
268.4114	-0.000510
268.6205	-0.000257
268.8295	0.001390
269.0385	0.001200
269.2476	0.000841
269.4566	0.000102
269.6657	0.002044
269.8748	0.000229
270.0839	0.001010
270.2931	0.000841
270.5022	0.000186
270.7114	0.000482
270.9205	0.001179
271.1297	0.000144
271.3389	0.000524
271.5481	0.000672
271.7573	-0.000552
271.9666	-0.001080
272.1758	0.001115
272.3851	0.000482
272.5944	0.000820
272.8037	-0.000785
273.0130	-0.000341
273.2223	0.000208
273.4316	0.000398
273.6410	-0.001228
273.8504	0.000440
274.0597	0.000123
274.2691	0.000208
274.4785	0.000735
274.6880	0.001411
274.8974	-0.000383
275.1069	0.000883
275.3163	-0.000405
275.5258	0.000588
275.7353	0.001495
275.9448	0.001073
276.1543	0.000503
276.3639	0.001453
276.5734	0.000250
276.7830	0.000123
276.9926	-0.000616
277.2022	0.000841
277.4118	0.000714
277.6214	-0.000109
277.8310	-0.000025
278.0407	-0.000004
278.2503	-0.000510
278.4600	0.000398
278.6697	-0.000088
278.8794	0.000186
279.0891	0.000566
279.2989	0.001115
279.5086	0.001369
279.7184	0.001052
279.9281	0.000123
280.1379	-0.000130
280.3477	-0.000004
280.5576	0.000714
280.7674	0.001115
280.9772	0.000588
281.1871	-0.000848
281.3970	0.000250
281.6069	-0.000067
281.8168	0.002276
282.0267	0.000566
282.2366	-0.000130
282.4466	0.000440
282.6565	0.000018
282.8665	0.000503
283.0765	0.000545
283.2865	0.001073
283.4965	-0.000088
283.7065	0.000081
283.9166	0.000609
284.1266	-0.000679
284.3367	0.000735
284.5468	0.000081
284.7569	0.001453
284.9670	0.000060
285.1771	0.001495
285.3873	0.000461
285.5974	0.001305
285.8076	-0.000025
286.0178	0.000925
286.2280	0.001601
286.4382	0.000714
286.6484	0.000376
286.8587	0.001622
287.0689	0.001453
287.2792	0.001221
287.4895	0.000271
287.6998	-0.000573
287.9101	0.002192
288.1204	0.002297
288.3308	-0.000109
288.5411	0.001622
288.7515	-0.000088
288.9619	0.001727
289.1723	0.000799
289.3827	0.001537
289.5931	0.000799
289.8035	-0.001080
290.0140	0.001432
290.2245	0.001221
290.4349	0.001136
290.6454	0.001010
290.8559	0.001411
291.0665	0.000989
291.2770	0.000799
291.4875	0.000292
291.6981	-0.000004
291.9087	0.000440
292.1193	0.001115
292.3299	0.000799
292.5405	-0.000383
292.7511	0.001073
292.9618	-0.000130
293.1724	0.002403
293.3831	0.000714
293.5938	0.000018
293.8045	-0.000405
294.0152	0.001770
294.2260	0.000292
294.4367	0.000651
294.6475	0.000271
294.8582	0.000735
295.0690	0.000630
295.2798	0.000524
295.4906	0.000398
295.7015	0.001073
295.9123	-0.000067
296.1232	0.001643
296.3340	0.000862
296.5449	0.001263
296.7558	-0.000046
296.9667	0.001453
297.1777	-0.000362
297.3886	0.000989
297.5995	-0.000806
297.8105	-0.000257
298.0215	-0.000130
298.2325	-0.000151
298.4435	-0.000595
298.6545	0.000229
298.8656	0.000883
299.0766	0.000165
299.2877	-0.000046
299.4988	0.002150
299.7099	-0.000468
299.9210	0.001938
300.1321	0.000524
300.3432	-0.000109
300.5544	0.000355
300.7655	0.000419
300.9767	0.000018
301.1879	-0.000510
301.3991	0.000102
301.6103	0.000292
301.8215	0.000545
302.0328	0.000672
302.2441	-0.001629
302.4553	0.001474
302.6666	0.000081
302.8779	0.001432
303.0892	-0.000278
303.3006	0.001263
303.5119	-0.000004
303.7233	0.001115
303.9346	-0.000236
304.1460	0.000883
304.3574	-0.000067
304.5688	-0.000362
304.7803	0.001284
304.9917	0.000545
305.2031	0.000144
305.4146	0.000292
305.6261	0.000883
305.8376	0.000419
306.0491	-0.000426
306.2606	0.000820
306.4722	0.000925
306.6837	-0.000785
306.8953	-0.000067
307.1069	0.001179
307.3184	-0.000004
307.5301	0.000841
307.7417	0.000503
307.9533	-0.000595
308.1650	-0.000278
308.3766	-0.000193
308.5883	0.000208
308.8000	0.000334
309.0117	0.000989
309.2234	0.000398
309.4351	-0.000320
309.6469	0.000862
309.8586	-0.000510
310.0704	0.000229
310.2822	-0.000383
310.4940	0.000313
310.7058	-0.000426
310.9176	0.001052
311.1295	0.000651
311.3413	0.000208
311.5532	-0.000679
311.7651	0.000229
311.9770	0.000989
312.1889	0.001031
312.4008	0.000165
312.6127	0.001347
312.8247	0.000672
313.0366	0.000630
313.2486	-0.000215
313.4606	0.000250
313.6726	0.000714
313.8846	0.000018
314.0967	0.000461
314.3087	0.001242
314.5208	0.000060
314.7328	0.001706
314.9449	0.000651
315.1570	0.000292
315.3692	0.000566
315.5813	-0.000193
315.7934	0.000398
316.0056	0.000651
316.2177	-0.000046
316.4299	0.000735
316.6421	-0.000215
316.8543	0.001622
317.0666	0.000292
317.2788	0.001516
317.4911	-0.000573
317.7033	0.000566
317.9156	-0.000025
318.1279	0.000398
318.3402	-0.000088
318.5525	0.000398
318.7649	0.000904
318.9772	0.001917
319.1896	0.000440
319.4019	-0.001291
319.6143	-0.000405
319.8267	0.000904
320.0392	0.000229
320.2516	-0.000067
320.4640	0.000292
320.6765	-0.000151
320.8890	-0.000236
321.1014	0.000799
321.3139	0.000714
321.5265	0.000440
321.7390	-0.000595
321.9515	-0.000278
322.1641	0.001305
322.3766	0.000967
322.5892	-0.000573
322.8018	0.001052
323.0144	0.001453
323.2270	0.000398
323.4397	-0.000890
323.6523	0.000799
323.8650	0.001094
324.0777	0.001010
324.2904	0.000250
324.5031	0.000144
324.7158	-0.000088
324.9285	0.000630
325.1412	-0.001207
325.3540	0.001347
325.5668	-0.001038
325.7796	-0.000067
325.9924	-0.000215
326.2052	0.000799
326.4180	0.000313
326.6308	0.000925
326.8437	0.001179
327.0566	0.000693
327.2694	0.000039
327.4823	0.000756
327.6952	0.002318
327.9082	0.001157
328.1211	0.000841
328.3340	0.001727
328.5470	0.000018
328.7600	0.001748
328.9730	-0.000552
329.1860	0.001010
329.3990	0.000799
329.6120	0.000524
329.8251	0.000039
330.0381	0.001200
330.2512	0.000292
330.4643	0.000313
330.6774	-0.000067
330.8905	0.000102
331.1036	-0.000806
331.3167	0.000376
331.5299	0.000461
331.7431	0.001073
331.9562	0.001010
332.1694	0.000946
332.3826	-0.000215
332.5959	0.000904
332.8091	0.001010
333.0223	0.001031
333.2356	0.000039
333.4489	0.001770
333.6622	0.000630
333.8755	-0.000405
334.0888	-0.000046
334.3021	0.000123
334.5154	0.000144
334.7288	0.000651
334.9422	0.000208
335.1555	0.000925
335.3689	0.000630
335.5823	0.001326
335.7958	0.000376
336.0092	0.000925
336.2227	0.001770
336.4361	0.000946
336.6496	0.001580
336.8631	-0.000109
337.0766	0.001242
337.2901	0.002445
337.5036	-0.000046
337.7172	0.002213
337.9307	-0.000215
338.1443	0.001073
338.3579	0.000925
338.5715	-0.000362
338.7851	0.001200
338.9987	0.001411
339.2124	-0.000025
339.4260	0.000777
339.6397	-0.000025
339.8533	0.000229
340.0670	0.001474
340.2807	0.000208
340.4945	-0.000953
340.7082	0.001284
340.9219	0.000503
341.1357	0.001010
341.3495	-0.000573
341.5633	0.001242
341.7771	-0.000341
341.9909	0.000355
342.2047	-0.000721
342.4185	0.000714
342.6324	0.000714
342.8463	0.000714
343.0601	0.000165
343.2740	0.001263
343.4879	0.000735
343.7019	0.001558
343.9158	-0.000172
344.1297	0.000756
344.3437	-0.000763
344.5577	0.000524
344.7717	-0.000996
344.9857	0.001622
345.1997	0.001136
345.4137	0.000039
345.6277	0.000229
345.8418	-0.000025
346.0559	0.001010
346.2699	0.000672
346.4840	-0.000320
346.6981	0.000461
346.9123	-0.000658
347.1264	0.001242
347.3406	-0.000299
347.5547	0.001073
347.7689	0.000292
347.9831	0.001369
348.1973	-0.000468
348.4115	-0.000742
348.6257	0.000250
348.8400	0.000904
349.0542	0.000144
349.2685	0.001179
349.4828	-0.000067
349.6971	0.001305
349.9114	-0.000109
350.1257	0.001390
350.3400	-0.000573
350.5544	0.000039
350.7687	0.000588
350.9831	0.002677
351.1975	-0.000067
351.4119	-0.000848
351.6263	0.000672
351.8407	0.000376
352.0552	-0.000806
352.2696	-0.000785
352.4841	0.000756
352.6986	0.001537
352.9131	-0.000848
353.1276	-0.000067
353.3421	0.000545
353.5566	0.001390
353.7712	-0.001544
353.9858	0.000735
354.2003	-0.001713
354.4149	-0.000299
354.6295	0.001305
354.8441	0.000419
355.0588	0.001010
355.2734	0.000545
355.4881	0.001432
355.7027	0.000989
355.9174	0.001010
356.1321	-0.000299
356.3468	-0.000405
356.5615	0.000398
356.7763	-0.000130
356.9910	0.001537
357.2058	0.000609
357.4206	0.001136
357.6353	0.000081
357.8501	0.000018
358.0650	0.001558
358.2798	0.000799
358.4946	-0.000405
358.7095	0.000545
358.9243	-0.000531
359.1392	0.001010
359.3541	0.000989
359.5690	0.001179
359.7839	0.000334
359.9989	0.000841
360.2138	0.001052
360.4288	0.002297
360.6438	0.000461
360.8587	0.001052
361.0737	0.000883
361.2888	0.000925
361.5038	0.000165
361.7188	0.000524
361.9339	-0.000004
362.1489	0.000630
362.3640	0.001453
362.5791	0.000482
362.7942	0.000081
363.0093	-0.000236
363.2245	-0.000151
363.4396	0.001136
363.6548	0.001727
363.8699	0.001727
364.0851	0.001052
364.3003	0.000503
364.5155	-0.000257
364.7308	0.000229
364.9460	0.001242
365.1612	0.000440
365.3765	-0.000510
365.5918	0.001200
365.8071	0.001157
366.0224	0.001960
366.2377	-0.001038
366.4530	0.001474
366.6684	0.000398
366.8837	0.001558
367.0991	0.001263
367.3145	0.001601
367.5299	0.000376
367.7453	0.000862
367.9607	0.000144
368.1761	0.000651
368.3916	0.000777
368.6070	0.002107
368.8225	-0.000299
369.0380	0.000081
369.2535	0.001031
369.4690	-0.000215
369.6845	0.000229
369.9001	0.000714
370.1156	0.000777
370.3312	0.000756
370.5468	0.000672
370.7624	0.001263
370.9780	0.000398
371.1936	0.000777
371.4092	-0.000531
371.6249	0.001390
371.8405	0.001031
372.0562	0.001643
372.2719	-0.001354
372.4876	0.000693
372.7033	-0.001291
372.9190	0.001157
373.1348	0.001031
373.3505	0.000925
373.5663	-0.000341
373.7820	-0.000130
373.9978	0.000186
374.2136	0.001347
374.4294	0.000039
374.6453	0.000292
374.8611	0.001136
375.0770	0.001685
375.2928	0.000904
375.5087	0.001622
375.7246	-0.000637
375.9405	0.000376
376.1564	0.000292
376.3724	0.001558
376.5883	0.000376
376.8043	0.001474
377.0203	-0.000848
377.2362	0.000967
377.4522	0.001643
377.6682	-0.000320
377.8843	0.000588
378.1003	0.001010
378.3164	0.000946
378.5324	0.003036
378.7485	0.001960
378.9646	0.000355
379.1807	-0.000299
379.3968	0.001664
379.6129	-0.000510
379.8291	0.000271
380.0452	-0.000215
380.2614	0.000208
380.4776	-0.000869
380.6938	0.000967
380.9100	0.000524
381.1262	0.001537
381.3424	-0.000616
381.5587	0.001031
381.7749	-0.000616
381.9912	0.000081
382.2075	0.000398
382.4238	0.002234
382.6401	0.001094
382.8564	-0.000468
383.0728	-0.000616
383.2891	0.000144
383.5055	0.000334
383.7219	0.000735
383.9382	0.000208
384.1546	0.001305
384.3711	0.001727
384.5875	0.001052
384.8039	0.000419
385.0204	0.000313
385.2368	0.000989
385.4533	-0.000890
385.6698	-0.000257
385.8863	-0.000004
386.1028	0.001284
386.3194	0.001938
386.5359	-0.000172
386.7525	0.001580
386.9690	0.000651
387.1856	0.000925
387.4022	0.000334
387.6188	0.000102
387.8355	0.001558
388.0521	0.001411
388.2687	0.001601
388.4854	0.001854
388.7021	0.000630
388.9188	0.000820
389.1355	0.001558
389.3522	0.001073
389.5689	0.000714
389.7856	0.001094
390.0024	0.000989
390.2192	0.001875
390.4359	0.001390
390.6527	0.001706
390.8695	0.001664
391.0863	0.000989
391.3032	0.000925
391.5200	0.002002
391.7369	0.001833
391.9537	0.002150
392.1706	0.001791
392.3875	0.002150
392.6044	0.002825
392.8213	0.003036
393.0383	0.002508
393.2552	0.003099
393.4722	0.002741
393.6891	0.004028
393.9061	0.002973
394.1231	0.002065
394.3401	0.002846
394.5572	0.002783
394.7742	0.003268
394.9912	0.002635
395.2083	0.002128
395.4254	0.004113
395.6425	0.002171
395.8596	0.003754
396.0767	0.002255
396.2938	0.005548
396.5109	0.005210
396.7281	0.003479
396.9453	0.003247
397.1624	0.004281
397.3796	0.005569
397.5968	0.004957
397.8140	0.005062
398.0313	0.005527
398.2485	0.006624
398.4658	0.007173
398.6830	0.005400
398.9003	0.005865
399.1176	0.006920
399.3349	0.006730
399.5522	0.006033
399.7696	0.006582
399.9869	0.005949
400.2043	0.005527
400.4216	0.005105
400.6390	0.007638
400.8564	0.006434
401.0738	0.007975
401.2912	0.005970
401.5087	0.008778
401.7261	0.006814
401.9436	0.006603
402.1610	0.007511
402.3785	0.007574
402.5960	0.006878
402.8135	0.007553
403.0310	0.007342
403.2486	0.008419
403.4661	0.006899
403.6837	0.008419
403.9013	0.008123
404.1189	0.008018
404.3365	0.009453
404.5541	0.009537
404.7717	0.008778
404.9893	0.009791
405.2070	0.010171
405.4246	0.010994
405.6423	0.009432
405.8600	0.009284
406.0777	0.011522
406.2954	0.010234
406.5131	0.009157
406.7309	0.011353
406.9486	0.010931
407.1664	0.008989
407.3842	0.010128
407.6020	0.010044
407.8198	0.011332
408.0376	0.011015
408.2554	0.011479
408.4733	0.011057
408.6911	0.012345
408.9090	0.011205
409.1269	0.012450
409.3448	0.012493
409.5627	0.010128
409.7806	0.011226
409.9985	0.013316
410.2165	0.012239
410.4344	0.011163
410.6524	0.011099
410.8704	0.011796
411.0884	0.011796
411.3064	0.012577
411.5244	0.011522
411.7424	0.012999
411.9605	0.012408
412.1785	0.012830
412.3966	0.013210
412.6147	0.013400
412.8328	0.014266
413.0509	0.014266
413.2690	0.014097
413.4871	0.014688
413.7053	0.014308
413.9234	0.013421
414.1416	0.014181
414.3598	0.014793
414.5780	0.013801
414.7962	0.015764
415.0144	0.014857
415.2326	0.015321
415.4509	0.014519
415.6692	0.014709
415.8874	0.015152
416.1057	0.015427
416.3240	0.015490
416.5423	0.015997
416.7606	0.016229
416.9790	0.017221
417.1973	0.012957
417.4157	0.015933
417.6341	0.016524
417.8524	0.015237
418.0708	0.016630
418.2893	0.017031
418.5077	0.014983
418.7261	0.017390
418.9446	0.017305
419.1630	0.017136
419.3815	0.016841
419.6000	0.016651
419.8185	0.018698
420.0370	0.018192
420.2555	0.018213
420.4741	0.018867
420.6926	0.018318
420.9112	0.019543
421.1298	0.019838
421.3483	0.019965
421.5669	0.021464
421.7856	0.021759
422.0042	0.022223
422.2228	0.021485
422.4415	0.020640
422.6601	0.020324
422.8788	0.020830
423.0975	0.021485
423.3162	0.022815
423.5349	0.021379
423.7536	0.020809
423.9724	0.020113
424.1911	0.020767
424.4099	0.020387
424.6287	0.020661
424.8475	0.020894
425.0663	0.020577
425.2851	0.020113
425.5039	0.020725
425.7228	0.020556
425.9416	0.021316
426.1605	0.019289
426.3793	0.018150
426.5982	0.020113
426.8171	0.020957
427.0361	0.020324
427.2550	0.021105
427.4739	0.023089
427.6929	0.019796
427.9118	0.021991
428.1308	0.021865
428.3498	0.020387
428.5688	0.020049
428.7878	0.021632
429.0068	0.020746
429.2259	0.021147
429.4449	0.020640
429.6640	0.023574
429.8831	0.026023
430.1022	0.025369
430.3213	0.024778
430.5404	0.025432
430.7595	0.025052
430.9787	0.024123
431.1978	0.021506
431.4170	0.023427
431.6362	0.022772
431.8553	0.022709
432.0745	0.022266
432.2938	0.021063
432.5130	0.021316
432.7322	0.022857
432.9515	0.020725
433.1707	0.020197
433.3900	0.020450
433.6093	0.024588
433.8286	0.022076
434.0479	0.027099
434.2673	0.023891
434.4866	0.024398
434.7059	0.021675
434.9253	0.023406
435.1447	0.023089
435.3641	0.023342
435.5835	0.022392
435.8029	0.022266
436.0223	0.022899
436.2418	0.020408
436.4612	0.022582
436.6807	0.024292
436.9001	0.022730
437.1196	0.023891
437.3391	0.022202
437.5586	0.022012
437.7782	0.022266
437.9977	0.022983
438.2173	0.022751
438.4368	0.025812
438.6564	0.022793
438.8760	0.024398
439.0956	0.023828
439.3152	0.025031
439.5348	0.023258
439.7545	0.025347
439.9741	0.021464
440.1938	0.024102
440.4135	0.020577
440.6331	0.021822
440.8528	0.024377
441.0725	0.024714
441.2923	0.026741
441.5120	0.029738
441.7318	0.027691
441.9515	0.028408
442.1713	0.025939
442.3911	0.027099
442.6109	0.026065
442.8307	0.024841
443.0505	0.026614
443.2703	0.024841
443.4902	0.027944
443.7101	0.028640
443.9299	0.029231
444.1498	0.029147
444.3697	0.026614
444.5896	0.028197
444.8095	0.027353
445.0295	0.025791
445.2494	0.024524
445.4694	0.027395
445.6894	0.026023
445.9093	0.024377
446.1293	0.024968
446.3493	0.024229
446.5694	0.026867
446.7894	0.024693
447.0094	0.024630
447.2295	0.025031
447.4496	0.024292
447.6696	0.026044
447.8897	0.025685
448.1098	0.023997
448.3300	0.023173
448.5501	0.024862
448.7702	0.022055
448.9904	0.023574
449.2106	0.024841
449.4307	0.024144
449.6509	0.024271
449.8711	0.023785
450.0914	0.024904
450.3116	0.023047
450.5318	0.022139
450.7521	0.022836
450.9724	0.021421
451.1926	0.021485
451.4129	0.020155
451.6332	0.021464
451.8535	0.021970
452.0739	0.022392
452.2942	0.019986
452.5146	0.021358
452.7349	0.022266
452.9553	0.020535
453.1757	0.019501
453.3961	0.019479
453.6165	0.019121
453.8369	0.018741
454.0574	0.020366
454.2778	0.019690
454.4983	0.018804
454.7188	0.020049
454.9393	0.018656
455.1597	0.019163
455.3803	0.018973
455.6008	0.018530
455.8213	0.018867
456.0419	0.019205
456.2624	0.018002
456.4830	0.019015
456.7036	0.017812
456.9242	0.015490
457.1448	0.017791
457.3654	0.017200
457.5860	0.018297
457.8067	0.019564
458.0274	0.019838
458.2480	0.019690
458.4687	0.017685
458.6894	0.019226
458.9101	0.018614
459.1308	0.019796
459.3516	0.019796
459.5723	0.018318
459.7931	0.018150
460.0138	0.017938
460.2346	0.017495
460.4554	0.018931
460.6762	0.018635
460.8970	0.019015
461.1178	0.015089
461.3387	0.016187
461.5595	0.016968
461.7804	0.016398
462.0013	0.014012
462.2222	0.015659
462.4431	0.012957
462.6640	0.014477
462.8849	0.012619
463.1059	0.013822
463.3268	0.016376
463.5478	0.015279
463.7687	0.015553
463.9897	0.014899
464.2107	0.015617
464.4317	0.016946
464.6528	0.015933
464.8738	0.015448
465.0948	0.016018
465.3159	0.015764
465.5370	0.016419
465.7581	0.017390
465.9792	0.017052
466.2003	0.014751
466.4214	0.014329
466.6425	0.016714
466.8637	0.011015
467.0848	0.013126
467.3060	0.012999
467.5272	0.011733
467.7484	0.013464
467.9696	0.012493
468.1908	0.013062
468.4120	0.011965
468.6333	0.010677
468.8545	0.011859
469.0758	0.009664
469.2970	0.010065
469.5183	0.010445
469.7396	0.011184
469.9610	0.010783
470.1823	0.011585
470.4036	0.010361
470.6250	0.009200
470.8463	0.010762
471.0677	0.008672
471.2891	0.009200
471.5105	0.009369
471.7319	0.009981
471.9533	0.008778
472.1748	0.009791
472.3962	0.008355
472.6177	0.009094
472.8391	0.010445
473.0606	0.009960
473.2821	0.009326
473.5036	0.011353
473.7251	0.008018
473.9467	0.009052
474.1682	0.009960
474.3898	0.009917
474.6113	0.008503
474.8329	0.007363
475.0545	0.008588
475.2761	0.008820
475.4977	0.009031
475.7193	0.008566
475.9410	0.009770
476.1626	0.008756
476.3843	0.010086
476.6060	0.007490
476.8277	0.007764
477.0494	0.008313
477.2711	0.008250
477.4928	0.007216
477.7145	0.006814
477.9363	0.007722
478.1580	0.008419
478.3798	0.007279
478.6016	0.008566
478.8234	0.008440
479.0452	0.007110
479.2670	0.007954
479.4888	0.007279
479.7107	0.007194
479.9325	0.006266
480.1544	0.007954
480.3763	0.008461
480.5982	0.007532
480.8201	0.007701
481.0420	0.008503
481.2639	0.006540
481.4859	0.007954
481.7078	0.008841
481.9298	0.006498
482.1517	0.006245
482.3737	0.006899
482.5957	0.006646
482.8177	0.004471
483.0398	0.007427
483.2618	0.007152
483.4838	0.006202
483.7059	0.006012
483.9280	0.006202
484.1501	0.006033
484.3721	0.007110
484.5943	0.007258
484.8164	0.006012
485.0385	0.006371
485.2606	0.007321
485.4828	0.009833
485.7050	0.013759
485.9271	0.017833
486.1493	0.019902
486.3715	0.017390
486.5937	0.014055
486.8160	0.010783
487.0382	0.011437
487.2605	0.011015
487.4827	0.008461
487.7050	0.008250
487.9273	0.006160
488.1496	0.005527
488.3719	0.006519
488.5942	0.005675
488.8165	0.005590
489.0389	0.006540
489.2612	0.006055
489.4836	0.003902
489.7060	0.004281
489.9284	0.004809
490.1508	0.002783
490.3732	0.005527
490.5956	0.004218
490.8180	0.005020
491.0405	0.004915
491.2630	0.003395
491.4854	0.005210
491.7079	0.005189
491.9304	0.003796
492.1529	0.004514
492.3755	0.004809
492.5980	0.003310
492.8205	0.004218
493.0431	0.004070
493.2657	0.003796
493.4882	0.004619
493.7108	0.004704
493.9334	0.004915
494.1561	0.005189
494.3787	0.005147
494.6013	0.003838
494.8240	0.005400
495.0466	0.003226
495.2693	0.005231
495.4920	0.004303
495.7147	0.004218
495.9374	0.003437
496.1601	0.004239
496.3829	0.003838
496.6056	0.006371
496.8284	0.003669
497.0511	0.003690
497.2739	0.004176
497.4967	0.005738
497.7195	0.003627
497.9423	0.004640
498.1652	0.002551
498.3880	0.004429
498.6109	0.003374
498.8337	0.004070
499.0566	0.003775
499.2795	0.003944
499.5024	0.002529
499.7253	0.004091
499.9482	0.003353
500.1712	0.004851
500.3941	0.002973
500.6171	0.003036
500.8400	0.004155
501.0630	0.003775
501.2860	0.004514
501.5090	0.003606
501.7320	0.004408
501.9551	0.004197
502.1781	0.002656
502.4012	0.004176
502.6242	0.004239
502.8473	0.003078
503.0704	0.003099
503.2935	0.003754
503.5166	0.004450
503.7397	0.004197
503.9628	0.002361
504.1860	0.004788
504.4092	0.002572
504.6323	0.004218
504.8555	0.002867
505.0787	0.003099
505.3019	0.004303
505.5251	0.003036
505.7483	0.002783
505.9716	0.003564
506.1948	0.003944
506.4181	0.003585
506.6414	0.001664
506.8647	0.003690
507.0880	0.003564
507.3113	0.004155
507.5346	0.004260
507.7579	0.003015
507.9813	0.003332
508.2046	0.003184
508.4280	0.001136
508.6514	0.002445
508.8748	0.003500
509.0982	0.004788
509.3216	0.001981
509.5450	0.002508
509.7685	0.000967
509.9919	0.003733
510.2154	0.002888
510.4388	0.003226
510.6623	0.004049
510.8858	0.004830
511.1093	0.001453
511.3329	0.002888
511.5564	0.002403
511.7799	0.003184
512.0035	0.001601
512.2270	0.003015
512.4506	0.003796
512.6742	0.003057
512.8978	0.004260
513.1214	0.003268
513.3451	0.003374
513.5687	0.004113
513.7923	0.002741
514.0160	0.004134
514.2397	0.004303
514.4634	0.003627
514.6871	0.003078
514.9108	0.003078
515.1345	0.002086
515.3582	0.004429
515.5819	0.002762
515.8057	0.002846
516.0295	0.002656
516.2532	0.002361
516.4770	0.003733
516.7008	0.003965
516.9246	0.003606
517.1485	0.005506
517.3723	0.003310
517.5961	0.004324
517.8200	0.003121
518.0439	0.002825
518.2677	0.003332
518.4916	0.003902
518.7155	0.003163
518.9395	0.003564
519.1634	0.003437
519.3873	0.005337
519.6113	0.003395
519.8352	0.005506
520.0592	0.003690
520.2832	0.003184
520.5072	0.003163
520.7312	0.003965
520.9552	0.003395
521.1792	0.004007
521.4033	0.004176
521.6273	0.002909
521.8514	0.003690
522.0755	0.002741
522.2996	0.003416
522.5237	0.001960
522.7478	0.002783
522.9719	0.003796
523.1960	0.004387
523.4202	0.004155
523.6443	0.004028
523.8685	0.002445
524.0927	0.003923
524.3169	0.004514
524.5411	0.002909
524.7653	0.003226
524.9895	0.004683
525.2138	0.004872
525.4380	0.005632
525.6623	0.004788
525.8865	0.004619
526.1108	0.003880
526.3351	0.005991
526.5594	0.002192
526.7837	0.005569
527.0081	0.005126
527.2324	0.004915
527.4568	0.003817
527.6811	0.004155
527.9055	0.003712
528.1299	0.003859
528.3543	0.004999
528.5787	0.004957
528.8031	0.005105
529.0276	0.005084
529.2520	0.004978
529.4765	0.004809
529.7009	0.005020
529.9254	0.006878
530.1499	0.006033
530.3744	0.005189
530.5989	0.004999
530.8234	0.005886
531.0480	0.005379
531.2725	0.004640
531.4971	0.005442
531.7217	0.005569
531.9462	0.005653
532.1708	0.006667
532.3954	0.005970
532.6200	0.007068
532.8447	0.007321
533.0693	0.005822
533.2940	0.006519
533.5186	0.007258
533.7433	0.005886
533.9680	0.008925
534.1927	0.007237
534.4174	0.007152
534.6421	0.007047
534.8668	0.008672
535.0916	0.009622
535.3163	0.009221
535.5411	0.007026
535.7659	0.008609
535.9907	0.007912
536.2155	0.009390
536.4403	0.007258
536.6651	0.009495
536.8899	0.007574
537.1148	0.008967
537.3396	0.007785
537.5645	0.008566
537.7894	0.007089
538.0143	0.008967
538.2392	0.007553
538.4641	0.009727
538.6890	0.009685
538.9139	0.010656
539.1389	0.009833
539.3638	0.009812
539.5888	0.009727
539.8138	0.009938
540.0388	0.010023
540.2638	0.011289
540.4888	0.008144
540.7138	0.010086
540.9389	0.011437
541.1639	0.010825
541.3890	0.011374
541.6140	0.011268
541.8391	0.011859
542.0642	0.011965
542.2893	0.012809
542.5144	0.011775
542.7396	0.013421
542.9647	0.012366
543.1899	0.012408
543.4150	0.012704
543.6402	0.011775
543.8654	0.012725
544.0906	0.013611
544.3158	0.015004
544.5410	0.012324
544.7662	0.015300
544.9915	0.014920
545.2167	0.016123
545.4420	0.015954
545.6673	0.015384
545.8926	0.012957
546.1179	0.015363
546.3432	0.014392
546.5685	0.014097
546.7938	0.013611
547.0192	0.016292
547.2445	0.015279
547.4699	0.017875
547.6953	0.016693
547.9206	0.018720
548.1460	0.018551
548.3715	0.020556
548.5969	0.021105
548.8223	0.018994
549.0478	0.020155
549.2732	0.019965
549.4987	0.018614
549.7242	0.017749
549.9496	0.015511
550.1751	0.018783
550.4007	0.019247
550.6262	0.018318
550.8517	0.018508
551.0773	0.019057
551.3028	0.016566
551.5284	0.018656
551.7540	0.017896
551.9796	0.019501
552.2052	0.020767
552.4308	0.022836
552.6564	0.020894
552.8820	0.021295
553.1077	0.022519
553.3333	0.022920
553.5590	0.022012
553.7847	0.024820
554.0104	0.022603
554.2361	0.023237
554.4618	0.021231
554.6875	0.021590
554.9132	0.020725
555.1390	0.023617
555.3648	0.022603
555.5905	0.023891
555.8163	0.024968
556.0421	0.024313
556.2679	0.027015
556.4937	0.026994
556.7195	0.024904
556.9454	0.025136
557.1712	0.024187
557.3971	0.026698
557.6230	0.025537
557.8488	0.025812
558.0747	0.026487
558.3006	0.026213
558.5266	0.024925
558.7525	0.024989
558.9784	0.025010
559.2044	0.023469
559.4303	0.024461
559.6563	0.026150
559.8823	0.028472
560.1083	0.028260
560.3343	0.030181
560.5603	0.031406
560.7863	0.031553
561.0124	0.033073
561.2384	0.034107
561.4645	0.034656
561.6905	0.032630
561.9166	0.031638
562.1427	0.033474
562.3688	0.034107
562.5949	0.033179
562.8211	0.034297
563.0472	0.033643
563.2733	0.032271
563.4995	0.035247
563.7257	0.035353
563.9519	0.036155
564.1781	0.036830
564.4043	0.039743
564.6305	0.037759
564.8567	0.039638
565.0829	0.038983
565.3092	0.040925
565.5355	0.039617
565.7617	0.041453
565.9880	0.039933
566.2143	0.041348
566.4406	0.042551
566.6669	0.040820
566.8932	0.044577
567.1196	0.044725
567.3459	0.049812
567.5723	0.053464
567.7987	0.052873
568.0250	0.055511
568.2514	0.055807
568.4778	0.058424
568.7043	0.062181
568.9307	0.065137
569.1571	0.069886
569.3836	0.076873
569.6100	0.082699
569.8365	0.091332
570.0630	0.097453
570.2895	0.098889
570.5160	0.099522
570.7425	0.104292
570.9690	0.109253
571.1956	0.115015
571.4221	0.121348
571.6487	0.124240
571.8752	0.130023
572.1018	0.134773
572.3284	0.131480
572.5550	0.127131
572.7816	0.117738
573.0082	0.112651
573.2349	0.120525
573.4615	0.135089
573.6882	0.143997
573.9149	0.149570
574.1415	0.157823
574.3682	0.162530
574.5949	0.165612
574.8216	0.168778
575.0484	0.170572
575.2751	0.172261
575.5018	0.171543
575.7286	0.159955
575.9554	0.153052
576.1821	0.154171
576.4089	0.158245
576.6357	0.168082
576.8626	0.175237
577.0894	0.179987
577.3162	0.184103
577.5431	0.190688
577.7699	0.212979
577.9968	0.242805
578.2237	0.233834
578.4505	0.224377
578.6774	0.208061
578.9044	0.196789
579.1313	0.186699
579.3582	0.191765
579.5851	0.195501
579.8121	0.204134
580.0391	0.202045
580.2660	0.205591
580.4930	0.206013
580.7200	0.196852
580.9470	0.203016
581.1741	0.237000
581.4011	0.284747
581.6281	0.308536
581.8552	0.316071
582.0822	0.310077
582.3093	0.300494
582.5364	0.279216
582.7635	0.254435
582.9906	0.237232
583.2177	0.221000
583.4449	0.206963
583.6720	0.193601
583.8991	0.189401
584.1263	0.192166
584.3535	0.198034
584.5807	0.192039
584.8079	0.203290
585.0351	0.219987
585.2623	0.228662
585.4895	0.231406
585.7167	0.230034
585.9440	0.224694
586.1713	0.207343
586.3985	0.198984
586.6258	0.196261
586.8531	0.198836
587.0804	0.206836
587.3077	0.219248
587.5350	0.224842
587.7624	0.224166
587.9897	0.213802
588.2171	0.204240
588.4445	0.199871
588.6718	0.194129
588.8992	0.186235
589.1266	0.177116
589.3540	0.164894
589.5815	0.161095
589.8089	0.162446
590.0363	0.161200
590.2638	0.152609
590.4913	0.149570
590.7187	0.140345
590.9462	0.136609
591.1737	0.130424
591.4012	0.127744
591.6288	0.129791
591.8563	0.130509
592.0838	0.127807
592.3114	0.132704
592.5389	0.151575
592.7665	0.176504
592.9941	0.195501
593.2217	0.195987
593.4493	0.201496
593.6769	0.195374
593.9046	0.191301
594.1322	0.178804
594.3598	0.168609
594.5875	0.167406
594.8152	0.178488
595.0429	0.190308
595.2705	0.196388
595.4983	0.192652
595.7260	0.184187
595.9537	0.172641
596.1814	0.159765
596.4092	0.148599
596.6369	0.144482
596.8647	0.142435
597.0925	0.143216
597.3203	0.147733
597.5481	0.149401
597.7759	0.146551
598.0037	0.144905
598.2315	0.140472
598.4594	0.141654
598.6872	0.157042
598.9151	0.172113
599.1430	0.180831
599.3709	0.176293
599.5988	0.173992
599.8267	0.176039
600.0546	0.179712
600.2825	0.183997
600.5105	0.179206
600.7384	0.181337
600.9664	0.183385
601.1944	0.183913
601.4223	0.180472
601.6503	0.175237
601.8783	0.170002
602.1064	0.167153
602.3344	0.165380
602.5624	0.164620
602.7905	0.170087
603.0185	0.174562
603.2466	0.178319
603.4747	0.185200
603.7028	0.188810
603.9309	0.180535
604.1590	0.172831
604.3871	0.166055
604.6152	0.162023
604.8434	0.153707
605.0715	0.155944
605.2997	0.154952
605.5279	0.163712
605.7561	0.173506
605.9843	0.172852
606.2125	0.172092
606.4407	0.163670
606.6689	0.154382
606.8972	0.152694
607.1254	0.154847
607.3537	0.156556
607.5819	0.159364
607.8102	0.157084
608.0385	0.154467
608.2668	0.148366
608.4951	0.151047
608.7235	0.144081
608.9518	0.140831
609.1801	0.136398
609.4085	0.133781
609.6369	0.128651
609.8653	0.139311
610.0936	0.144293
610.3220	0.152504
610.5505	0.145453
610.7789	0.143997
611.0073	0.135976
611.2357	0.137010
611.4642	0.135870
611.6927	0.134942
611.9211	0.137390
612.1496	0.132240
612.3781	0.130002
612.6066	0.129348
612.8351	0.128778
613.0637	0.129475
613.2922	0.127174
613.5208	0.128715
613.7493	0.125992
613.9779	0.128271
614.2065	0.131332
614.4351	0.127997
614.6637	0.123269
614.8923	0.124409
615.1209	0.124430
615.3495	0.129095
615.5782	0.131818
615.8068	0.127258
616.0355	0.126942
616.2642	0.121158
616.4929	0.113031
616.7216	0.111765
616.9503	0.110245
617.1790	0.110688
617.4077	0.107142
617.6365	0.110118
617.8652	0.110646
618.0940	0.112335
618.3227	0.110203
618.5515	0.100430
618.7803	0.098192
619.0091	0.092978
619.2379	0.092240
619.4667	0.089137
619.6956	0.089348
619.9244	0.092936
620.1533	0.095722
620.3821	0.097306
620.6110	0.094371
620.8399	0.088229
621.0688	0.081263
621.2977	0.075817
621.5266	0.073348
621.7556	0.077991
621.9845	0.079174
622.2135	0.082509
622.4424	0.083691
622.6714	0.082910
622.9004	0.085232
623.1294	0.087364
623.3584	0.091332
623.5874	0.091501
623.8164	0.087596
624.0454	0.087617
624.2745	0.085337
624.5035	0.089073
624.7326	0.093126
624.9617	0.089010
625.1908	0.086055
625.4199	0.083712
625.6490	0.081411
625.8781	0.080968
626.1072	0.079131
626.3364	0.077422
626.5655	0.072693
626.7947	0.071617
627.0238	0.069590
627.2530	0.072377
627.4822	0.072292
627.7114	0.070625
627.9406	0.066804
628.1698	0.063216
628.3991	0.060408
628.6283	0.058593
628.8576	0.059944
629.0868	0.060007
629.3161	0.060725
629.5454	0.063469
629.7747	0.065432
630.0040	0.064208
630.2333	0.059268
630.4626	0.059480
630.6920	0.057305
630.9213	0.056778
631.1507	0.056334
631.3801	0.054160
631.6094	0.051184
631.8388	0.052809
632.0682	0.053611
632.2976	0.050234
632.5271	0.050044
632.7565	0.046815
632.9859	0.046688
633.2154	0.045928
633.4448	0.043712
633.6743	0.045780
633.9038	0.046519
634.1333	0.044788
634.3628	0.043416
634.5923	0.041960
634.8218	0.042129
635.0514	0.042297
635.2809	0.038688
635.5105	0.039891
635.7400	0.041706
635.9696	0.042213
636.1992	0.044387
636.4288	0.045633
636.6584	0.046329
636.8880	0.044282
637.1177	0.044619
637.3473	0.043142
637.5770	0.041727
637.8066	0.039912
638.0363	0.041136
638.2660	0.042171
638.4957	0.042213
638.7254	0.042867
638.9551	0.042931
639.1848	0.041474
639.4145	0.041685
639.6443	0.038693
639.8740	0.036521
640.1038	0.038904
640.3336	0.036862
640.5633	0.036509
640.7931	0.038791
641.0229	0.035052
641.2528	0.033675
641.4826	0.033126
641.7124	0.034777
641.9423	0.032029
642.1721	0.029812
642.4020	0.032091
642.6319	0.030250
642.8617	0.030465
643.0916	0.031744
643.3216	0.029835
643.5515	0.030174
643.7814	0.029685
644.0113	0.028482
644.2413	0.029943
644.4712	0.028233
644.7012	0.028720
644.9312	0.029318
645.1612	0.027068
645.3912	0.028639
645.6212	0.024670
645.8512	0.028083
646.0812	0.026606
646.3113	0.026766
646.5413	0.024984
646.7714	0.025973
647.0015	0.023898
647.2316	0.025389
647.4616	0.025053
647.6918	0.026635
647.9219	0.029926
648.1520	0.031571
648.3821	0.030505
648.6123	0.030989
648.8424	0.034429
649.0726	0.035172
649.3028	0.035173
649.5329	0.034193
649.7631	0.032878
649.9933	0.032417
650.2236	0.029979
650.4538	0.031614
650.6840	0.029553
650.9143	0.026704
651.1445	0.027768
651.3748	0.030662
651.6051	0.028846
651.8354	0.030300
652.0657	0.030201
652.2960	0.031959
652.5263	0.033555
652.7566	0.032738
652.9870	0.031428
653.2173	0.033187
653.4477	0.032061
653.6780	0.031472
653.9084	0.033154
654.1388	0.033607
654.3692	0.034493
654.5996	0.037620
654.8300	0.041516
655.0605	0.068025
655.2909	0.187277
655.5213	0.522224
655.7518	0.953812
655.9823	1.000000
656.2128	1.000000
656.4433	1.000000
656.6738	1.000000
656.9043	1.000000
657.1348	0.858687
657.3653	0.705859
657.5959	0.606565
657.8264	0.531564
658.0570	0.481950
658.2875	0.449856
658.5181	0.410151
658.7487	0.378843
658.9793	0.365687
659.2099	0.331774
659.4406	0.256297
659.6712	0.169363
659.9018	0.100602
660.1325	0.060588
660.3632	0.040847
660.5938	0.033200
660.8245	0.027752
661.0552	0.025385
661.2859	0.024240
661.5166	0.023920
661.7474	0.022825
661.9781	0.022924
662.2088	0.021412
662.4396	0.021969
662.6704	0.022735
662.9011	0.023392
663.1319	0.023425
663.3627	0.023280
663.5935	0.021120
663.8243	0.021685
664.0552	0.023582
664.2860	0.021731
664.5168	0.023092
664.7477	0.023339
664.9786	0.023360
665.2094	0.022644
665.4403	0.023728
665.6712	0.025531
665.9021	0.023975
666.1330	0.023430
666.3640	0.024475
666.5949	0.021756
666.8259	0.022882
667.0568	0.022114
667.2878	0.020182
667.5188	0.020663
667.7497	0.021821
667.9807	0.023610
668.2117	0.020579
668.4428	0.022160
668.6738	0.020704
668.9048	0.022920
669.1359	0.022878
669.3669	0.022603
669.5980	0.021421
669.8291	0.022413
670.0602	0.023258
670.2913	0.022625
670.5224	0.020134
670.7535	0.024968
670.9846	0.021231
671.2157	0.025727
671.4469	0.027986
671.6781	0.027796
671.9092	0.029041
672.1404	0.031490
672.3716	0.032883
672.6028	0.036007
672.8340	0.034150
673.0652	0.033432
673.2964	0.031786
673.5277	0.030477
673.7589	0.031553
673.9902	0.029442
674.2214	0.030118
674.4527	0.027142
674.6840	0.027648
674.9153	0.025812
675.1466	0.027733
675.3779	0.028092
675.6093	0.027247
675.8406	0.027627
676.0719	0.025854
676.3033	0.026044
676.5347	0.025495
676.7661	0.025960
676.9974	0.023807
677.2288	0.024271
677.4602	0.025749
677.6917	0.028239
677.9231	0.028577
678.1545	0.028556
678.3860	0.028936
678.6174	0.030878
678.8489	0.031131
679.0804	0.031321
679.3119	0.033622
679.5434	0.033749
679.7749	0.035585
680.0064	0.034276
680.2379	0.035754
680.4694	0.035733
680.7010	0.034614
680.9325	0.034931
681.1641	0.032250
681.3957	0.034487
681.6273	0.035627
681.8589	0.034150
682.0905	0.033495
682.3221	0.031089
682.5537	0.030646
682.7854	0.031110
683.0170	0.029654
683.2487	0.029822
683.4803	0.029147
683.7120	0.031005
683.9437	0.032503
684.1754	0.035501
684.4071	0.036197
684.6388	0.038920
684.8705	0.037801
685.1023	0.042171
685.3340	0.044915
685.5658	0.044556
685.7975	0.045210
686.0293	0.044408
686.2611	0.043226
686.4929	0.043522
686.7247	0.044704
686.9565	0.042888
687.1883	0.045590
687.4202	0.044556
687.6520	0.043395
687.8838	0.041516
688.1157	0.041010
688.3476	0.043036
688.5795	0.038181
688.8114	0.036556
689.0433	0.036619
689.2752	0.038983
689.5071	0.036894
689.7390	0.036155
689.9710	0.034255
690.2029	0.036070
690.4349	0.034804
690.6669	0.034276
690.8988	0.036598
691.1308	0.037844
691.3628	0.041115
691.5948	0.040630
691.8269	0.038857
692.0589	0.037780
692.2909	0.038245
692.5230	0.036851
692.7550	0.039279
692.9871	0.041115
693.2192	0.041727
693.4513	0.036683
693.6834	0.038667
693.9155	0.036577
694.1476	0.035669
694.3797	0.034994
694.6119	0.034234
694.8440	0.034530
695.0762	0.035121
695.3083	0.037126
695.5405	0.033643
695.7727	0.031194
696.0049	0.029506
696.2371	0.028493
696.4693	0.031258
696.7016	0.034002
696.9338	0.041643
697.1660	0.037717
697.3983	0.039131
697.6306	0.040862
697.8628	0.037738
698.0951	0.040102
698.3274	0.038350
698.5597	0.037210
698.7920	0.037400
699.0243	0.035986
699.2567	0.036070
699.4890	0.034487
699.7214	0.034804
699.9537	0.032123
700.1861	0.031131
700.4185	0.031047
700.6509	0.031237
700.8833	0.031216
701.1157	0.029569
701.3481	0.028155
701.5806	0.029506
701.8130	0.027859
702.0454	0.029907
702.2779	0.030941
702.5104	0.033326
702.7429	0.029253
702.9753	0.030603
703.2078	0.028176
703.4403	0.029822
703.6729	0.029632
703.9054	0.027733
704.1379	0.026382
704.3705	0.028957
704.6030	0.025833
704.8356	0.024440
705.0682	0.023427
705.3008	0.023532
705.5334	0.024989
705.7660	0.025749
705.9986	0.024060
706.2312	0.026572
706.4638	0.029611
706.6965	0.033242
706.9291	0.036830
707.1618	0.037105
707.3945	0.038034
707.6272	0.037358
707.8599	0.038540
708.0926	0.038646
708.3253	0.039997
708.5580	0.038751
708.7907	0.036957
709.0235	0.036640
709.2562	0.035057
709.4890	0.033221
709.7217	0.035501
709.9545	0.036851
710.1873	0.035100
710.4201	0.035479
710.6529	0.034445
710.8857	0.034846
711.1186	0.032609
711.3514	0.031574
711.5842	0.031194
711.8171	0.031596
712.0500	0.030076
712.2828	0.027648
712.5157	0.029084
712.7486	0.029801
712.9815	0.029358
713.2144	0.029253
713.4474	0.032567
713.6803	0.032778
713.9132	0.034234
714.1462	0.037210
714.3791	0.037464
714.6121	0.034931
714.8451	0.034530
715.0781	0.035606
715.3111	0.034762
715.5441	0.033136
715.7771	0.034445
716.0102	0.033432
716.2432	0.030519
716.4762	0.029717
716.7093	0.030350
716.9424	0.028767
717.1754	0.028619
717.4085	0.026741
717.6416	0.028387
717.8747	0.028113
718.1078	0.029527
718.3410	0.029801
718.5741	0.027775
718.8072	0.030920
719.0404	0.030371
719.2736	0.030709
719.5067	0.028303
719.7399	0.029696
719.9731	0.029295
720.2063	0.029421
720.4395	0.028450
720.6727	0.029886
720.9060	0.028683
721.1392	0.031596
721.3725	0.028936
721.6057	0.027184
721.8390	0.031110
722.0723	0.030371
722.3055	0.029654
722.5388	0.027395
722.7721	0.027311
723.0055	0.028493
723.2388	0.028619
723.4721	0.029421
723.7055	0.029991
723.9388	0.029949
724.1722	0.027754
724.4056	0.028725
724.6389	0.027395
724.8723	0.028535
725.1057	0.030456
725.3391	0.031743
725.5726	0.033179
725.8060	0.033158
726.0394	0.033812
726.2729	0.034952
726.5063	0.034044
726.7398	0.033474
726.9733	0.032778
727.2068	0.032102
727.4403	0.031300
727.6738	0.033685
727.9073	0.031975
728.1408	0.033833
728.3743	0.036260
728.6079	0.035648
728.8414	0.033622
729.0750	0.034086
729.3086	0.034994
729.5421	0.037801
729.7757	0.038392
730.0093	0.038118
730.2429	0.035522
730.4766	0.037485
730.7102	0.041664
730.9438	0.043965
731.1775	0.043205
731.4111	0.043479
731.6448	0.042698
731.8785	0.045611
732.1122	0.041917
732.3458	0.041179
732.5795	0.040377
732.8133	0.043881
733.0470	0.043902
733.2807	0.045928
733.5145	0.043163
733.7482	0.045464
733.9820	0.048820
734.2157	0.050361
734.4495	0.052725
734.6833	0.052218
734.9171	0.049601
735.1509	0.049221
735.3847	0.047448
735.6185	0.047828
735.8524	0.049073
736.0862	0.051121
736.3201	0.048609
736.5539	0.047617
736.7878	0.050445
737.0217	0.048102
737.2556	0.049770
737.4895	0.047448
737.7234	0.045464
737.9573	0.043965
738.1912	0.041559
738.4252	0.040461
738.6591	0.039807
738.8931	0.040461
739.1271	0.045168
739.3610	0.047954
739.5950	0.047131
739.8290	0.047680
740.0630	0.045780
740.2970	0.041326
740.5310	0.042255
740.7651	0.038118
740.9991	0.038224
741.2332	0.037949
741.4672	0.035754
741.7013	0.034382
741.9354	0.034487
742.1695	0.034825
742.4036	0.034677
742.6377	0.035479
742.8718	0.034466
743.1059	0.035163
743.3400	0.031532
743.5742	0.033369
743.8083	0.031511
744.0425	0.032440
744.2767	0.028894
744.5108	0.030012
744.7450	0.030709
744.9792	0.029400
745.2134	0.028640
745.4477	0.029844
745.6819	0.030160
745.9161	0.029084
746.1504	0.029991
746.3846	0.028303
746.6189	0.029569
746.8532	0.029696
747.0874	0.029126
747.3217	0.033221
747.5560	0.034804
747.7903	0.031997
748.0247	0.030519
748.2590	0.030477
748.4933	0.029464
748.7277	0.030392
748.9620	0.030308
749.1964	0.031005
749.4308	0.030857
749.6652	0.037210
749.8995	0.035838
750.1339	0.036978
750.3684	0.042276
750.6028	0.042129
750.8372	0.039321
751.0717	0.038245
751.3061	0.039384
751.5406	0.039997
751.7750	0.038076
752.0095	0.042656
752.2440	0.039828
752.4785	0.037400
752.7130	0.038245
752.9475	0.040144
753.1820	0.037400
753.4166	0.038625
753.6511	0.040925
753.8856	0.040588
754.1202	0.039047
754.3548	0.041242
754.5894	0.039237
754.8239	0.038941
755.0585	0.042403
755.2931	0.040398
755.5278	0.041685
755.7624	0.044218
755.9970	0.042340
756.2317	0.045823
756.4663	0.047638
756.7010	0.047764
756.9356	0.053105
757.1703	0.055131
757.4050	0.056524
757.6397	0.061232
757.8744	0.061759
758.1091	0.056693
758.3438	0.057305
758.5786	0.055870
758.8133	0.049706
759.0481	0.052978
759.2828	0.058234
759.5176	0.058340
759.7524	0.062519
759.9872	0.060915
760.2220	0.059564
760.4568	0.062625
760.6916	0.060725
760.9264	0.064166
761.1613	0.062181
761.3961	0.059057
761.6310	0.054899
761.8658	0.052556
762.1007	0.050720
762.3356	0.050213
762.5705	0.048440
762.8054	0.051522
763.0403	0.048947
763.2752	0.050804
763.5101	0.050699
763.7450	0.051986
763.9800	0.048292
764.2149	0.052261
764.4499	0.056482
764.6849	0.056419
764.9198	0.060514
765.1548	0.059881
765.3898	0.056883
765.6248	0.054498
765.8599	0.052176
766.0949	0.049960
766.3299	0.047342
766.5650	0.045527
766.8000	0.042635
767.0351	0.041411
767.2701	0.036999
767.5052	0.036662
767.7403	0.039511
767.9754	0.041791
768.2105	0.044619
768.4456	0.046202
768.6808	0.049179
768.9159	0.050762
769.1510	0.048989
769.3862	0.047195
769.6214	0.047828
769.8565	0.044788
770.0917	0.044704
770.3269	0.043543
770.5621	0.043332
770.7973	0.047321
771.0325	0.050424
771.2677	0.048081
771.5030	0.049031
771.7382	0.044619
771.9735	0.042762
772.2087	0.041749
772.4440	0.040377
772.6793	0.042910
772.9146	0.041960
773.1499	0.038414
773.3852	0.039321
773.6205	0.039912
773.8558	0.039131
774.0911	0.036429
774.3265	0.035965
774.5618	0.032524
774.7972	0.035057
775.0326	0.031131
775.2679	0.031448
775.5033	0.029506
775.7387	0.027796
775.9741	0.026952
776.2095	0.027606
776.4450	0.025622
776.6804	0.026023
776.9158	0.024060
777.1513	0.025601
777.3868	0.025622
777.6222	0.024714
777.8577	0.022878
778.0932	0.026065
778.3287	0.027121
778.5642	0.028113
778.7997	0.028408
779.0352	0.028577
779.2707	0.033474
779.5063	0.030287
779.7418	0.029759
779.9774	0.029632
780.2130	0.028598
780.4485	0.029421
780.6841	0.030076
780.9197	0.030772
781.1553	0.033981
781.3909	0.036113
781.6265	0.034952
781.8622	0.034234
782.0978	0.036598
782.3335	0.035775
782.5691	0.035395
782.8048	0.033580
783.0405	0.032440
783.2761	0.035838
783.5118	0.033010
783.7475	0.035564
783.9832	0.033875
784.2190	0.033833
784.4547	0.032060
784.6904	0.032060
784.9262	0.028873
785.1619	0.029147
785.3977	0.029527
785.6335	0.027754
785.8692	0.029611
786.1050	0.029865
786.3408	0.027923
786.5766	0.028345
786.8124	0.026846
787.0483	0.028387
787.2841	0.028049
787.5199	0.030413
787.7558	0.030034
787.9917	0.030371
788.2275	0.031342
788.4634	0.029738
788.6993	0.032355
788.9352	0.031764
789.1711	0.033010
789.4070	0.031279
789.6429	0.030815
789.8789	0.028704
790.1148	0.027733
790.3507	0.026551
790.5867	0.025390
790.8227	0.024651
791.0586	0.024883
791.2946	0.024355
791.5306	0.022477
791.7666	0.023828
792.0026	0.023406
792.2387	0.022920
792.4747	0.022266
792.7107	0.021210
792.9468	0.021126
793.1828	0.021696
793.4189	0.022519
793.6550	0.023638
793.8910	0.027247
794.1271	0.032440
794.3632	0.033136
794.5993	0.032250
794.8355	0.031406
795.0716	0.033559
795.3077	0.031807
795.5439	0.033474
795.7800	0.030625
796.0162	0.027986
796.2523	0.025664
796.4885	0.024714
796.7247	0.021970
796.9609	0.020387
797.1971	0.022772
797.4333	0.022371
797.6695	0.022498
797.9058	0.022477
798.1420	0.021231
798.3783	0.022688
798.6145	0.023574
798.8508	0.025115
799.0871	0.025136
799.3233	0.022603
799.5596	0.020577
799.7959	0.020176
800.0322	0.022582
800.2686	0.020556
800.5049	0.018867
800.7412	0.020556
800.9776	0.020556
801.2139	0.018614
801.4503	0.018340
801.6867	0.020450
801.9230	0.018677
802.1594	0.017664
802.3958	0.017706
802.6322	0.016714
802.8686	0.018213
803.1051	0.018213
803.3415	0.017537
803.5779	0.018150
803.8144	0.018023
804.0508	0.017622
804.2873	0.018445
804.5238	0.018424
804.7603	0.016714
804.9968	0.016968
805.2333	0.018656
805.4698	0.016609
805.7063	0.019479
805.9428	0.021105
806.1794	0.022772
806.4159	0.023764
806.6525	0.023954
806.8890	0.023680
807.1256	0.025200
807.3622	0.023363
807.5988	0.023891
807.8354	0.021295
808.0720	0.024208
808.3086	0.024208
808.5452	0.023237
808.7818	0.023638
809.0185	0.024545
809.2551	0.021548
809.4918	0.020809
809.7284	0.022287
809.9651	0.020978
810.2018	0.019923
810.4385	0.018403
810.6752	0.018973
810.9119	0.019606
811.1486	0.020197
811.3853	0.019099
811.6221	0.019099
811.8588	0.018065
812.0956	0.016250
812.3323	0.015659
812.5691	0.016334
812.8059	0.015701
813.0427	0.015110
813.2795	0.016545
813.5163	0.015870
813.7531	0.019501
813.9899	0.018466
814.2267	0.020704
814.4636	0.019205
814.7004	0.018614
814.9373	0.019121
815.1742	0.018994
815.4110	0.017622
815.6479	0.015194
815.8848	0.013801
816.1217	0.015237
816.3586	0.012936
816.5955	0.014076
816.8324	0.014899
817.0694	0.014688
817.3063	0.016313
817.5433	0.013822
817.7802	0.016018
818.0172	0.012661
818.2542	0.014160
818.4912	0.013485
818.7282	0.012619
818.9652	0.013970
819.2022	0.014772
819.4392	0.012113
819.6762	0.012049
819.9133	0.012303
820.1503	0.014329
820.3874	0.015131
820.6244	0.014878
820.8615	0.017749
821.0986	0.014709
821.3357	0.017622
821.5727	0.014920
821.8099	0.015743
822.0470	0.014350
822.2841	0.014055
822.5212	0.014097
822.7584	0.013084
822.9955	0.011205
823.2327	0.013801
823.4698	0.012493
823.7070	0.012471
823.9442	0.010361
824.1814	0.010741
824.4186	0.010255
824.6558	0.011015
824.8930	0.012851
825.1302	0.012683
825.3675	0.011522
825.6047	0.014308
825.8419	0.013168
826.0792	0.013822
826.3165	0.011986
826.5537	0.012007
826.7910	0.012788
827.0283	0.014097
827.2656	0.011184
827.5029	0.015722
827.7402	0.014519
827.9776	0.015237
828.2149	0.012176
828.4522	0.012113
828.6896	0.013084
828.9270	0.012366
829.1643	0.013886
829.4017	0.011627
829.6391	0.011669
829.8765	0.012155
830.1139	0.011859
830.3513	0.010783
830.5887	0.010424
830.8261	0.010530
831.0636	0.009537
831.3010	0.008799
831.5385	0.009411
831.7759	0.009200
832.0134	0.008186
832.2509	0.008376
832.4884	0.010340
832.7259	0.009875
832.9634	0.010213
833.2009	0.010297
833.4384	0.010888
833.6759	0.010002
833.9135	0.009601
834.1510	0.010508
834.3886	0.012366
834.6261	0.011902
834.8637	0.011543
835.1013	0.010952
835.3389	0.009136
835.5765	0.010994
835.8141	0.009938
836.0517	0.009347
836.2893	0.009643
836.5269	0.007954
836.7646	0.008904
837.0022	0.008756
837.2399	0.007321
837.4775	0.007363
837.7152	0.006266
837.9529	0.007975
838.1906	0.006055
838.4283	0.005442
838.6660	0.006540
838.9037	0.006434
839.1414	0.006624
839.3791	0.006920
839.6169	0.008967
839.8546	0.007975
840.0924	0.009115
840.3302	0.008693
840.5679	0.006603
840.8057	0.007680
841.0435	0.006814
841.2813	0.007173
841.5191	0.006878
841.7569	0.007342
841.9947	0.005464
842.2326	0.006287
842.4704	0.006857
842.7082	0.005527
842.9461	0.006055
843.1840	0.006646
843.4218	0.005527
843.6597	0.005548
843.8976	0.006540
844.1355	0.005358
844.3734	0.006139
844.6113	0.005590
844.8492	0.005295
845.0872	0.005189
845.3251	0.006371
845.5631	0.006118
845.8010	0.007089
846.0390	0.006308
846.2770	0.005717
846.5149	0.005358
846.7529	0.005358
846.9909	0.006118
847.2289	0.004978
847.4669	0.004429
847.7050	0.005886
847.9430	0.005379
848.1810	0.003289
848.4191	0.005295
848.6571	0.005865
848.8952	0.005252
849.1333	0.005801
849.3713	0.005084
849.6094	0.005295
849.8475	0.006962
850.0856	0.004345
850.3237	0.005442
850.5619	0.005295
850.8000	0.004070
851.0381	0.004872
851.2763	0.005569
851.5144	0.004429
851.7526	0.004704
851.9908	0.005105
852.2289	0.006899
852.4671	0.006477
852.7053	0.008651
852.9435	0.010192
853.1817	0.011564
853.4200	0.012683
853.6582	0.013738
853.8964	0.014245
854.1347	0.015026
854.3729	0.015997
854.6112	0.014160
854.8495	0.013822
855.0877	0.014371
855.3260	0.013632
855.5643	0.013632
855.8026	0.013337
856.0409	0.012809
856.2792	0.012239
856.5176	0.014308
856.7559	0.011817
856.9942	0.013590
857.2326	0.011522
857.4710	0.012070
857.7093	0.009981
857.9477	0.010804
858.1861	0.009221
858.4245	0.009833
858.6629	0.008419
858.9013	0.010002
859.1397	0.007638
859.3781	0.008672
859.6166	0.007912
859.8550	0.010023
860.0935	0.008229
860.3319	0.008482
860.5704	0.008313
860.8089	0.007511
861.0473	0.006413
861.2858	0.006540
861.5243	0.004872
861.7628	0.008503
862.0013	0.005801
862.2399	0.006097
862.4784	0.007110
862.7169	0.005738
862.9555	0.006392
863.1940	0.006287
863.4326	0.005442
863.6712	0.005675
863.9098	0.008334
864.1483	0.007300
864.3869	0.005464
864.6255	0.006561
864.8642	0.006245
865.1028	0.006012
865.3414	0.004704
865.5800	0.007216
865.8187	0.006498
866.0573	0.005210
866.2960	0.003817
866.5347	0.006329
866.7733	0.004408
867.0120	0.006223
867.2507	0.004661
867.4894	0.007342
867.7281	0.003690
867.9669	0.005400
868.2056	0.006350
868.4443	0.006751
868.6831	0.005189
868.9218	0.006287
869.1606	0.003817
869.3993	0.005527
869.6381	0.004471
869.8769	0.005358
870.1157	0.004767
870.3545	0.003733
870.5933	0.004809
870.8321	0.006055
871.0709	0.005843
871.3097	0.005379
871.5486	0.005717
871.7874	0.006097
872.0263	0.003880
872.2651	0.004260
872.5040	0.005041
872.7429	0.007004
872.9818	0.004661
873.2207	0.006814
873.4596	0.005358
873.6985	0.005886
873.9374	0.004725
874.1763	0.005632
874.4153	0.006033
874.6542	0.004303
874.8932	0.005168
875.1321	0.005801
875.3711	0.005084
875.6101	0.007680
875.8491	0.005295
876.0880	0.006287
876.3270	0.004894
876.5661	0.004872
876.8051	0.005632
877.0441	0.006350
877.2831	0.005653
877.5222	0.005717
877.7612	0.007427
878.0003	0.008102
878.2393	0.006498
878.4784	0.007405
878.7175	0.007004
878.9566	0.007300
879.1957	0.006603
879.4348	0.006688
879.6739	0.009706
879.9130	0.007469
880.1521	0.007469
880.3913	0.007701
880.6304	0.007363
880.8696	0.007828
881.1087	0.008524
881.3479	0.007722
881.5871	0.007490
881.8262	0.008419
882.0654	0.007321
882.3046	0.005527
882.5438	0.006540
882.7831	0.006646
883.0223	0.007595
883.2615	0.007173
883.5007	0.006920
883.7400	0.005865
883.9792	0.005464
884.2185	0.005295
884.4578	0.007047
884.6971	0.006582
884.9363	0.007659
885.1756	0.005590
885.4149	0.006878
885.6542	0.005991
885.8936	0.008566
886.1329	0.007701
886.3722	0.006477
886.6116	0.006350
886.8509	0.006329
887.0903	0.007194
887.3296	0.006055
887.5690	0.007152
887.8084	0.005274
888.0478	0.005801
888.2872	0.006624
888.5266	0.004767
888.7660	0.006223
889.0054	0.005062
889.2448	0.005991
889.4843	0.004155
889.7237	0.005168
889.9632	0.005717
890.2026	0.004619
890.4421	0.003880
890.6816	0.003690
890.9211	0.003733
891.1606	0.004851
891.4001	0.005442
891.6396	0.005801
891.8791	0.005717
892.1186	0.004872
892.3581	0.005464
892.5977	0.005865
892.8372	0.005379
893.0768	0.004725
893.3163	0.004851
893.5559	0.004767
893.7955	0.006413
894.0351	0.006350
894.2747	0.003880
894.5143	0.005400
894.7539	0.004387
894.9935	0.005231
895.2331	0.005210
895.4727	0.004999
895.7124	0.004640
895.9520	0.005928
896.1917	0.004345
896.4314	0.006012
896.6710	0.005611
896.9107	0.005105
897.1504	0.006118
897.3901	0.006434
897.6298	0.003690
897.8695	0.004113
898.1092	0.005717
898.3489	0.004493
898.5887	0.006456
898.8284	0.006055
899.0682	0.004725
899.3079	0.004091
899.5477	0.002994
899.7875	0.005316
900.0272	0.004704
900.2670	0.004999
900.5068	0.004028
900.7466	0.003669
900.9864	0.005928
901.2263	0.004007
901.4661	0.004471
901.7059	0.006118
901.9458	0.004493
902.1856	0.004872
902.4255	0.004683
902.6654	0.005231
902.9052	0.004070
903.1451	0.004260
903.3850	0.004471
903.6249	0.005041
903.8648	0.004661
904.1047	0.005991
904.3446	0.004429
904.5846	0.004176
904.8245	0.004999
905.0644	0.005105
905.3044	0.003226
905.5444	0.005295
905.7843	0.003902
906.0243	0.005865
906.2643	0.005062
906.5043	0.004978
906.7443	0.004303
906.9843	0.005337
907.2243	0.004619
907.4643	0.005189
907.7043	0.004915
907.9444	0.006456
908.1844	0.003965
908.4245	0.004767
908.6645	0.003880
908.9046	0.004113
909.1447	0.003775
909.3847	0.003986
909.6248	0.004028
909.8649	0.003395
910.1050	0.003944
910.3452	0.004535
910.5853	0.003965
910.8254	0.004957
911.0655	0.003099
911.3057	0.004830
911.5458	0.002888
911.7860	0.004978
912.0262	0.003965
912.2663	0.004746
912.5065	0.004471
912.7467	0.005548
912.9869	0.005210
913.2271	0.003606
913.4673	0.003057
913.7075	0.004218
913.9478	0.001917
914.1880	0.004493
914.4283	0.004471
914.6685	0.003880
914.9088	0.003395
915.1490	0.003648
915.3893	0.002656
915.6296	0.002656
915.8699	0.003606
916.1102	0.003923
916.3505	0.004197
916.5908	0.003310
916.8311	0.005084
917.0714	0.004176
917.3118	0.003585
917.5521	0.004028
917.7925	0.005041
918.0328	0.005675
918.2732	0.003669
918.5136	0.006413
918.7539	0.003859
918.9943	0.005569
919.2347	0.004218
919.4751	0.003121
919.7155	0.002952
919.9560	0.002825
920.1964	0.003310
920.4368	0.005442
920.6773	0.003627
920.9177	0.003754
921.1582	0.003543
921.3986	0.004577
921.6391	0.003627
921.8796	0.002804
922.1201	0.003057
922.3606	0.003712
922.6011	0.004345
922.8416	0.003522
923.0821	0.003585
923.3226	0.004788
923.5631	0.003606
923.8037	0.002931
924.0442	0.003416
924.2848	0.003838
924.5254	0.002741
924.7659	0.005337
925.0065	0.003437
925.2471	0.003226
925.4877	0.003859
925.7283	0.002551
925.9689	0.002424
926.2095	0.003627
926.4501	0.003543
926.6908	0.002487
926.9314	0.003754
927.1720	0.002994
927.4127	0.001263
927.6533	0.005189
927.8940	0.002255
928.1347	0.003880
928.3754	0.003268
928.6161	0.001052
928.8568	0.003416
929.0975	0.003289
929.3382	0.001516
929.5789	0.003332
929.8196	0.001664
930.0604	0.002002
930.3011	0.001981
930.5419	0.001411
930.7826	-0.000573
931.0234	0.003036
931.2642	0.002741
931.5049	0.003648
931.7457	0.002065
931.9865	0.002403
932.2273	0.002150
932.4681	0.002614
932.7089	0.002487
932.9498	0.002614
933.1906	0.002192
933.4314	0.003310
933.6723	0.003057
933.9131	0.002762
934.1540	0.002952
934.3949	0.002783
934.6358	0.000862
934.8766	0.002065
935.1175	0.002487
935.3584	0.002508
935.5993	0.003479
935.8403	0.001685
936.0812	0.002466
936.3221	0.002783
936.5630	0.003057
936.8040	0.000756
937.0449	0.001981
937.2859	0.001580
937.5269	0.001031
937.7678	0.002593
938.0088	0.003332
938.2498	0.002150
938.4908	0.002044
938.7318	0.001263
938.9728	0.002403
939.2138	0.000756
939.4549	0.003775
939.6959	0.002234
939.9369	0.002424
940.1780	0.002002
940.4190	0.001727
940.6601	0.001305
940.9012	0.001981
941.1422	0.001179
941.3833	0.002171
941.6244	0.002213
941.8655	0.001854
942.1066	0.000820
942.3477	0.001200
942.5889	0.002361
942.8300	0.002192
943.0711	0.001685
943.3123	0.001706
943.5534	0.000461
943.7946	0.001221
944.0357	0.000503
944.2769	0.002762
944.5181	-0.000468
944.7593	0.002318
945.0005	0.001094
945.2417	0.001854
945.4829	0.001516
945.7241	0.002276
945.9653	0.001157
946.2066	0.001960
946.4478	0.001495
946.6891	0.001875
946.9303	0.000081
947.1716	0.000630
947.4128	0.000334
947.6541	0.001179
947.8954	0.000672
948.1367	0.001960
948.3780	0.001833
948.6193	0.001474
948.8606	0.001347
949.1019	0.002445
949.3433	0.000777
949.5846	0.002065
949.8259	0.001770
950.0673	0.002002
950.3086	0.000609
950.5500	0.001284
950.7914	0.002635
951.0327	0.000756
951.2741	0.000883
951.5155	0.001157
951.7569	0.001263
951.9983	0.001263
952.2398	0.002213
952.4812	0.002572
952.7226	0.002508
952.9640	0.002656
953.2055	0.000334
953.4469	0.003036
953.6884	0.002508
953.9299	0.002466
954.1713	0.001685
954.4128	-0.000130
954.6543	0.002719
954.8958	0.002192
955.1373	0.002825
955.3788	0.001157
955.6203	0.001242
955.8618	0.001748
956.1034	0.000334
956.3449	0.002107
956.5865	0.001643
956.8280	0.000862
957.0696	0.002593
957.3111	0.000334
957.5527	0.000714
957.7943	0.001242
958.0359	0.001474
958.2775	0.002656
958.5191	0.001474
958.7607	0.001516
959.0023	0.001200
959.2439	0.001453
959.4856	0.001706
959.7272	0.001453
959.9688	0.000841
960.2105	0.001347
960.4522	0.000440
960.6938	0.001537
960.9355	0.002318
961.1772	0.002973
961.4189	0.001474
961.6606	0.002234
961.9023	0.000883
962.1440	0.002318
962.3857	0.001854
962.6274	0.000588
962.8692	0.000229
963.1109	0.000376
963.3527	-0.000088
963.5944	0.001369
963.8362	0.000967
964.0779	0.001221
964.3197	0.001411
964.5615	0.000060
964.8033	0.000862
965.0451	0.000419
965.2869	-0.000088
965.5287	0.001411
965.7705	0.000566
966.0123	0.001664
966.2542	0.001179
966.4960	0.000693
966.7379	0.000081
966.9797	0.001157
967.2216	-0.000025
967.4634	0.000419
967.7053	0.000018
967.9472	0.002741
968.1891	0.001495
968.4310	0.000440
968.6729	0.000292
968.9148	0.001200
969.1567	-0.000341
969.3987	0.000862
969.6406	0.001242
969.8825	0.002382
970.1245	0.000165
970.3664	0.000398
970.6084	0.000714
970.8504	-0.000215
971.0923	0.000018
971.3343	0.001179
971.5763	0.000799
971.8183	0.000735
972.0603	0.001031
972.3023	0.000440
972.5443	0.000799
972.7864	0.001537
973.0284	0.000883
973.2704	0.000799
973.5125	0.000609
973.7545	0.002023
973.9966	0.001580
974.2387	-0.000489
974.4807	0.000862
974.7228	0.000398
974.9649	0.002065
975.2070	0.000904
975.4491	0.000482
975.6912	0.000566
975.9333	0.000313
976.1755	0.001221
976.4176	0.000925
976.6597	0.000989
976.9019	-0.000362
977.1440	0.001200
977.3862	0.000925
977.6283	0.000925
977.8705	0.000039
978.1127	0.001960
978.3549	0.001643
978.5971	0.000566
978.8393	0.001580
979.0815	0.001411
979.3237	0.000820
979.5659	0.000060
979.8082	0.000229
980.0504	0.000693
980.2926	0.001073
980.5349	-0.000299
980.7771	0.000503
981.0194	0.001875
981.2617	-0.000827
981.5040	0.000777
981.7462	0.000904
981.9885	-0.000257
982.2308	-0.000193
982.4731	0.001791
982.7155	-0.000679
982.9578	0.000355
983.2001	0.000735
983.4424	0.000419
983.6848	-0.000151
983.9271	0.000756
984.1695	-0.000447
984.4118	0.001495
984.6542	-0.000193
984.8966	0.001010
985.1390	-0.000953
985.3814	0.000714
985.6238	0.000123
985.8662	0.000334
986.1086	0.000292
986.3510	-0.000004
986.5934	0.000693
986.8358	0.000693
987.0783	0.001221
987.3207	0.001157
987.5632	0.000693
987.8056	-0.000193
988.0481	-0.000067
988.2906	0.001221
988.5331	0.001453
988.7756	0.001474
989.0180	0.001094
989.2605	0.000018
989.5031	0.000820
989.7456	0.001094
989.9881	0.000904
990.2306	0.000545
990.4732	0.001263
990.7157	0.000461
990.9582	-0.000383
991.2008	0.001601
991.4434	0.000946
991.6859	0.001411
991.9285	0.000482
992.1711	0.000989
992.4137	0.000440
992.6563	0.001432
992.8989	0.001305
993.1415	0.002255
993.3841	0.001369
993.6267	0.000250
993.8694	0.000461
994.1120	0.001432
994.3547	0.000376
994.5973	0.000123
994.8400	0.000018
995.0826	0.001157
995.3253	-0.000637
995.5680	0.000039
995.8107	0.001664
996.0534	0.001537
996.2961	0.000524
996.5388	0.000566
996.7815	0.000946
997.0242	0.000946
997.2670	-0.000130
997.5097	0.001073
997.7524	0.000883
997.9952	0.001643
998.2379	-0.000552
998.4807	0.000165
998.7235	0.001643
998.9662	-0.000215
999.2090	-0.000320
999.4518	0.000989
999.6946	0.001115
999.9374	0.000883
1000.1802	0.000756
1000.4230	0.000018
1000.6659	0.000081
1000.9087	0.001580
1001.1515	0.001094
1001.3944	-0.000595
1001.6372	0.000989
1001.8801	0.001854
1002.1230	0.000482
1002.3658	0.000799
1002.6087	0.000398
1002.8516	-0.001460
1003.0945	0.000292
1003.3374	0.000989
1003.5803	-0.000763
1003.8232	0.001558
1004.0661	0.000398
1004.3091	0.001136
1004.5520	0.001305
1004.7949	0.000292
1005.0379	0.000503
1005.2808	-0.000299
1005.5238	0.000482
1005.7667	0.000398
1006.0097	0.001432
1006.2527	0.000714
1006.4957	0.000925
1006.7387	0.001474
1006.9817	0.000186
1007.2247	0.000904
1007.4677	0.000735
1007.7107	0.000461
1007.9538	-0.000109
1008.1968	0.000398
1008.4398	0.000144
1008.6829	-0.000257
1008.9259	0.000144
1009.1690	0.000208
1009.4121	0.001601
1009.6551	0.000250
1009.8982	0.001284
1010.1413	0.001411
1010.3844	0.000588
1010.6275	0.000165
1010.8706	0.000165
1011.1137	0.001706
1011.3568	0.000545
1011.6000	0.000292
1011.8431	-0.000848
1012.0863	-0.000552
1012.3294	0.000799
1012.5726	0.001411
1012.8157	0.001073
1013.0589	0.000250
1013.3021	0.002192
1013.5452	0.001073
1013.7884	0.001390
1014.0316	0.000165
1014.2748	0.000904
1014.5180	0.000777
1014.7613	0.001179
1015.0045	-0.000299
1015.2477	0.001643
1015.4909	-0.000827
1015.7342	0.000925
1015.9774	0.001812
1016.2207	0.000461
1016.4640	0.000566
1016.7072	0.000841
1016.9505	0.000925
1017.1938	0.000292
1017.4371	0.000482
1017.6804	-0.000025
1017.9237	0.001453
1018.1670	0.001812
1018.4103	0.000165
1018.6536	0.001411
1018.8969	0.000693
1019.1403	0.000461
1019.3836	0.001305
1019.6270	0.000355
1019.8703	0.001073
1020.1137	0.000398
1020.3571	-0.000257
1020.6004	0.000313
1020.8438	0.000313
1021.0872	-0.000004
1021.3306	0.000334
1021.5740	-0.000257
1021.8174	0.000208
1022.0608	-0.001397
1022.3042	0.000503
1022.5477	0.000588
1022.7911	0.000756
1023.0345	-0.000067
