# Wavelength (nm)	Intensity (a.u.)
197.7802	-0.000121
197.9842	0.000132
198.1882	0.000617
198.3922	0.000069
198.5963	0.000617
198.8003	0.000892
199.0044	0.000850
199.2085	0.000153
199.4126	0.000871
199.6168	-0.000649
199.8209	0.001420
200.0251	-0.000354
200.2292	0.000132
200.4334	0.000237
200.6376	0.000702
200.8418	-0.000649
201.0461	0.000702
201.2503	-0.000227
201.4546	-0.000164
201.6589	-0.000375
201.8631	0.000174
202.0674	0.000533
202.2718	0.000892
202.4761	-0.000375
202.6805	0.000195
202.8848	0.000343
203.0892	0.000153
203.2936	-0.000058
203.4980	0.000385
203.7024	0.000660
203.9069	0.000047
204.1113	0.000026
204.3158	0.000617
204.5203	0.000681
204.7248	-0.000987
204.9293	-0.000565
205.1338	0.000427
205.3384	0.000702
205.5430	0.000301
205.7475	-0.000375
205.9521	0.000913
206.1567	-0.000691
206.3614	0.001821
206.5660	0.000702
206.7706	0.000639
206.9753	0.001251
207.1800	0.001103
207.3847	-0.001388
207.5894	0.001652
207.7941	-0.001493
207.9989	-0.000522
208.2036	0.000765
208.4084	0.001588
208.6132	0.000850
208.8180	0.000343
209.0228	-0.000079
209.2276	0.002158
209.4325	0.001251
209.6373	0.000850
209.8422	0.000829
210.0471	0.001082
210.2520	-0.000438
210.4569	0.000174
210.6618	0.000470
210.8668	0.000660
211.0718	-0.000290
211.2767	0.001673
211.4817	-0.000248
211.6867	-0.000311
211.8918	-0.000501
212.0968	0.000913
212.3018	0.000322
212.5069	0.000132
212.7120	-0.001304
212.9171	0.001103
213.1222	-0.000839
213.3273	0.000069
213.5325	-0.000269
213.7376	0.001019
213.9428	-0.001367
214.1480	0.000427
214.3532	-0.000459
214.5584	0.000259
214.7636	-0.000438
214.9689	0.000575
215.1741	0.000280
215.3794	-0.000354
215.5847	0.000406
215.7900	0.000744
215.9953	0.001272
216.2007	-0.000248
216.4060	-0.000332
216.6114	0.000449
216.8168	-0.000142
217.0222	0.000280
217.2276	-0.000544
217.4330	-0.000142
217.6384	-0.001873
217.8439	0.001335
218.0494	-0.001092
218.2548	0.001736
218.4603	0.000681
218.6659	-0.000058
218.8714	0.000955
219.0769	0.000786
219.2825	0.000259
219.4881	0.001398
219.6936	-0.000016
219.8992	0.000871
220.1049	0.000322
220.3105	0.000491
220.5161	0.001356
220.7218	0.001272
220.9275	0.000449
221.1332	0.000660
221.3389	0.001588
221.5446	0.001377
221.7503	0.000259
221.9561	0.001293
222.1618	-0.000206
222.3676	0.001293
222.5734	0.001335
222.7792	0.000596
222.9850	0.000639
223.1909	0.000702
223.3967	0.000807
223.6026	0.003024
223.8085	0.000533
224.0144	0.002032
224.2203	0.000322
224.4262	0.000681
224.6322	0.000427
224.8381	0.000596
225.0441	0.000955
225.2501	-0.000438
225.4561	-0.000522
225.6621	-0.000248
225.8681	0.000237
226.0742	0.000850
226.2802	-0.000375
226.4863	0.001441
226.6924	0.000723
226.8985	0.000660
227.1046	0.000090
227.3107	0.000723
227.5169	-0.000755
227.7230	0.000174
227.9292	-0.000438
228.1354	-0.000670
228.3416	0.000026
228.5478	0.000195
228.7541	0.000385
228.9603	0.000681
229.1666	-0.000332
229.3729	0.001905
229.5791	0.000301
229.7855	-0.000185
229.9918	-0.000459
230.1981	0.000997
230.4045	-0.000037
230.6108	-0.000269
230.8172	-0.000016
231.0236	0.000005
231.2300	-0.001536
231.4364	0.000237
231.6429	0.000575
231.8493	0.001800
232.0558	-0.000311
232.2623	0.000934
232.4688	0.000976
232.6753	0.000786
232.8818	-0.000142
233.0884	0.000280
233.2949	-0.000565
233.5015	0.001124
233.7081	0.000237
233.9147	0.001209
234.1213	-0.000417
234.3279	-0.000522
234.5346	0.000681
234.7413	0.000596
234.9479	0.001040
235.1546	0.000026
235.3613	0.000259
235.5680	0.000744
235.7748	-0.000797
235.9815	0.000364
236.1883	0.001061
236.3951	0.001230
236.6018	0.000259
236.8087	0.001863
237.0155	0.000470
237.2223	0.001124
237.4292	0.000850
237.6360	0.000723
237.8429	-0.001768
238.0498	0.001145
238.2567	0.000174
238.4636	-0.000206
238.6706	0.000871
238.8775	-0.000354
239.0845	0.002201
239.2915	0.001314
239.4985	0.001398
239.7055	0.000934
239.9125	-0.000037
240.1195	0.000892
240.3266	0.001821
240.5337	0.000280
240.7407	0.000322
240.9478	0.000829
241.1549	0.000237
241.3621	0.000850
241.5692	0.000026
241.7764	0.001082
241.9835	0.000090
242.1907	0.001926
242.3979	-0.000755
242.6051	-0.000016
242.8124	0.000892
243.0196	-0.000121
243.2269	0.000280
243.4341	0.000111
243.6414	0.000829
243.8487	0.000237
244.0560	0.001040
244.2634	-0.000016
244.4707	0.000702
244.6781	0.000280
244.8854	0.001715
245.0928	-0.000079
245.3002	0.000301
245.5076	-0.000311
245.7151	0.001525
245.9225	0.000280
246.1300	0.000322
246.3375	0.001061
246.5449	-0.000776
246.7524	0.000491
246.9600	0.001504
247.1675	0.000913
247.3750	0.000427
247.5826	0.000554
247.7902	-0.000438
247.9978	0.000491
248.2054	0.000639
248.4130	0.000195
248.6206	0.000069
248.8283	0.000132
249.0359	0.000660
249.2436	0.000343
249.4513	0.000216
249.6590	0.000997
249.8667	0.000090
250.0745	0.001441
250.2822	0.000069
250.4900	-0.000100
250.6978	0.000216
250.9056	0.000913
251.1134	-0.000501
251.3212	0.001040
251.5290	-0.000860
251.7369	0.000153
251.9447	0.000280
252.1526	0.000955
252.3605	0.000681
252.5684	0.001863
252.7763	0.001166
252.9843	0.000406
253.1922	0.001483
253.4002	0.000343
253.6082	0.000364
253.8162	0.001166
254.0242	0.001019
254.2322	0.000195
254.4402	0.000047
254.6483	0.001061
254.8564	0.000026
255.0644	-0.000332
255.2725	0.000723
255.4806	0.000871
255.6888	0.000892
255.8969	0.000765
256.1051	0.000892
256.3132	0.000575
256.5214	-0.000332
256.7296	0.000955
256.9378	0.000449
257.1460	0.001356
257.3543	0.000005
257.5625	0.000322
257.7708	-0.000206
257.9791	0.000575
258.1874	0.001187
258.3957	0.000090
258.6040	-0.000037
258.8124	0.000702
259.0207	0.001588
259.2291	0.002348
259.4375	-0.000227
259.6459	-0.000375
259.8543	0.001103
260.0627	0.000069
260.2711	0.000491
260.4796	0.001546
260.6881	0.001293
260.8965	0.000976
261.1050	-0.000480
261.3135	0.000301
261.5221	0.000913
261.7306	0.000596
261.9392	0.000322
262.1477	0.000470
262.3563	0.001019
262.5649	0.000913
262.7735	0.001356
262.9822	0.000850
263.1908	-0.000142
263.3995	-0.000290
263.6081	-0.000037
263.8168	-0.000797
264.0255	0.000237
264.2342	0.001715
264.4429	-0.000522
264.6517	0.000470
264.8604	0.000280
265.0692	0.001483
265.2780	0.000512
265.4868	0.000005
265.6956	-0.000227
265.9044	0.000744
266.1133	0.001187
266.3221	0.000280
266.5310	-0.000987
266.7399	0.000449
266.9488	0.000533
267.1577	0.000850
267.3666	-0.000037
267.5755	0.000322
267.7845	0.000301
267.9935	-0.000586
268.2024	0.000280
268.4114	0.001082
268.6205	0.000723
268.8295	0.000111
269.0385	-0.000459
269.2476	0.000174
269.4566	-0.000164
269.6657	0.000850
269.8748	0.000512
270.0839	0.000765
270.2931	0.000660
270.5022	0.001462
270.7114	-0.000544
270.9205	0.000786
271.1297	-0.000438
271.3389	0.000829
271.5481	-0.000691
271.7573	0.002264
271.9666	0.000702
272.1758	0.000449
272.3851	0.000005
272.5944	0.001187
272.8037	0.001272
273.0130	-0.000079
273.2223	-0.000734
273.4316	0.001525
273.6410	0.000512
273.8504	0.000765
274.0597	0.000575
274.2691	0.000934
274.4785	0.001124
274.6880	0.000554
274.8974	-0.001008
275.1069	0.000723
275.3163	0.000744
275.5258	-0.000269
275.7353	0.000681
275.9448	0.001019
276.1543	0.001356
276.3639	0.000913
276.5734	-0.001071
276.7830	0.000997
276.9926	0.000639
277.2022	0.000681
277.4118	0.001082
277.6214	0.000639
277.8310	0.000069
278.0407	0.000216
278.2503	-0.001050
278.4600	0.000111
278.6697	0.000111
278.8794	0.000237
279.0891	0.000660
279.2989	0.000744
279.5086	-0.000375
279.7184	0.001504
279.9281	0.000681
280.1379	-0.000142
280.3477	-0.000164
280.5576	0.000533
280.7674	-0.000628
280.9772	0.001462
281.1871	0.000069
281.3970	0.000871
281.6069	0.000449
281.8168	0.000955
282.0267	0.000702
282.2366	0.001525
282.4466	0.000829
282.6565	0.002137
282.8665	-0.000691
283.0765	-0.000501
283.2865	0.000533
283.4965	0.000871
283.7065	-0.000058
283.9166	-0.000164
284.1266	0.000005
284.3367	0.000449
284.5468	-0.000142
284.7569	0.001567
284.9670	0.000259
285.1771	0.000301
285.3873	-0.000079
285.5974	0.001082
285.8076	0.000744
286.0178	-0.000269
286.2280	0.000660
286.4382	0.000617
286.6484	-0.000396
286.8587	0.000575
287.0689	-0.000058
287.2792	0.001567
287.4895	-0.000079
287.6998	-0.000142
287.9101	0.000132
288.1204	0.000596
288.3308	0.000153
288.5411	0.000364
288.7515	-0.000354
288.9619	-0.000164
289.1723	0.000639
289.3827	-0.000332
289.5931	0.001525
289.8035	0.000639
290.0140	-0.000797
290.2245	0.001251
290.4349	0.000427
290.6454	0.000765
290.8559	-0.000649
291.0665	-0.000670
291.2770	-0.001768
291.4875	0.000575
291.6981	0.001546
291.9087	0.000364
292.1193	-0.000079
292.3299	-0.000607
292.5405	-0.000586
292.7511	0.001398
292.9618	0.001082
293.1724	0.000533
293.3831	0.001019
293.5938	-0.001029
293.8045	0.000702
294.0152	0.000195
294.2260	0.001272
294.4367	0.001335
294.6475	-0.000058
294.8582	-0.000354
295.0690	0.001272
295.2798	0.001863
295.4906	0.000385
295.7015	0.000470
295.9123	0.001968
296.1232	0.001145
296.3340	0.000111
296.5449	-0.000438
296.7558	0.001694
296.9667	0.000512
297.1777	-0.000691
297.3886	-0.000607
297.5995	0.001610
297.8105	-0.000058
298.0215	0.000786
298.2325	0.000195
298.4435	0.000069
298.6545	0.001525
298.8656	0.001145
299.0766	-0.001029
299.2877	-0.001092
299.4988	0.001398
299.7099	0.000385
299.9210	0.000997
300.1321	0.000639
300.3432	0.001757
300.5544	0.000385
300.7655	0.000850
300.9767	-0.000417
301.1879	-0.000227
301.3991	0.000617
301.6103	0.001314
301.8215	0.000575
302.0328	0.000343
302.2441	0.001103
302.4553	0.001546
302.6666	-0.000691
302.8779	0.000744
303.0892	-0.000269
303.3006	0.000554
303.5119	0.000322
303.7233	0.000850
303.9346	-0.000902
304.1460	0.001377
304.3574	0.001610
304.5688	0.001736
304.7803	0.000301
304.9917	0.001040
305.2031	0.000554
305.4146	-0.000522
305.6261	-0.000185
305.8376	0.000491
306.0491	0.000111
306.2606	0.001124
306.4722	0.000322
306.6837	0.000723
306.8953	0.000026
307.1069	0.001926
307.3184	0.000786
307.5301	0.001230
307.7417	0.000533
307.9533	0.000744
308.1650	-0.000164
308.3766	-0.000332
308.5883	-0.000100
308.8000	0.001314
309.0117	-0.000142
309.2234	-0.000058
309.4351	0.000575
309.6469	0.000385
309.8586	-0.000607
310.0704	0.001082
310.2822	0.000322
310.4940	0.000639
310.7058	0.000997
310.9176	0.000427
311.1295	0.000829
311.3413	0.000660
311.5532	0.000069
311.7651	0.001061
311.9770	-0.001092
312.1889	0.000997
312.4008	-0.000290
312.6127	0.000681
312.8247	0.000575
313.0366	-0.000079
313.2486	-0.001240
313.4606	0.000216
313.6726	-0.001536
313.8846	0.000892
314.0967	0.000301
314.3087	0.001103
314.5208	0.000153
314.7328	0.001061
314.9449	0.000364
315.1570	0.000132
315.3692	-0.000142
315.5813	-0.000734
315.7934	-0.000628
316.0056	0.000976
316.2177	-0.000522
316.4299	0.001420
316.6421	0.000132
316.8543	0.000660
317.0666	-0.000691
317.2788	0.000491
317.4911	0.000195
317.7033	0.000955
317.9156	-0.000058
318.1279	-0.000164
318.3402	0.000005
318.5525	0.001588
318.7649	-0.000607
318.9772	0.000364
319.1896	-0.000142
319.4019	0.000364
319.6143	0.001061
319.8267	0.000617
320.0392	0.000216
320.2516	0.001863
320.4640	0.000364
320.6765	0.001209
320.8890	0.001631
321.1014	0.000153
321.3139	-0.000417
321.5265	0.001757
321.7390	0.001272
321.9515	0.001209
322.1641	0.000026
322.3766	0.001103
322.5892	0.001209
322.8018	0.000069
323.0144	0.000491
323.2270	0.000026
323.4397	0.000512
323.6523	-0.000332
323.8650	-0.000860
324.0777	0.000765
324.2904	-0.000142
324.5031	0.000596
324.7158	0.001800
324.9285	-0.000924
325.1412	0.000111
325.3540	-0.000332
325.5668	0.000322
325.7796	0.000871
325.9924	0.001420
326.2052	-0.000142
326.4180	0.000744
326.6308	0.000871
326.8437	-0.000227
327.0566	0.001968
327.2694	-0.000185
327.4823	0.000449
327.6952	-0.000037
327.9082	0.001567
328.1211	0.000723
328.3340	0.000660
328.5470	-0.000607
328.7600	-0.000079
328.9730	-0.001620
329.1860	0.000153
329.3990	0.001103
329.6120	0.000280
329.8251	0.000301
330.0381	0.001377
330.2512	0.000090
330.4643	0.001335
330.6774	0.000829
330.8905	0.001441
331.1036	0.000765
331.3167	0.001778
331.5299	0.000449
331.7431	0.002011
331.9562	0.001863
332.1694	0.000195
332.3826	-0.000649
332.5959	0.002728
332.8091	0.001019
333.0223	0.000617
333.2356	-0.000269
333.4489	0.001504
333.6622	-0.001219
333.8755	0.000702
334.0888	-0.000185
334.3021	0.000132
334.5154	-0.001916
334.7288	-0.000016
334.9422	0.000892
335.1555	0.001567
335.3689	0.001420
335.5823	0.000617
335.7958	0.000069
336.0092	0.000343
336.2227	0.000090
336.4361	0.000575
336.6496	0.001398
336.8631	0.000871
337.0766	-0.000142
337.2901	-0.000396
337.5036	0.000681
337.7172	-0.000079
337.9307	-0.000142
338.1443	0.002306
338.3579	0.000639
338.5715	-0.000164
338.7851	0.001145
338.9987	-0.000079
339.2124	-0.000248
339.4260	0.000533
339.6397	-0.000839
339.8533	0.000681
340.0670	0.000892
340.2807	-0.000100
340.4945	-0.000755
340.7082	0.000913
340.9219	0.000913
341.1357	0.000554
341.3495	0.000491
341.5633	0.000871
341.7771	-0.000142
341.9909	-0.000121
342.2047	0.000871
342.4185	0.001145
342.6324	0.000195
342.8463	0.000385
343.0601	0.000976
343.2740	0.001968
343.4879	-0.000987
343.7019	0.001652
343.9158	-0.000269
344.1297	0.000596
344.3437	-0.000269
344.5577	0.001377
344.7717	-0.000058
344.9857	-0.000037
345.1997	0.000892
345.4137	0.000090
345.6277	0.000174
345.8418	0.002686
346.0559	0.001209
346.2699	0.001019
346.4840	-0.000121
346.6981	0.001209
346.9123	0.000617
347.1264	-0.000417
347.3406	-0.000311
347.5547	0.000174
347.7689	-0.000417
347.9831	0.001166
348.1973	-0.000459
348.4115	-0.000586
348.6257	0.001335
348.8400	0.002158
349.0542	0.000976
349.2685	0.001863
349.4828	0.000512
349.6971	0.001251
349.9114	-0.000185
350.1257	0.001082
350.3400	-0.000881
350.5544	0.001356
350.7687	-0.000438
350.9831	0.000005
351.1975	-0.000269
351.4119	0.001124
351.6263	-0.000776
351.8407	0.000892
352.0552	-0.000417
352.2696	-0.000522
352.4841	0.000892
352.6986	0.000892
352.9131	-0.000311
353.1276	0.000660
353.3421	-0.000290
353.5566	-0.000375
353.7712	0.000913
353.9858	0.001293
354.2003	0.000090
354.4149	-0.000586
354.6295	-0.000121
354.8441	0.002475
355.0588	0.000976
355.2734	0.000512
355.4881	-0.000016
355.7027	0.000005
355.9174	0.000069
356.1321	0.000871
356.3468	-0.000522
356.5615	0.000533
356.7763	0.000343
356.9910	0.000871
357.2058	-0.001325
357.4206	0.000660
357.6353	0.000005
357.8501	0.000617
358.0650	0.000153
358.2798	0.000427
358.4946	-0.000628
358.7095	0.000491
358.9243	0.000955
359.1392	0.000786
359.3541	-0.000522
359.5690	0.002243
359.7839	0.001483
359.9989	0.000575
360.2138	0.000554
360.4288	0.000153
360.6438	-0.000354
360.8587	0.000807
361.0737	0.000237
361.2888	0.000237
361.5038	-0.000354
361.7188	0.001610
361.9339	0.000153
362.1489	0.001567
362.3640	0.000681
362.5791	0.001736
362.7942	0.000237
363.0093	-0.001008
363.2245	-0.000206
363.4396	-0.000354
363.6548	0.000997
363.8699	0.000111
364.0851	-0.000206
364.3003	0.001040
364.5155	-0.001029
364.7308	0.000069
364.9460	0.000976
365.1612	0.001251
365.3765	-0.000459
365.5918	0.001082
365.8071	0.000660
366.0224	0.000892
366.2377	-0.000438
366.4530	0.000090
366.6684	0.000681
366.8837	0.000026
367.0991	0.001293
367.3145	0.001019
367.5299	0.000322
367.7453	-0.000142
367.9607	0.000385
368.1761	0.000892
368.3916	0.001757
368.6070	-0.000332
368.8225	0.001061
369.0380	0.000702
369.2535	0.000406
369.4690	0.000259
369.6845	-0.000396
369.9001	0.001736
370.1156	0.000575
370.3312	0.000723
370.5468	-0.000185
370.7624	0.001061
370.9780	0.000174
371.1936	-0.000565
371.4092	-0.000037
371.6249	0.000153
371.8405	-0.001261
372.0562	0.001631
372.2719	0.000111
372.4876	0.000195
372.7033	0.000385
372.9190	0.000913
373.1348	0.000153
373.3505	0.001842
373.5663	-0.000269
373.7820	0.000681
373.9978	0.000280
374.2136	-0.000712
374.4294	-0.001114
374.6453	0.001103
374.8611	0.001968
375.0770	0.001588
375.2928	0.000343
375.5087	0.000047
375.7246	0.000069
375.9405	-0.000755
376.1564	0.000470
376.3724	0.001736
376.5883	0.000216
376.8043	0.000997
377.0203	-0.000248
377.2362	-0.000185
377.4522	0.001209
377.6682	0.000406
377.8843	0.000512
378.1003	0.001778
378.3164	0.001187
378.5324	0.000934
378.7485	-0.001092
378.9646	0.001525
379.1807	0.000575
379.3968	-0.000375
379.6129	-0.000121
379.8291	0.000554
380.0452	0.000533
380.2614	0.000765
380.4776	0.001314
380.6938	0.000554
380.9100	0.001462
381.1262	0.001209
381.3424	-0.000734
381.5587	0.001631
381.7749	0.000850
381.9912	0.000132
382.2075	-0.000734
382.4238	0.001314
382.6401	-0.000206
382.8564	0.000259
383.0728	0.000639
383.2891	-0.000522
383.5055	-0.000354
383.7219	0.000111
383.9382	0.000237
384.1546	0.001061
384.3711	0.000322
384.5875	0.001019
384.8039	0.000512
385.0204	0.000237
385.2368	0.001335
385.4533	0.001272
385.6698	-0.000121
385.8863	0.001209
386.1028	-0.000607
386.3194	0.001420
386.5359	-0.000185
386.7525	0.001377
386.9690	0.001272
387.1856	0.001673
387.4022	0.001166
387.6188	0.001061
387.8355	0.001166
388.0521	0.001082
388.2687	0.001694
388.4854	-0.000755
388.7021	0.000069
388.9188	0.000491
389.1355	0.000322
389.3522	0.000259
389.5689	0.001061
389.7856	0.001588
390.0024	0.001398
390.2192	0.001251
390.4359	0.000596
390.6527	0.000660
390.8695	0.001356
391.0863	0.001778
391.3032	0.001019
391.5200	0.002222
391.7369	0.000512
391.9537	0.000934
392.1706	0.000449
392.3875	0.001019
392.6044	0.001082
392.8213	0.002876
393.0383	0.000596
393.2552	0.002454
393.4722	0.001757
393.6891	0.002876
393.9061	0.002095
394.1231	0.002644
394.3401	0.003721
394.5572	0.001546
394.7742	0.002433
394.9912	0.001947
395.2083	0.001124
395.4254	0.001968
395.6425	0.003383
395.8596	0.001884
396.0767	0.001356
396.2938	0.002602
396.5109	0.003129
396.7281	0.003087
396.9453	0.003066
397.1624	0.003721
397.3796	0.003277
397.5968	0.004290
397.8140	0.003129
398.0313	0.003362
398.2485	0.003847
398.4658	0.004924
398.6830	0.005219
398.9003	0.004396
399.1176	0.003552
399.3349	0.003509
399.5522	0.004523
399.7696	0.004079
399.9869	0.005346
400.2043	0.003868
400.4216	0.002285
400.6390	0.004882
400.8564	0.003193
401.0738	0.005473
401.2912	0.005072
401.5087	0.004903
401.7261	0.005705
401.9436	0.005789
402.1610	0.005050
402.3785	0.005599
402.5960	0.003594
402.8135	0.004692
403.0310	0.006064
403.2486	0.005705
403.4661	0.006549
403.6837	0.005768
403.9013	0.006971
404.1189	0.007372
404.3365	0.003974
404.5541	0.005367
404.7717	0.008618
404.9893	0.006317
405.2070	0.007415
405.4246	0.007140
405.6423	0.006739
405.8600	0.008027
406.0777	0.006739
406.2954	0.007647
406.5131	0.006254
406.7309	0.006570
406.9486	0.006444
407.1664	0.006423
407.3842	0.006465
407.6020	0.007014
407.8198	0.008998
408.0376	0.007985
408.2554	0.008027
408.4733	0.009589
408.6911	0.007647
408.9090	0.008745
409.1269	0.007921
409.3448	0.007647
409.5627	0.009716
409.7806	0.008576
409.9985	0.007541
410.2165	0.007457
410.4344	0.008913
410.6524	0.009103
410.8704	0.009610
411.0884	0.008217
411.3064	0.008977
411.5244	0.010391
411.7424	0.011362
411.9605	0.009462
412.1785	0.010560
412.3966	0.010644
412.6147	0.009631
412.8328	0.009842
413.0509	0.011763
413.2690	0.009357
413.4871	0.009483
413.7053	0.010032
413.9234	0.010391
414.1416	0.011404
414.3598	0.010518
414.5780	0.009779
414.7962	0.010687
415.0144	0.011404
415.2326	0.010813
415.4509	0.010771
415.6692	0.012059
415.8874	0.012375
416.1057	0.012207
416.3240	0.010687
416.5423	0.012354
416.7606	0.011615
416.9790	0.012249
417.1973	0.012966
417.4157	0.014486
417.6341	0.013072
417.8524	0.013030
418.0708	0.011953
418.2893	0.012966
418.5077	0.013178
418.7261	0.013790
418.9446	0.012418
419.1630	0.013241
419.3815	0.013178
419.6000	0.013072
419.8185	0.013304
420.0370	0.014085
420.2555	0.014106
420.4741	0.015605
420.6926	0.015647
420.9112	0.015204
421.1298	0.016112
421.3483	0.014887
421.5669	0.016977
421.7856	0.017969
422.0042	0.016323
422.2228	0.018054
422.4415	0.016956
422.6601	0.016745
422.8788	0.016006
423.0975	0.017737
423.3162	0.015310
423.5349	0.017653
423.7536	0.015964
423.9724	0.016027
424.1911	0.017209
424.4099	0.016281
424.6287	0.018729
424.8475	0.017273
425.0663	0.014761
425.2851	0.020017
425.5039	0.015563
425.7228	0.017083
425.9416	0.016407
426.1605	0.015394
426.3793	0.016661
426.5982	0.016091
426.8171	0.015795
427.0361	0.017885
427.2550	0.015858
427.4739	0.019278
427.6929	0.018012
427.9118	0.018286
428.1308	0.018286
428.3498	0.018265
428.5688	0.017378
428.7878	0.016956
429.0068	0.018455
429.2259	0.018370
429.4449	0.018138
429.6640	0.020460
429.8831	0.020207
430.1022	0.022107
430.3213	0.020481
430.5404	0.021431
430.7595	0.020503
430.9787	0.021347
431.1978	0.019447
431.4170	0.019954
431.6362	0.020439
431.8553	0.019447
432.0745	0.017653
432.2938	0.017188
432.5130	0.016386
432.7322	0.017674
432.9515	0.017231
433.1707	0.018772
433.3900	0.018434
433.6093	0.018392
433.8286	0.021706
434.0479	0.019911
434.2673	0.021262
434.4866	0.020756
434.7059	0.018835
434.9253	0.019025
435.1447	0.020481
435.3641	0.020460
435.5835	0.019278
435.8029	0.021136
436.0223	0.019510
436.2418	0.022360
436.4612	0.020798
436.6807	0.020671
436.9001	0.021727
437.1196	0.020397
437.3391	0.019954
437.5586	0.019954
437.7782	0.020524
437.9977	0.022065
438.2173	0.021706
438.4368	0.020967
438.6564	0.021811
438.8760	0.021600
439.0956	0.021917
439.3152	0.021938
439.5348	0.021854
439.7545	0.020671
439.9741	0.020861
440.1938	0.020882
440.4135	0.020545
440.6331	0.018624
440.8528	0.021474
441.0725	0.023563
441.2923	0.024767
441.5120	0.026371
441.7318	0.024935
441.9515	0.025674
442.1713	0.024661
442.3911	0.026434
442.6109	0.024176
442.8307	0.024703
443.0505	0.023584
443.2703	0.023943
443.4902	0.026286
443.7101	0.024302
443.9299	0.022022
444.1498	0.024323
444.3697	0.023711
444.5896	0.023943
444.8095	0.024049
445.0295	0.024154
445.2494	0.024028
445.4694	0.023901
445.6894	0.021769
445.9093	0.023141
446.1293	0.023479
446.3493	0.023669
446.5694	0.023859
446.7894	0.022001
447.0094	0.024028
447.2295	0.024830
447.4496	0.020207
447.6696	0.021959
447.8897	0.022445
448.1098	0.022149
448.3300	0.020882
448.5501	0.022529
448.7702	0.022592
448.9904	0.021832
449.2106	0.020967
449.4307	0.020946
449.6509	0.020207
449.8711	0.022508
450.0914	0.020840
450.3116	0.021305
450.5318	0.020756
450.7521	0.020650
450.9724	0.019341
451.1926	0.022001
451.4129	0.017041
451.6332	0.019510
451.8535	0.019890
452.0739	0.019278
452.2942	0.019869
452.5146	0.019637
452.7349	0.019679
452.9553	0.020059
453.1757	0.017526
453.3961	0.018603
453.6165	0.016133
453.8369	0.018392
454.0574	0.018582
454.2778	0.016534
454.4983	0.016513
454.7188	0.017547
454.9393	0.017083
455.1597	0.019046
455.3803	0.018392
455.6008	0.018265
455.8213	0.016576
456.0419	0.018476
456.2624	0.016407
456.4830	0.017801
456.7036	0.016893
456.9242	0.017589
457.1448	0.017969
457.3654	0.016323
457.5860	0.017568
457.8067	0.015331
458.0274	0.017653
458.2480	0.017674
458.4687	0.017611
458.6894	0.019721
458.9101	0.017294
459.1308	0.017231
459.3516	0.015922
459.5723	0.015056
459.7931	0.016154
460.0138	0.018075
460.2346	0.016998
460.4554	0.016091
460.6762	0.015162
460.8970	0.014930
461.1178	0.016006
461.3387	0.016555
461.5595	0.014001
461.7804	0.015922
462.0013	0.014592
462.2222	0.014106
462.4431	0.013030
462.6640	0.014022
462.8849	0.013579
463.1059	0.012228
463.3268	0.014275
463.5478	0.014381
463.7687	0.015352
463.9897	0.014085
464.2107	0.013937
464.4317	0.014296
464.6528	0.016956
464.8738	0.014972
465.0948	0.016027
465.3159	0.013916
465.5370	0.015985
465.7581	0.014254
465.9792	0.014423
466.2003	0.012312
466.4214	0.012692
466.6425	0.012101
466.8637	0.012460
467.0848	0.012776
467.3060	0.011383
467.5272	0.010708
467.7484	0.010898
467.9696	0.012439
468.1908	0.011341
468.4120	0.010518
468.6333	0.012819
468.8545	0.010391
469.0758	0.011721
469.2970	0.009694
469.5183	0.009737
469.7396	0.008681
469.9610	0.009863
470.1823	0.008555
470.4036	0.008808
470.6250	0.008829
470.8463	0.008069
471.0677	0.009378
471.2891	0.009842
471.5105	0.008913
471.7319	0.008048
471.9533	0.009019
472.1748	0.009694
472.3962	0.007837
472.6177	0.009420
472.8391	0.007626
473.0606	0.008745
473.2821	0.008702
473.5036	0.009526
473.7251	0.008956
473.9467	0.008808
474.1682	0.009209
474.3898	0.005895
474.6113	0.006613
474.8329	0.008217
475.0545	0.007774
475.2761	0.008977
475.4977	0.008428
475.7193	0.008576
475.9410	0.008069
476.1626	0.008639
476.3843	0.007752
476.6060	0.009969
476.8277	0.008850
477.0494	0.007584
477.2711	0.007562
477.4928	0.005979
477.7145	0.007795
477.9363	0.008449
478.1580	0.006887
478.3798	0.008217
478.6016	0.006781
478.8234	0.007795
479.0452	0.008470
479.2670	0.006803
479.4888	0.006845
479.7107	0.006169
479.9325	0.006254
480.1544	0.006528
480.3763	0.007246
480.5982	0.007267
480.8201	0.006444
481.0420	0.006064
481.2639	0.005726
481.4859	0.005895
481.7078	0.007837
481.9298	0.005810
482.1517	0.007098
482.3737	0.006971
482.5957	0.007541
482.8177	0.007077
483.0398	0.005663
483.2618	0.007288
483.4838	0.006423
483.7059	0.006380
483.9280	0.006233
484.1501	0.006148
484.3721	0.005726
484.5943	0.008006
484.8164	0.006296
485.0385	0.005135
485.2606	0.006486
485.4828	0.008196
485.7050	0.014085
485.9271	0.018539
486.1493	0.018814
486.3715	0.016260
486.5937	0.013494
486.8160	0.011763
487.0382	0.009483
487.2605	0.008702
487.4827	0.008048
487.7050	0.008090
487.9273	0.007119
488.1496	0.004459
488.3719	0.005156
488.5942	0.005452
488.8165	0.004544
489.0389	0.005219
489.2612	0.004839
489.4836	0.006000
489.7060	0.002897
489.9284	0.005029
490.1508	0.005177
490.3732	0.003742
490.5956	0.004607
490.8180	0.004269
491.0405	0.004185
491.2630	0.004523
491.4854	0.004818
491.7079	0.006317
491.9304	0.003172
492.1529	0.004523
492.3755	0.002876
492.5980	0.004248
492.8205	0.004290
493.0431	0.004396
493.2657	0.003594
493.4882	0.005325
493.7108	0.002897
493.9334	0.004797
494.1561	0.003742
494.3787	0.003341
494.6013	0.004776
494.8240	0.004375
495.0466	0.003889
495.2693	0.003721
495.4920	0.003235
495.7147	0.004755
495.9374	0.003763
496.1601	0.004248
496.3829	0.004438
496.6056	0.004122
496.8284	0.004185
497.0511	0.004903
497.2739	0.002095
497.4967	0.003699
497.7195	0.005156
497.9423	0.004269
498.1652	0.004797
498.3880	0.003763
498.6109	0.002285
498.8337	0.003889
499.0566	0.002771
499.2795	0.004649
499.5024	0.002454
499.7253	0.005409
499.9482	0.004248
500.1712	0.003889
500.3941	0.004290
500.6171	0.003573
500.8400	0.003404
501.0630	0.003235
501.2860	0.003974
501.5090	0.004333
501.7320	0.003678
501.9551	0.003742
502.1781	0.003594
502.4012	0.002370
502.6242	0.005114
502.8473	0.004544
503.0704	0.002475
503.2935	0.002581
503.5166	0.002116
503.7397	0.003868
503.9628	0.002728
504.1860	0.004502
504.4092	0.002538
504.6323	0.003636
504.8555	0.002433
505.0787	0.003657
505.3019	0.002897
505.5251	0.003847
505.7483	0.004101
505.9716	0.002623
506.1948	0.001525
506.4181	0.004290
506.6414	0.002517
506.8647	0.004396
507.0880	0.003552
507.3113	0.003594
507.5346	0.003024
507.7579	0.004079
507.9813	0.003404
508.2046	0.003678
508.4280	0.003404
508.6514	0.004016
508.8748	0.001947
509.0982	0.004290
509.3216	0.003298
509.5450	0.004333
509.7685	0.003024
509.9919	0.003953
510.2154	0.002560
510.4388	0.002813
510.6623	0.001736
510.8858	0.001968
511.1093	0.002918
511.3329	0.004924
511.5564	0.001441
511.7799	0.003214
512.0035	0.003235
512.2270	0.005008
512.4506	0.003615
512.6742	0.004312
512.8978	0.002327
513.1214	0.004354
513.3451	0.003024
513.5687	0.003298
513.7923	0.002137
514.0160	0.002728
514.2397	0.002581
514.4634	0.003573
514.6871	0.002792
514.9108	0.003383
515.1345	0.002707
515.3582	0.003172
515.5819	0.001842
515.8057	0.002433
516.0295	0.002327
516.2532	0.002475
516.4770	0.002855
516.7008	0.002644
516.9246	0.002348
517.1485	0.004227
517.3723	0.002728
517.5961	0.003362
517.8200	0.003657
518.0439	0.004459
518.2677	0.002285
518.4916	0.001947
518.7155	0.003615
518.9395	0.004185
519.1634	0.003256
519.3873	0.001335
519.6113	0.002180
519.8352	0.005156
520.0592	0.004565
520.2832	0.003193
520.5072	0.003805
520.7312	0.003552
520.9552	0.002855
521.1792	0.003995
521.4033	0.003995
521.6273	0.003066
521.8514	0.003552
522.0755	0.003889
522.2996	0.004354
522.5237	0.003657
522.7478	0.003341
522.9719	0.001356
523.1960	0.005726
523.4202	0.002939
523.6443	0.005198
523.8685	0.003953
524.0927	0.003974
524.3169	0.003995
524.5411	0.002918
524.7653	0.004523
524.9895	0.003763
525.2138	0.003742
525.4380	0.003425
525.6623	0.003193
525.8865	0.003953
526.1108	0.003742
526.3351	0.004101
526.5594	0.005008
526.7837	0.004058
527.0081	0.004480
527.2324	0.005198
527.4568	0.004290
527.6811	0.002939
527.9055	0.003953
528.1299	0.004248
528.3543	0.004333
528.5787	0.004607
528.8031	0.003657
529.0276	0.004185
529.2520	0.004882
529.4765	0.005515
529.7009	0.004818
529.9254	0.006148
530.1499	0.004818
530.3744	0.005557
530.5989	0.006169
530.8234	0.006401
531.0480	0.005156
531.2725	0.006338
531.4971	0.004903
531.7217	0.005874
531.9462	0.004628
532.1708	0.005494
532.3954	0.004839
532.6200	0.005304
532.8447	0.004459
533.0693	0.007478
533.2940	0.006845
533.5186	0.006950
533.7433	0.006190
533.9680	0.006613
534.1927	0.007035
534.4174	0.007921
534.6421	0.007584
534.8668	0.007351
535.0916	0.006950
535.3163	0.007985
535.5411	0.007267
535.7659	0.007457
535.9907	0.008597
536.2155	0.008512
536.4403	0.007309
536.6651	0.008343
536.8899	0.007457
537.1148	0.007942
537.3396	0.008111
537.5645	0.008702
537.7894	0.008787
538.0143	0.008343
538.2392	0.008449
538.4641	0.010539
538.6890	0.007879
538.9139	0.009884
539.1389	0.008428
539.3638	0.009863
539.5888	0.008512
539.8138	0.009884
540.0388	0.008386
540.2638	0.009568
540.4888	0.011045
540.7138	0.010982
540.9389	0.010180
541.1639	0.010264
541.3890	0.009441
541.6140	0.010412
541.8391	0.010476
542.0642	0.011890
542.2893	0.011172
542.5144	0.012966
542.7396	0.011974
542.9647	0.011425
543.1899	0.011974
543.4150	0.013262
543.6402	0.012713
543.8654	0.012988
544.0906	0.013895
544.3158	0.013494
544.5410	0.013790
544.7662	0.014993
544.9915	0.014634
545.2167	0.017969
545.4420	0.013156
545.6673	0.013811
545.8926	0.014275
546.1179	0.014571
546.3432	0.014550
546.5685	0.013494
546.7938	0.015099
547.0192	0.015816
547.2445	0.017336
547.4699	0.015880
547.6953	0.017927
547.9206	0.018687
548.1460	0.018307
548.3715	0.019341
548.5969	0.018666
548.8223	0.018075
549.0478	0.017188
549.2732	0.017716
549.4987	0.015584
549.7242	0.016998
549.9496	0.016745
550.1751	0.017864
550.4007	0.017526
550.6262	0.017632
550.8517	0.017674
551.0773	0.016914
551.3028	0.018012
551.5284	0.016808
551.7540	0.017632
551.9796	0.018328
552.2052	0.019785
552.4308	0.021516
552.6564	0.021262
552.8820	0.021727
553.1077	0.022888
553.3333	0.020882
553.5590	0.020777
553.7847	0.022360
554.0104	0.021642
554.2361	0.023057
554.4618	0.021685
554.6875	0.020376
554.9132	0.020608
555.1390	0.022065
555.3648	0.023542
555.5905	0.024492
555.8163	0.023732
556.0421	0.025189
556.2679	0.024661
556.4937	0.024640
556.7195	0.023964
556.9454	0.023458
557.1712	0.023183
557.3971	0.026054
557.6230	0.024703
557.8488	0.026350
558.0747	0.024767
558.3006	0.024788
558.5266	0.024007
558.7525	0.023458
558.9784	0.023901
559.2044	0.024133
559.4303	0.023690
559.6563	0.025463
559.8823	0.024999
560.1083	0.029305
560.3343	0.029242
560.5603	0.029917
560.7863	0.029727
561.0124	0.031437
561.2384	0.031923
561.4645	0.032303
561.6905	0.031965
561.9166	0.030719
562.1427	0.033063
562.3688	0.031817
562.5949	0.032303
562.8211	0.030466
563.0472	0.032873
563.2733	0.032324
563.4995	0.033189
563.7257	0.032957
563.9519	0.034794
564.1781	0.036398
564.4043	0.035997
564.6305	0.036630
564.8567	0.036736
565.0829	0.036503
565.3092	0.038572
565.5355	0.039332
565.7617	0.038889
565.9880	0.038002
566.2143	0.038023
566.4406	0.040641
566.6669	0.040282
566.8932	0.043047
567.1196	0.045834
567.3459	0.046340
567.5723	0.050309
567.7987	0.051111
568.0250	0.053834
568.2514	0.055417
568.4778	0.057951
568.7043	0.061539
568.9307	0.064727
569.1571	0.069624
569.3836	0.072495
569.6100	0.080115
569.8365	0.089171
570.0630	0.093921
570.2895	0.098016
570.5160	0.098713
570.7425	0.097636
570.9690	0.103652
571.1956	0.114904
571.4221	0.115769
571.6487	0.116107
571.8752	0.125712
572.1018	0.132678
572.3284	0.127464
572.5550	0.120899
572.7816	0.114524
573.0082	0.109774
573.2349	0.117395
573.4615	0.131580
573.6882	0.141333
573.9149	0.144837
574.1415	0.149671
574.3682	0.155054
574.5949	0.163202
574.8216	0.164828
575.0484	0.165060
575.2751	0.167593
575.5018	0.168479
575.7286	0.159339
575.9554	0.150874
576.1821	0.149185
576.4089	0.152352
576.6357	0.164194
576.8626	0.173018
577.0894	0.172680
577.3162	0.179119
577.5431	0.181420
577.7699	0.203057
577.9968	0.233855
578.2237	0.228916
578.4505	0.210276
578.6774	0.204408
578.9044	0.193937
579.1313	0.182369
579.3582	0.182623
579.5851	0.193600
579.8121	0.200566
580.0391	0.199721
580.2660	0.197843
580.4930	0.199911
580.7200	0.193705
580.9470	0.202254
581.1741	0.228557
581.4011	0.275377
581.6281	0.302862
581.8552	0.310989
582.0822	0.297078
582.3093	0.290386
582.5364	0.276538
582.7635	0.248146
582.9906	0.228050
583.2177	0.213632
583.4449	0.201305
583.6720	0.190940
583.8991	0.183678
584.1263	0.187288
584.3535	0.191088
584.5807	0.194803
584.8079	0.202254
585.0351	0.221084
585.2623	0.222372
585.4895	0.224250
585.7167	0.222498
585.9440	0.216377
586.1713	0.205569
586.3985	0.196154
586.6258	0.189040
586.8531	0.195373
587.0804	0.205041
587.3077	0.215912
587.5350	0.219459
587.7624	0.216630
587.9897	0.208144
588.2171	0.198983
588.4445	0.194972
588.6718	0.190095
588.8992	0.180786
589.1266	0.169113
589.3540	0.161724
589.5815	0.159719
589.8089	0.161914
590.0363	0.155075
590.2638	0.148426
590.4913	0.147117
590.7187	0.139560
590.9462	0.132045
591.1737	0.131158
591.4012	0.124572
591.6288	0.126113
591.8563	0.124466
592.0838	0.121574
592.3114	0.129047
592.5389	0.147243
592.7665	0.174221
592.9941	0.190687
593.2217	0.190581
593.4493	0.192249
593.6769	0.193156
593.9046	0.185261
594.1322	0.177915
594.3598	0.166622
594.5875	0.163392
594.8152	0.176142
595.0429	0.187077
595.2705	0.192080
595.4983	0.189589
595.7260	0.181314
595.9537	0.171203
596.1814	0.159993
596.4092	0.149122
596.6369	0.141122
596.8647	0.135781
597.0925	0.138589
597.3203	0.146209
597.5481	0.148573
597.7759	0.144056
598.0037	0.141438
598.2315	0.135591
598.4594	0.136478
598.6872	0.153323
598.9151	0.169071
599.1430	0.177958
599.3709	0.180111
599.5988	0.171815
599.8267	0.170189
600.0546	0.175657
600.2825	0.176881
600.5105	0.177388
600.7384	0.175636
600.9664	0.180111
601.1944	0.177915
601.4223	0.180153
601.6503	0.173862
601.8783	0.166516
602.1064	0.162569
602.3344	0.158727
602.5624	0.162949
602.7905	0.166791
603.0185	0.169472
603.2466	0.173715
603.4747	0.182158
603.7028	0.186866
603.9309	0.178169
604.1590	0.172659
604.3871	0.164469
604.6152	0.154611
604.8434	0.151128
605.0715	0.151275
605.2997	0.153998
605.5279	0.162674
605.7561	0.165397
605.9843	0.171203
606.2125	0.168817
606.4407	0.160458
606.6689	0.156236
606.8972	0.155962
607.1254	0.153112
607.3537	0.156700
607.5819	0.152732
607.8102	0.157080
608.0385	0.150093
608.2668	0.147159
608.4951	0.142367
608.7235	0.141122
608.9518	0.138483
609.1801	0.137026
609.4085	0.126831
609.6369	0.127591
609.8653	0.133417
610.0936	0.148510
610.3220	0.147539
610.5505	0.146357
610.7789	0.138209
611.0073	0.137259
611.2357	0.133332
611.4642	0.134367
611.6927	0.135612
611.9211	0.131791
612.1496	0.132002
612.3781	0.125838
612.6066	0.127147
612.8351	0.123896
613.0637	0.130081
613.2922	0.124002
613.5208	0.126683
613.7493	0.127675
613.9779	0.125691
614.2065	0.124171
614.4351	0.124973
614.6637	0.125374
614.8923	0.124129
615.1209	0.122144
615.3495	0.125226
615.5782	0.128709
615.8068	0.127105
616.0355	0.120899
616.2642	0.118703
616.4929	0.114249
616.7216	0.112919
616.9503	0.107072
617.1790	0.106967
617.4077	0.106798
617.6365	0.109120
617.8652	0.113722
618.0940	0.108022
618.3227	0.102597
618.5515	0.099874
618.7803	0.094217
619.0091	0.089340
619.2379	0.087145
619.4667	0.087546
619.6956	0.088686
619.9244	0.093203
620.1533	0.093583
620.3821	0.093942
620.6110	0.092443
620.8399	0.087736
621.0688	0.082522
621.2977	0.072938
621.5266	0.072769
621.7556	0.074395
621.9845	0.079356
622.2135	0.081424
622.4424	0.083282
622.6714	0.082860
622.9004	0.085709
623.1294	0.083409
623.3584	0.088390
623.5874	0.088095
623.8164	0.085393
624.0454	0.082817
624.2745	0.084337
624.5035	0.085055
624.7326	0.086702
624.9617	0.087377
625.1908	0.085076
625.4199	0.083050
625.6490	0.076274
625.8781	0.081108
626.1072	0.076041
626.3364	0.074416
626.5655	0.069645
626.7947	0.069096
627.0238	0.069392
627.2530	0.069941
627.4822	0.066922
627.7114	0.069160
627.9406	0.066521
628.1698	0.063777
628.3991	0.057887
628.6283	0.055312
628.8576	0.057001
629.0868	0.061793
629.3161	0.059576
629.5454	0.062595
629.7747	0.060526
630.0040	0.060146
630.2333	0.058626
630.4626	0.057170
630.6920	0.055755
630.9213	0.056578
631.1507	0.052167
631.3801	0.051301
631.6094	0.050668
631.8388	0.051892
632.0682	0.050182
632.2976	0.050246
632.5271	0.047375
632.7565	0.047839
632.9859	0.044567
633.2154	0.043554
633.4448	0.043533
633.6743	0.044082
633.9038	0.044905
634.1333	0.043554
634.3628	0.041971
634.5923	0.043723
634.8218	0.039079
635.0514	0.041021
635.2809	0.039923
635.5105	0.040831
635.7400	0.040662
635.9696	0.041844
636.1992	0.044694
636.4288	0.044778
636.6584	0.046214
636.8880	0.044483
637.1177	0.042900
637.3473	0.043047
637.5770	0.040768
637.8066	0.039775
638.0363	0.039248
638.2660	0.040388
638.4957	0.041295
638.7254	0.042477
638.9551	0.044525
639.1848	0.039860
639.4145	0.039522
639.6443	0.037565
639.8740	0.037808
640.1038	0.037477
640.3336	0.036937
640.5633	0.037797
640.7931	0.034328
641.0229	0.033593
641.2528	0.036498
641.4826	0.032034
641.7124	0.033917
641.9423	0.030003
642.1721	0.031972
642.4020	0.028979
642.6319	0.030345
642.8617	0.028430
643.0916	0.030448
643.3216	0.029932
643.5515	0.028607
643.7814	0.028531
644.0113	0.028284
644.2413	0.026993
644.4712	0.027909
644.7012	0.027258
644.9312	0.026901
645.1612	0.028492
645.3912	0.025403
645.6212	0.026883
645.8512	0.026296
646.0812	0.025368
646.3113	0.024124
646.5413	0.023909
646.7714	0.024762
647.0015	0.022130
647.2316	0.022898
647.4616	0.025774
647.6918	0.024978
647.9219	0.026289
648.1520	0.027651
648.3821	0.030997
648.6123	0.029747
648.8424	0.032500
649.0726	0.032938
649.3028	0.035292
649.5329	0.031721
649.7631	0.032867
649.9933	0.033788
650.2236	0.029800
650.4538	0.031309
650.6840	0.027108
650.9143	0.029498
651.1445	0.030569
651.3748	0.029287
651.6051	0.029958
651.8354	0.030268
652.0657	0.030211
652.2960	0.029665
652.5263	0.031620
652.7566	0.029013
652.9870	0.032547
653.2173	0.031111
653.4477	0.034134
653.6780	0.033734
653.9084	0.032613
654.1388	0.033554
654.3692	0.034821
654.5996	0.036841
654.8300	0.039904
655.0605	0.064304
655.2909	0.184383
655.5213	0.521509
655.7518	0.938404
655.9823	1.000000
656.2128	1.000000
656.4433	1.000000
656.6738	1.000000
656.9043	1.000000
657.1348	0.856168
657.3653	0.694554
657.5959	0.598767
657.8264	0.528436
658.0570	0.478448
658.2875	0.443524
658.5181	0.406393
658.7487	0.374685
658.9793	0.364786
659.2099	0.327063
659.4406	0.250705
659.6712	0.165481
659.9018	0.096534
660.1325	0.061110
660.3632	0.037830
660.5938	0.032368
660.8245	0.024266
661.0552	0.024930
661.2859	0.025117
661.5166	0.023720
661.7474	0.022729
661.9781	0.022680
662.2088	0.025401
662.4396	0.023274
662.6704	0.021726
662.9011	0.022131
663.1319	0.020362
663.3627	0.021181
663.5935	0.021234
663.8243	0.019034
664.0552	0.019382
664.2860	0.023296
664.5168	0.023693
664.7477	0.023244
664.9786	0.022864
665.2094	0.027171
665.4403	0.024050
665.6712	0.025310
665.9021	0.021798
666.1330	0.022726
666.3640	0.022590
666.5949	0.023539
666.8259	0.021102
667.0568	0.020302
667.2878	0.021178
667.5188	0.022507
667.7497	0.021051
667.9807	0.022039
668.2117	0.020086
668.4428	0.021009
668.6738	0.019468
668.9048	0.021537
669.1359	0.020439
669.3669	0.021220
669.5980	0.021410
669.8291	0.021748
670.0602	0.019447
670.2913	0.019954
670.5224	0.020882
670.7535	0.022149
670.9846	0.021706
671.2157	0.024471
671.4469	0.027912
671.6781	0.027764
671.9092	0.030086
672.1404	0.032535
672.3716	0.031627
672.6028	0.032387
672.8340	0.032493
673.0652	0.032324
673.2964	0.030846
673.5277	0.030318
673.7589	0.027996
673.9902	0.029136
674.2214	0.026814
674.4527	0.028651
674.6840	0.025864
674.9153	0.025907
675.1466	0.026941
675.3779	0.026202
675.6093	0.026392
675.8406	0.025928
676.0719	0.026181
676.3033	0.026835
676.5347	0.023711
676.7661	0.023226
676.9974	0.025062
677.2288	0.024513
677.4602	0.025822
677.6917	0.026265
677.9231	0.028250
678.1545	0.029495
678.3860	0.026878
678.6174	0.030783
678.8489	0.031311
679.0804	0.031184
679.3119	0.032957
679.5434	0.035068
679.7749	0.035933
680.0064	0.035131
680.2379	0.035490
680.4694	0.036271
680.7010	0.033337
680.9325	0.034181
681.1641	0.035680
681.3957	0.034245
681.6273	0.034878
681.8589	0.034013
682.0905	0.033126
682.3221	0.033358
682.5537	0.031479
682.7854	0.030719
683.0170	0.032155
683.2487	0.029347
683.4803	0.031522
683.7120	0.031733
683.9437	0.032070
684.1754	0.031226
684.4071	0.034878
684.6388	0.034688
684.8705	0.039353
685.1023	0.041359
685.3340	0.039881
685.5658	0.042245
685.7975	0.047628
686.0293	0.044335
686.2611	0.044419
686.4929	0.042456
686.7247	0.044103
686.9565	0.044588
687.1883	0.045222
687.4202	0.045179
687.6520	0.044039
687.8838	0.042562
688.1157	0.041211
688.3476	0.038446
688.5795	0.035891
688.8114	0.036820
689.0433	0.035659
689.2752	0.038361
689.5071	0.036778
689.7390	0.034709
689.9710	0.035279
690.2029	0.036820
690.4349	0.034456
690.6669	0.033506
690.8988	0.034540
691.1308	0.037327
691.3628	0.038340
691.5948	0.039248
691.8269	0.037833
692.0589	0.036799
692.2909	0.037854
692.5230	0.038551
692.7550	0.037327
692.9871	0.039290
693.2192	0.039142
693.4513	0.039670
693.6834	0.038699
693.9155	0.036525
694.1476	0.035743
694.3797	0.033485
694.6119	0.035870
694.8440	0.032852
695.0762	0.033633
695.3083	0.034751
695.5405	0.034287
695.7727	0.029136
696.0049	0.030931
696.2371	0.028651
696.4693	0.031121
696.7016	0.036715
696.9338	0.039923
697.1660	0.040176
697.3983	0.040409
697.6306	0.036883
697.8628	0.036377
698.0951	0.039670
698.3274	0.039142
698.5597	0.036081
698.7920	0.038910
699.0243	0.036989
699.2567	0.035722
699.4890	0.035638
699.7214	0.034160
699.9537	0.032598
700.1861	0.030973
700.4185	0.030171
700.6509	0.032873
700.8833	0.029854
701.1157	0.030023
701.3481	0.027321
701.5806	0.027637
701.8130	0.029960
702.0454	0.030213
702.2779	0.028988
702.5104	0.030044
702.7429	0.032113
702.9753	0.030339
703.2078	0.029390
703.4403	0.029200
703.6729	0.028207
703.9054	0.029770
704.1379	0.026772
704.3705	0.028229
704.6030	0.025695
704.8356	0.027659
705.0682	0.025400
705.3008	0.024703
705.5334	0.023310
705.7660	0.023078
705.9986	0.024534
706.2312	0.026244
706.4638	0.030128
706.6965	0.033274
706.9291	0.034076
707.1618	0.036715
707.3945	0.036905
707.6272	0.037876
707.8599	0.037116
708.0926	0.035680
708.3253	0.036862
708.5580	0.038699
708.7907	0.036250
709.0235	0.035152
709.2562	0.031163
709.4890	0.033654
709.7217	0.034181
709.9545	0.036335
710.1873	0.033020
710.4201	0.034076
710.6529	0.035279
710.8857	0.034266
711.1186	0.032619
711.3514	0.033168
711.5842	0.032429
711.8171	0.028925
712.0500	0.026899
712.2828	0.028186
712.5157	0.029960
712.7486	0.028503
712.9815	0.028334
713.2144	0.029875
713.4474	0.030128
713.6803	0.032957
713.9132	0.034772
714.1462	0.035448
714.3791	0.036419
714.6121	0.036102
714.8451	0.034224
715.0781	0.035237
715.3111	0.035131
715.5441	0.033590
715.7771	0.033189
716.0102	0.032936
716.2432	0.031142
716.4762	0.029390
716.7093	0.028123
716.9424	0.029643
717.1754	0.026582
717.4085	0.028651
717.6416	0.027954
717.8747	0.028672
718.1078	0.029791
718.3410	0.028292
718.5741	0.027574
718.8072	0.028334
719.0404	0.029010
719.2736	0.027870
719.5067	0.030994
719.7399	0.031754
719.9731	0.029453
720.2063	0.030318
720.4395	0.029706
720.6727	0.028820
720.9060	0.031057
721.1392	0.029685
721.3725	0.028841
721.6057	0.030403
721.8390	0.028440
722.0723	0.029495
722.3055	0.027553
722.5388	0.028841
722.7721	0.028672
723.0055	0.024978
723.2388	0.027490
723.4721	0.026603
723.7055	0.029368
723.9388	0.027173
724.1722	0.028883
724.4056	0.027384
724.6389	0.025970
724.8723	0.028609
725.1057	0.029115
725.3391	0.031902
725.5726	0.031902
725.8060	0.033189
726.0394	0.032070
726.2729	0.033548
726.5063	0.033928
726.7398	0.032873
726.9733	0.032113
727.2068	0.032028
727.4403	0.030846
727.6738	0.033823
727.9073	0.032619
728.1408	0.035195
728.3743	0.035511
728.6079	0.033464
728.8414	0.033569
729.0750	0.035448
729.3086	0.035152
729.5421	0.037242
729.7757	0.034794
730.0093	0.035849
730.2429	0.035891
730.4766	0.036145
730.7102	0.039163
730.9438	0.043090
731.1775	0.043047
731.4111	0.042055
731.6448	0.041739
731.8785	0.042435
732.1122	0.040894
732.3458	0.039353
732.5795	0.039670
732.8133	0.042309
733.0470	0.044863
733.2807	0.042900
733.5145	0.041506
733.7482	0.045855
733.9820	0.047164
734.2157	0.048135
734.4495	0.052927
734.6833	0.050161
734.9171	0.048705
735.1509	0.047797
735.3847	0.047248
735.6185	0.050731
735.8524	0.046129
736.0862	0.049507
736.3201	0.049507
736.5539	0.047797
736.7878	0.048050
737.0217	0.047501
737.2556	0.047649
737.4895	0.045158
737.7234	0.045137
737.9573	0.043934
738.1912	0.041105
738.4252	0.040366
738.6591	0.041105
738.8931	0.040324
739.1271	0.044061
739.3610	0.045918
739.5950	0.046720
739.8290	0.045412
740.0630	0.042752
740.2970	0.042625
740.5310	0.041105
740.7651	0.037538
740.9991	0.036546
741.2332	0.035701
741.4672	0.033020
741.7013	0.033105
741.9354	0.033274
742.1695	0.033886
742.4036	0.034076
742.6377	0.035026
742.8718	0.034139
743.1059	0.033675
743.3400	0.032915
743.5742	0.030508
743.8083	0.029305
744.0425	0.030783
744.2767	0.029960
744.5108	0.029495
744.7450	0.028904
744.9792	0.030023
745.2134	0.026920
745.4477	0.029115
745.6819	0.029474
745.9161	0.026561
746.1504	0.028017
746.3846	0.028123
746.6189	0.028503
746.8532	0.027321
747.0874	0.029305
747.3217	0.031268
747.5560	0.030931
747.7903	0.030487
748.0247	0.030128
748.2590	0.028376
748.4933	0.029347
748.7277	0.029390
748.9620	0.027996
749.1964	0.031416
749.4308	0.030508
749.6652	0.035406
749.8995	0.037095
750.1339	0.038889
750.3684	0.041865
750.6028	0.038108
750.8372	0.040768
751.0717	0.039881
751.3061	0.038614
751.5406	0.040472
751.7750	0.042815
752.0095	0.038678
752.2440	0.038657
752.4785	0.039079
752.7130	0.036461
752.9475	0.037411
753.1820	0.035110
753.4166	0.034667
753.6511	0.039670
753.8856	0.042435
754.1202	0.039607
754.3548	0.041169
754.5894	0.037496
754.8239	0.041907
755.0585	0.038910
755.2931	0.041380
755.5278	0.043068
755.7624	0.042773
755.9970	0.043237
756.2317	0.044335
756.4663	0.046045
756.7010	0.047185
756.9356	0.050119
757.1703	0.052631
757.4050	0.054615
757.6397	0.059492
757.8744	0.057655
758.1091	0.055713
758.3438	0.057908
758.5786	0.053518
758.8133	0.053644
759.0481	0.053117
759.2828	0.056874
759.5176	0.057697
759.7524	0.060104
759.9872	0.060019
760.2220	0.062215
760.4568	0.062721
760.6916	0.063355
760.9264	0.061180
761.1613	0.064305
761.3961	0.057739
761.6310	0.055185
761.8658	0.055227
762.1007	0.047016
762.3356	0.048831
762.5705	0.048662
762.8054	0.047438
763.0403	0.049380
763.2752	0.048494
763.5101	0.052335
763.7450	0.049528
763.9800	0.049718
764.2149	0.049845
764.4499	0.053454
764.6849	0.054636
764.9198	0.057402
765.1548	0.057338
765.3898	0.058457
765.6248	0.056811
765.8599	0.052124
766.0949	0.050140
766.3299	0.046488
766.5650	0.043702
766.8000	0.041337
767.0351	0.039965
767.2701	0.038446
767.5052	0.038382
767.7403	0.037411
767.9754	0.041950
768.2105	0.044061
768.4456	0.042688
768.6808	0.046615
768.9159	0.048093
769.1510	0.046383
769.3862	0.046003
769.6214	0.046467
769.8565	0.046129
770.0917	0.043617
770.3269	0.044145
770.5621	0.045433
770.7973	0.047143
771.0325	0.048515
771.2677	0.048536
771.5030	0.047121
771.7382	0.044736
771.9735	0.041654
772.2087	0.040789
772.4440	0.039628
772.6793	0.040261
772.9146	0.041401
773.1499	0.039670
773.3852	0.039227
773.6205	0.037918
773.8558	0.038889
774.0911	0.034181
774.3265	0.035279
774.5618	0.034435
774.7972	0.032450
775.0326	0.029854
775.2679	0.030487
775.5033	0.027743
775.7387	0.028630
775.9741	0.026329
776.2095	0.028081
776.4450	0.025738
776.6804	0.024176
776.9158	0.026244
777.1513	0.026223
777.3868	0.022466
777.6222	0.023817
777.8577	0.024513
778.0932	0.023774
778.3287	0.025484
778.5642	0.029031
778.7997	0.028714
779.0352	0.029010
779.2707	0.029453
779.5063	0.029727
779.7418	0.030551
779.9774	0.027891
780.2130	0.028292
780.4485	0.028651
780.6841	0.028862
780.9197	0.030107
781.1553	0.033421
781.3909	0.034815
781.6265	0.033865
781.8622	0.034181
782.0978	0.034899
782.3335	0.033949
782.5691	0.036440
782.8048	0.034392
783.0405	0.032282
783.2761	0.035427
783.5118	0.034181
783.7475	0.033696
783.9832	0.034857
784.2190	0.034181
784.4547	0.029432
784.6904	0.028777
784.9262	0.028672
785.1619	0.028883
785.3977	0.030255
785.6335	0.027089
785.8692	0.029347
786.1050	0.031099
786.3408	0.027806
786.5766	0.029115
786.8124	0.027131
787.0483	0.027173
787.2841	0.027110
787.5199	0.028271
787.7558	0.030128
787.9917	0.029706
788.2275	0.030593
788.4634	0.031416
788.6993	0.031648
788.9352	0.031733
789.1711	0.029368
789.4070	0.030909
789.6429	0.028334
789.8789	0.027046
790.1148	0.025695
790.3507	0.027363
790.5867	0.026751
790.8227	0.023289
791.0586	0.023817
791.2946	0.024809
791.5306	0.023732
791.7666	0.025210
792.0026	0.024471
792.2387	0.022043
792.4747	0.022677
792.7107	0.022993
792.9468	0.021621
793.1828	0.022825
793.4189	0.022402
793.6550	0.022022
793.8910	0.027300
794.1271	0.029812
794.3632	0.034392
794.5993	0.032028
794.8355	0.031479
795.0716	0.031416
795.3077	0.032725
795.5439	0.031669
795.7800	0.028060
796.0162	0.027215
796.2523	0.025062
796.4885	0.023205
796.7247	0.023057
796.9609	0.022065
797.1971	0.020714
797.4333	0.022782
797.6695	0.023922
797.9058	0.022128
798.1420	0.021938
798.3783	0.025020
798.6145	0.021769
798.8508	0.022613
799.0871	0.023268
799.3233	0.021769
799.5596	0.021832
799.7959	0.022043
800.0322	0.021030
800.2686	0.019700
800.5049	0.020946
800.7412	0.020228
800.9776	0.019468
801.2139	0.019510
801.4503	0.018096
801.6867	0.018729
801.9230	0.020439
802.1594	0.017568
802.3958	0.017019
802.6322	0.016935
802.8686	0.015014
803.1051	0.019384
803.3415	0.018729
803.5779	0.017906
803.8144	0.016534
804.0508	0.018349
804.2873	0.017252
804.5238	0.015795
804.7603	0.019004
804.9968	0.015901
805.2333	0.017083
805.4698	0.017167
805.7063	0.016998
805.9428	0.018877
806.1794	0.021220
806.4159	0.024281
806.6525	0.024450
806.8890	0.025379
807.1256	0.023732
807.3622	0.024471
807.5988	0.022445
807.8354	0.022719
808.0720	0.023289
808.3086	0.023437
808.5452	0.022972
808.7818	0.022909
809.0185	0.021748
809.2551	0.020777
809.4918	0.022065
809.7284	0.020714
809.9651	0.020503
810.2018	0.020144
810.4385	0.019595
810.6752	0.018497
810.9119	0.017315
811.1486	0.017758
811.3853	0.019067
811.6221	0.017188
811.8588	0.016914
812.0956	0.018518
812.3323	0.015985
812.5691	0.016492
812.8059	0.013346
813.0427	0.014043
813.2795	0.014550
813.5163	0.018645
813.7531	0.017758
813.9899	0.019152
814.2267	0.020017
814.4636	0.018582
814.7004	0.017188
814.9373	0.017906
815.1742	0.017083
815.4110	0.016829
815.6479	0.015310
815.8848	0.014064
816.1217	0.014972
816.3586	0.014887
816.5955	0.013220
816.8324	0.013747
817.0694	0.015711
817.3063	0.012586
817.5433	0.015521
817.7802	0.014212
818.0172	0.013684
818.2542	0.012988
818.4912	0.013283
818.7282	0.012671
818.9652	0.013980
819.2022	0.012460
819.4392	0.012882
819.6762	0.011447
819.9133	0.013304
820.1503	0.013135
820.3874	0.015415
820.6244	0.015901
820.8615	0.015331
821.0986	0.014845
821.3357	0.013705
821.5727	0.013368
821.8099	0.013558
822.0470	0.012882
822.2841	0.012966
822.5212	0.013072
822.7584	0.012101
822.9955	0.012228
823.2327	0.012439
823.4698	0.011214
823.7070	0.012185
823.9442	0.011637
824.1814	0.011193
824.4186	0.010898
824.6558	0.011510
824.8930	0.012228
825.1302	0.011763
825.3675	0.011995
825.6047	0.013790
825.8419	0.014972
826.0792	0.012671
826.3165	0.013093
826.5537	0.012270
826.7910	0.011995
827.0283	0.012460
827.2656	0.012629
827.5029	0.011974
827.7402	0.014191
827.9776	0.014507
828.2149	0.013473
828.4522	0.011721
828.6896	0.012629
828.9270	0.013431
829.1643	0.013747
829.4017	0.013663
829.6391	0.012544
829.8765	0.012291
830.1139	0.010602
830.3513	0.011003
830.5887	0.009737
830.8261	0.010138
831.0636	0.009842
831.3010	0.008090
831.5385	0.008006
831.7759	0.008048
832.0134	0.006486
832.2509	0.007710
832.4884	0.008259
832.7259	0.009863
832.9634	0.008533
833.2009	0.010138
833.4384	0.009505
833.6759	0.009483
833.9135	0.008745
834.1510	0.012354
834.3886	0.010813
834.6261	0.011637
834.8637	0.009610
835.1013	0.012080
835.3389	0.009188
835.5765	0.009716
835.8141	0.010180
836.0517	0.009462
836.2893	0.009167
836.5269	0.008090
836.7646	0.007140
837.0022	0.007330
837.2399	0.008597
837.4775	0.006824
837.7152	0.008048
837.9529	0.007225
838.1906	0.006106
838.4283	0.006718
838.6660	0.007457
838.9037	0.006697
839.1414	0.006401
839.3791	0.007056
839.6169	0.006866
839.8546	0.007774
840.0924	0.007457
840.3302	0.006760
840.5679	0.007014
840.8057	0.008956
841.0435	0.006676
841.2813	0.008280
841.5191	0.005895
841.7569	0.007858
841.9947	0.005599
842.2326	0.006338
842.4704	0.006106
842.7082	0.006148
842.9461	0.005093
843.1840	0.005409
843.4218	0.004628
843.6597	0.004924
843.8976	0.004713
844.1355	0.004502
844.3734	0.006275
844.6113	0.006064
844.8492	0.007330
845.0872	0.005219
845.3251	0.005853
845.5631	0.006043
845.8010	0.006296
846.0390	0.004502
846.2770	0.005494
846.5149	0.004734
846.7529	0.006444
846.9909	0.005388
847.2289	0.004480
847.4669	0.006950
847.7050	0.006064
847.9430	0.005916
848.1810	0.006064
848.4191	0.005008
848.6571	0.005304
848.8952	0.005515
849.1333	0.005072
849.3713	0.006148
849.6094	0.003889
849.8475	0.004987
850.0856	0.005874
850.3237	0.005853
850.5619	0.004628
850.8000	0.005240
851.0381	0.006148
851.2763	0.005536
851.5144	0.003531
851.7526	0.005050
851.9908	0.005198
852.2289	0.007098
852.4671	0.007520
852.7053	0.010581
852.9435	0.009589
853.1817	0.012798
853.4200	0.014909
853.6582	0.013135
853.8964	0.014254
854.1347	0.012544
854.3729	0.012840
854.6112	0.013684
854.8495	0.013410
855.0877	0.014212
855.3260	0.012650
855.5643	0.012122
855.8026	0.011869
856.0409	0.011130
856.2792	0.012312
856.5176	0.012819
856.7559	0.011320
856.9942	0.012734
857.2326	0.011067
857.4710	0.009863
857.7093	0.009209
857.9477	0.010898
858.1861	0.009884
858.4245	0.011341
858.6629	0.008660
858.9013	0.010243
859.1397	0.009716
859.3781	0.010264
859.6166	0.008132
859.8550	0.008702
860.0935	0.008998
860.3319	0.008956
860.5704	0.007605
860.8089	0.007330
861.0473	0.006760
861.2858	0.008048
861.5243	0.006971
861.7628	0.006908
862.0013	0.006296
862.2399	0.006803
862.4784	0.005367
862.7169	0.007394
862.9555	0.005599
863.1940	0.006254
863.4326	0.006507
863.6712	0.007689
863.9098	0.006950
864.1483	0.007964
864.3869	0.006317
864.6255	0.006338
864.8642	0.005219
865.1028	0.005979
865.3414	0.005325
865.5800	0.006064
865.8187	0.005304
866.0573	0.003784
866.2960	0.005262
866.5347	0.005262
866.7733	0.004797
867.0120	0.005409
867.2507	0.005388
867.4894	0.005283
867.7281	0.005409
867.9669	0.006169
868.2056	0.006401
868.4443	0.006169
868.6831	0.005768
868.9218	0.004670
869.1606	0.005958
869.3993	0.003868
869.6381	0.005029
869.8769	0.004227
870.1157	0.005325
870.3545	0.006718
870.5933	0.004692
870.8321	0.004502
871.0709	0.006444
871.3097	0.005874
871.5486	0.005452
871.7874	0.005747
872.0263	0.005240
872.2651	0.004290
872.5040	0.004544
872.7429	0.004586
872.9818	0.002560
873.2207	0.005789
873.4596	0.004375
873.6985	0.005135
873.9374	0.005135
874.1763	0.004755
874.4153	0.004459
874.6542	0.006486
874.8932	0.005177
875.1321	0.005789
875.3711	0.006169
875.6101	0.005367
875.8491	0.005979
876.0880	0.005853
876.3270	0.006000
876.5661	0.005578
876.8051	0.006233
877.0441	0.006887
877.2831	0.005916
877.5222	0.004734
877.7612	0.007098
878.0003	0.005240
878.2393	0.007436
878.4784	0.007372
878.7175	0.006676
878.9566	0.008301
879.1957	0.006507
879.4348	0.008512
879.6739	0.008470
879.9130	0.009378
880.1521	0.010581
880.3913	0.008343
880.6304	0.008470
880.8696	0.007436
881.1087	0.008069
881.3479	0.006528
881.5871	0.008175
881.8262	0.005557
882.0654	0.006866
882.3046	0.006845
882.5438	0.005536
882.7831	0.005789
883.0223	0.006845
883.2615	0.007161
883.5007	0.006803
883.7400	0.004839
883.9792	0.007161
884.2185	0.006845
884.4578	0.005810
884.6971	0.005937
884.9363	0.005262
885.1756	0.006000
885.4149	0.006233
885.6542	0.007161
885.8936	0.006169
886.1329	0.005979
886.3722	0.007161
886.6116	0.005557
886.8509	0.006866
887.0903	0.006064
887.3296	0.007647
887.5690	0.005156
887.8084	0.006992
888.0478	0.004713
888.2872	0.005262
888.5266	0.005831
888.7660	0.004101
889.0054	0.006064
889.2448	0.006127
889.4843	0.003256
889.7237	0.004164
889.9632	0.005599
890.2026	0.005430
890.4421	0.005346
890.6816	0.005895
890.9211	0.003995
891.1606	0.005620
891.4001	0.004122
891.6396	0.005262
891.8791	0.006760
892.1186	0.006507
892.3581	0.006254
892.5977	0.004987
892.8372	0.003721
893.0768	0.004734
893.3163	0.006021
893.5559	0.005346
893.7955	0.004860
894.0351	0.005219
894.2747	0.004016
894.5143	0.004544
894.7539	0.004396
894.9935	0.004375
895.2331	0.006380
895.4727	0.005979
895.7124	0.004607
895.9520	0.005452
896.1917	0.004966
896.4314	0.003024
896.6710	0.005029
896.9107	0.005831
897.1504	0.006169
897.3901	0.005346
897.6298	0.004734
897.8695	0.004375
898.1092	0.004586
898.3489	0.005494
898.5887	0.006444
898.8284	0.005937
899.0682	0.004544
899.3079	0.004544
899.5477	0.005262
899.7875	0.003446
900.0272	0.005367
900.2670	0.004607
900.5068	0.004544
900.7466	0.004565
900.9864	0.004354
901.2263	0.006148
901.4661	0.004459
901.7059	0.005304
901.9458	0.006486
902.1856	0.005747
902.4255	0.005262
902.6654	0.003805
902.9052	0.002834
903.1451	0.005072
903.3850	0.004649
903.6249	0.003805
903.8648	0.006106
904.1047	0.005050
904.3446	0.005240
904.5846	0.004502
904.8245	0.002412
905.0644	0.003699
905.3044	0.004713
905.5444	0.004227
905.7843	0.004290
906.0243	0.005367
906.2643	0.005008
906.5043	0.005473
906.7443	0.004164
906.9843	0.005684
907.2243	0.004628
907.4643	0.006824
907.7043	0.003657
907.9444	0.005304
908.1844	0.004269
908.4245	0.004776
908.6645	0.003678
908.9046	0.004544
909.1447	0.003446
909.3847	0.003932
909.6248	0.002243
909.8649	0.003657
910.1050	0.004713
910.3452	0.004544
910.5853	0.003256
910.8254	0.003383
911.0655	0.003573
911.3057	0.005198
911.5458	0.004818
911.7860	0.004692
912.0262	0.003151
912.2663	0.005072
912.5065	0.002201
912.7467	0.003573
912.9869	0.003003
913.2271	0.002771
913.4673	0.003383
913.7075	0.004924
913.9478	0.003362
914.1880	0.003678
914.4283	0.003319
914.6685	0.003953
914.9088	0.003721
915.1490	0.002834
915.3893	0.002264
915.6296	0.004438
915.8699	0.002939
916.1102	0.002644
916.3505	0.003552
916.5908	0.004375
916.8311	0.003657
917.0714	0.003509
917.3118	0.003636
917.5521	0.005557
917.7925	0.003108
918.0328	0.005156
918.2732	0.003889
918.5136	0.003108
918.7539	0.003235
918.9943	0.004037
919.2347	0.004480
919.4751	0.003531
919.7155	0.003657
919.9560	0.004480
920.1964	0.003826
920.4368	0.003488
920.6773	0.004839
920.9177	0.004101
921.1582	0.002665
921.3986	0.004185
921.6391	0.004016
921.8796	0.003172
922.1201	0.004016
922.3606	0.002961
922.6011	0.004924
922.8416	0.003151
923.0821	0.003889
923.3226	0.003341
923.5631	0.003974
923.8037	0.004438
924.0442	0.002222
924.2848	0.002560
924.5254	0.003699
924.7659	0.003214
925.0065	0.002918
925.2471	0.003889
925.4877	0.002665
925.7283	0.004628
925.9689	0.002961
926.2095	0.002918
926.4501	0.002327
926.6908	0.001968
926.9314	0.001377
927.1720	0.005452
927.4127	0.003151
927.6533	0.003129
927.8940	0.003678
928.1347	0.002475
928.3754	0.003657
928.6161	0.002665
928.8568	0.002538
929.0975	0.002560
929.3382	0.002264
929.5789	0.001610
929.8196	0.003298
930.0604	0.003467
930.3011	0.003193
930.5419	0.002602
930.7826	0.002285
931.0234	0.002116
931.2642	0.001420
931.5049	0.003066
931.7457	0.002855
931.9865	0.002348
932.2273	0.002412
932.4681	0.000850
932.7089	0.002728
932.9498	0.001610
933.1906	0.003045
933.4314	0.001884
933.6723	0.002665
933.9131	0.004375
934.1540	0.000512
934.3949	0.002876
934.6358	0.002158
934.8766	0.003889
935.1175	0.001715
935.3584	0.004438
935.5993	0.002939
935.8403	0.001335
936.0812	0.001947
936.3221	0.000723
936.5630	0.001884
936.8040	0.002771
937.0449	0.001610
937.2859	0.003995
937.5269	0.001525
937.7678	0.001800
938.0088	0.000892
938.2498	0.000512
938.4908	0.002095
938.7318	0.001567
938.9728	0.001968
939.2138	0.002158
939.4549	0.002665
939.6959	0.000470
939.9369	0.002602
940.1780	0.001715
940.4190	0.002158
940.6601	0.002728
940.9012	0.002391
941.1422	0.001187
941.3833	0.001968
941.6244	0.002074
941.8655	0.003319
942.1066	0.000786
942.3477	0.001884
942.5889	0.002264
942.8300	0.001483
943.0711	0.000111
943.3123	0.000786
943.5534	0.001715
943.7946	0.000850
944.0357	0.000427
944.2769	0.002961
944.5181	0.000427
944.7593	-0.000354
945.0005	0.002686
945.2417	0.000174
945.4829	0.002602
945.7241	0.000997
945.9653	0.001947
946.2066	0.002707
946.4478	0.002644
946.6891	0.001631
946.9303	0.000301
947.1716	0.000913
947.4128	0.000005
947.6541	0.001715
947.8954	0.002433
948.1367	0.001377
948.3780	0.002285
948.6193	0.003552
948.8606	-0.000206
949.1019	0.001462
949.3433	0.001546
949.5846	0.001567
949.8259	0.001863
950.0673	0.001082
950.3086	0.001398
950.5500	0.002939
950.7914	0.001398
951.0327	0.000259
951.2741	0.001842
951.5155	0.003467
951.7569	0.001335
951.9983	0.001926
952.2398	0.000491
952.4812	0.000681
952.7226	0.001631
952.9640	0.001947
953.2055	0.002264
953.4469	0.001800
953.6884	0.000892
953.9299	0.001504
954.1713	0.002053
954.4128	0.001314
954.6543	0.000237
954.8958	0.000533
955.1373	0.000533
955.3788	0.001251
955.6203	0.000807
955.8618	0.000702
956.1034	0.001251
956.3449	0.002475
956.5865	0.002264
956.8280	0.000976
957.0696	0.001525
957.3111	0.002602
957.5527	0.002095
957.7943	0.001441
958.0359	0.000575
958.2775	0.002095
958.5191	0.001588
958.7607	0.000997
959.0023	0.001842
959.2439	0.001588
959.4856	0.001251
959.7272	0.001504
959.9688	0.000913
960.2105	0.001800
960.4522	0.000005
960.6938	0.000955
960.9355	0.000047
961.1772	0.000892
961.4189	0.001251
961.6606	0.002792
961.9023	0.001567
962.1440	0.000871
962.3857	-0.000797
962.6274	-0.000459
962.8692	0.000892
963.1109	0.002686
963.3527	0.000639
963.5944	0.000934
963.8362	0.000301
964.0779	0.000533
964.3197	0.000955
964.5615	0.001040
964.8033	-0.000501
965.0451	0.002412
965.2869	0.000237
965.5287	0.000533
965.7705	0.000997
966.0123	0.001145
966.2542	0.001272
966.4960	0.000364
966.7379	0.001124
966.9797	0.000955
967.2216	0.001103
967.4634	0.000111
967.7053	0.000385
967.9472	0.002285
968.1891	0.001251
968.4310	0.001314
968.6729	0.000723
968.9148	0.000807
969.1567	0.000449
969.3987	0.002939
969.6406	0.000829
969.8825	0.000301
970.1245	0.000385
970.3664	0.001441
970.6084	0.001504
970.8504	0.000976
971.0923	0.000681
971.3343	0.000301
971.5763	0.000026
971.8183	0.001103
972.0603	-0.001092
972.3023	0.001420
972.5443	0.000934
972.7864	0.000955
973.0284	0.002517
973.2704	0.001926
973.5125	-0.000480
973.7545	0.001483
973.9966	0.000617
974.2387	0.000343
974.4807	0.000934
974.7228	0.000850
974.9649	0.000765
975.2070	0.001145
975.4491	0.000617
975.6912	0.001251
975.9333	-0.000121
976.1755	0.001209
976.4176	0.000026
976.6597	0.001166
976.9019	0.000069
977.1440	0.001335
977.3862	0.001356
977.6283	-0.000438
977.8705	0.000575
978.1127	0.001842
978.3549	0.000892
978.5971	0.002158
978.8393	0.000575
979.0815	0.001230
979.3237	0.001145
979.5659	0.001335
979.8082	0.002327
980.0504	0.002095
980.2926	0.000723
980.5349	0.000427
980.7771	0.000195
981.0194	0.002095
981.2617	0.000385
981.5040	0.000406
981.7462	0.000005
981.9885	0.000955
982.2308	0.001567
982.4731	0.002433
982.7155	0.000512
982.9578	0.001546
983.2001	-0.000311
983.4424	0.000364
983.6848	-0.000522
983.9271	0.000153
984.1695	0.000449
984.4118	0.000280
984.6542	0.001082
984.8966	0.000786
985.1390	0.000512
985.3814	0.001166
985.6238	0.000237
985.8662	0.000301
986.1086	-0.000269
986.3510	0.001757
986.5934	0.000491
986.8358	0.001124
987.0783	0.000829
987.3207	0.000702
987.5632	-0.000565
987.8056	0.001420
988.0481	0.000111
988.2906	0.000702
988.5331	-0.000734
988.7756	0.000596
989.0180	0.000343
989.2605	0.001272
989.5031	-0.000037
989.7456	-0.000079
989.9881	0.000660
990.2306	0.000069
990.4732	0.000026
990.7157	0.000554
990.9582	0.000850
991.2008	0.000090
991.4434	0.000343
991.6859	0.001019
991.9285	0.000385
992.1711	0.000174
992.4137	0.000871
992.6563	0.001926
992.8989	0.000596
993.1415	0.001230
993.3841	0.001061
993.6267	0.000153
993.8694	-0.000206
994.1120	0.000090
994.3547	0.000829
994.5973	0.001082
994.8400	-0.000164
995.0826	0.000533
995.3253	0.000301
995.5680	0.000216
995.8107	0.000681
996.0534	0.001293
996.2961	0.000533
996.5388	0.001040
996.7815	0.002137
997.0242	-0.000142
997.2670	0.001441
997.5097	0.000364
997.7524	0.000132
997.9952	0.001272
998.2379	-0.000522
998.4807	0.001947
998.7235	-0.000311
998.9662	0.000681
999.2090	0.001251
999.4518	0.000702
999.6946	0.000449
999.9374	-0.000079
1000.1802	0.001356
1000.4230	-0.001177
1000.6659	0.000765
1000.9087	0.001272
1001.1515	0.000807
1001.3944	-0.000269
1001.6372	0.000047
1001.8801	0.000301
1002.1230	0.000026
1002.3658	0.000090
1002.6087	0.000913
1002.8516	0.001166
1003.0945	0.001715
1003.3374	0.000596
1003.5803	-0.000459
1003.8232	0.001673
1004.0661	0.000153
1004.3091	-0.000375
1004.5520	-0.000396
1004.7949	0.001673
1005.0379	0.000765
1005.2808	0.001187
1005.5238	0.001335
1005.7667	0.000554
1006.0097	0.000195
1006.2527	-0.000227
1006.4957	0.000280
1006.7387	0.000913
1006.9817	0.000892
1007.2247	-0.000311
1007.4677	0.001272
1007.7107	0.001082
1007.9538	0.001335
1008.1968	0.000533
1008.4398	-0.000100
1008.6829	-0.000100
1008.9259	-0.000417
1009.1690	-0.000248
1009.4121	0.000681
1009.6551	0.000913
1009.8982	0.000660
1010.1413	0.000913
1010.3844	0.001293
1010.6275	0.000174
1010.8706	0.001504
1011.1137	0.000934
1011.3568	0.000955
1011.6000	0.002053
1011.8431	0.001103
1012.0863	0.000575
1012.3294	0.000237
1012.5726	0.000575
1012.8157	0.001209
1013.0589	-0.000100
1013.3021	0.001863
1013.5452	-0.000417
1013.7884	0.001504
1014.0316	-0.000354
1014.2748	0.000406
1014.5180	0.001504
1014.7613	0.001019
1015.0045	0.001103
1015.2477	-0.000438
1015.4909	0.000744
1015.7342	0.001272
1015.9774	-0.000902
1016.2207	0.001145
1016.4640	0.000153
1016.7072	-0.000248
1016.9505	-0.000565
1017.1938	0.001166
1017.4371	-0.000755
1017.6804	0.001061
1017.9237	0.001019
1018.1670	-0.000121
1018.4103	0.000997
1018.6536	0.000470
1018.8969	0.002222
1019.1403	0.002264
1019.3836	0.000786
1019.6270	0.000596
1019.8703	0.000596
1020.1137	0.001314
1020.3571	0.000322
1020.6004	-0.000417
1020.8438	-0.000079
1021.0872	-0.000100
1021.3306	0.000216
1021.5740	0.000259
1021.8174	0.000132
1022.0608	-0.000269
1022.3042	-0.000649
1022.5477	-0.001029
1022.7911	0.001694
1023.0345	0.000871
