# Wavelength (nm)	Intensity (a.u.)
197.7802	0.000862
197.9842	-0.001334
198.1882	0.001770
198.3922	-0.000574
198.5963	0.001158
198.8003	0.000672
199.0044	0.000946
199.2085	0.000060
199.4126	0.000925
199.6168	-0.001144
199.8209	0.000946
200.0251	-0.000236
200.2292	0.000904
200.4334	0.000376
200.6376	0.001918
200.8418	0.001833
201.0461	0.000229
201.2503	0.001432
201.4546	0.000968
201.6589	-0.000785
201.8631	0.000862
202.0674	-0.000067
202.2718	0.000081
202.4761	-0.000552
202.6805	0.001073
202.8848	-0.000172
203.0892	0.000060
203.2936	0.000440
203.4980	0.001728
203.7024	0.000334
203.9069	0.001939
204.1113	0.000904
204.3158	0.001158
204.5203	0.000039
204.7248	0.000208
204.9293	-0.000215
205.1338	-0.000405
205.3384	0.001305
205.5430	-0.000215
205.7475	0.000524
205.9521	-0.001355
206.1567	0.000250
206.3614	0.000398
206.5660	0.000714
206.7706	-0.000151
206.9753	-0.000004
207.1800	0.000313
207.3847	-0.000299
207.5894	0.000545
207.7941	0.000545
207.9989	0.001854
208.2036	0.000208
208.4084	0.000524
208.6132	-0.000088
208.8180	0.000693
209.0228	0.000060
209.2276	0.000566
209.4325	-0.000088
209.6373	0.000060
209.8422	-0.000954
210.0471	0.000292
210.2520	0.000165
210.4569	0.000672
210.6618	-0.000088
210.8668	0.000376
211.0718	-0.001038
211.2767	0.002065
211.4817	0.000081
211.6867	0.001453
211.8918	0.000545
212.0968	0.000566
212.3018	0.000461
212.5069	0.002108
212.7120	-0.001291
212.9171	0.000376
213.1222	0.000946
213.3273	0.001601
213.5325	-0.000405
213.7376	0.000355
213.9428	0.000250
214.1480	0.000756
214.3532	0.000820
214.5584	0.001284
214.7636	0.001728
214.9689	0.000461
215.1741	0.000989
215.3794	-0.000384
215.5847	-0.001165
215.7900	0.000609
215.9953	-0.000320
216.2007	0.001094
216.4060	0.001158
216.6114	0.000566
216.8168	0.000102
217.0222	0.000968
217.2276	0.000672
217.4330	-0.001017
217.6384	0.000524
217.8439	0.001136
218.0494	0.000419
218.2548	0.000820
218.4603	0.001010
218.6659	0.001115
218.8714	0.000778
219.0769	0.000588
219.2825	-0.000679
219.4881	0.001432
219.6936	-0.000658
219.8992	0.000545
220.1049	0.000250
220.3105	0.000904
220.5161	0.001770
220.7218	0.000292
220.9275	0.000756
221.1332	0.000461
221.3389	0.000989
221.5446	0.000355
221.7503	-0.001017
221.9561	0.000271
222.1618	-0.001291
222.3676	0.001622
222.5734	0.000039
222.7792	0.001031
222.9850	-0.000130
223.1909	0.001200
223.3967	0.000820
223.6026	0.000799
223.8085	-0.000067
224.0144	0.000609
224.2203	0.001242
224.4262	0.001348
224.6322	-0.000975
224.8381	-0.000552
225.0441	-0.000405
225.2501	0.000862
225.4561	0.000398
225.6621	-0.000236
225.8681	0.001094
226.0742	0.001474
226.2802	0.001073
226.4863	0.000735
226.6924	0.000925
226.8985	0.001221
227.1046	0.000018
227.3107	0.000018
227.5169	-0.000384
227.7230	0.000968
227.9292	0.000313
228.1354	-0.001439
228.3416	-0.000574
228.5478	-0.000489
228.7541	0.001580
228.9603	-0.000046
229.1666	0.000672
229.3729	0.001643
229.5791	0.000609
229.7855	0.001305
229.9918	-0.000595
230.1981	-0.000109
230.4045	-0.000215
230.6108	0.000165
230.8172	0.000440
231.0236	0.002234
231.2300	-0.000426
231.4364	0.000081
231.6429	0.001179
231.8493	0.001305
232.0558	0.001622
232.2623	-0.000215
232.4688	0.000609
232.6753	0.001474
232.8818	-0.000616
233.0884	0.000081
233.2949	-0.000088
233.5015	0.000588
233.7081	-0.000700
233.9147	0.000588
234.1213	0.001305
234.3279	0.001326
234.5346	0.000503
234.7413	0.000250
234.9479	0.000820
235.1546	0.000799
235.3613	0.001200
235.5680	0.000672
235.7748	-0.000004
235.9815	0.000756
236.1883	-0.000004
236.3951	0.000651
236.6018	0.000334
236.8087	-0.000384
237.0155	0.001749
237.2223	0.000440
237.4292	-0.000046
237.6360	-0.000574
237.8429	-0.000257
238.0498	-0.000004
238.2567	-0.000088
238.4636	0.000778
238.6706	-0.000574
238.8775	0.001369
239.0845	0.000292
239.2915	0.000313
239.4985	0.000271
239.7055	0.000946
239.9125	0.000714
240.1195	0.001960
240.3266	0.000482
240.5337	0.000545
240.7407	-0.000405
240.9478	0.000355
241.1549	-0.000215
241.3621	0.000419
241.5692	0.000778
241.7764	0.000144
241.9835	-0.000785
242.1907	0.001622
242.3979	0.000313
242.6051	0.000714
242.8124	-0.001101
243.0196	0.001896
243.2269	0.001200
243.4341	0.000672
243.6414	-0.000426
243.8487	0.000060
244.0560	0.001115
244.2634	-0.000278
244.4707	0.001622
244.6781	0.001474
244.8854	-0.001144
245.0928	0.000208
245.3002	0.000376
245.5076	0.001158
245.7151	0.000229
245.9225	-0.000004
246.1300	-0.000004
246.3375	0.000060
246.5449	0.000968
246.7524	-0.000151
246.9600	-0.001587
247.1675	0.001516
247.3750	-0.001207
247.5826	0.001348
247.7902	0.000566
247.9978	0.000651
248.2054	-0.001144
248.4130	0.000334
248.6206	0.001073
248.8283	-0.000067
249.0359	0.000440
249.2436	0.001411
249.4513	0.001136
249.6590	-0.000742
249.8667	0.000165
250.0745	0.000186
250.2822	-0.000764
250.4900	-0.000320
250.6978	-0.000088
250.9056	-0.000025
251.1134	-0.000426
251.3212	0.000566
251.5290	-0.000426
251.7369	0.000376
251.9447	0.000630
252.1526	0.000630
252.3605	0.001179
252.5684	0.000630
252.7763	0.000588
252.9843	0.000841
253.1922	0.000735
253.4002	0.000946
253.6082	0.000165
253.8162	0.000102
254.0242	-0.000637
254.2322	0.000714
254.4402	0.001242
254.6483	-0.000215
254.8564	0.000165
255.0644	0.000503
255.2725	0.000081
255.4806	0.001474
255.6888	-0.000341
255.8969	-0.000215
256.1051	0.000503
256.3132	0.000968
256.5214	0.001136
256.7296	0.000292
256.9378	0.000123
257.1460	0.000018
257.3543	0.001031
257.5625	0.001875
257.7708	-0.000236
257.9791	0.000883
258.1874	0.000081
258.3957	0.000693
258.6040	0.000165
258.8124	0.000756
259.0207	0.000271
259.2291	0.000060
259.4375	0.000398
259.6459	-0.000109
259.8543	0.001052
260.0627	0.001073
260.2711	0.001179
260.4796	0.000208
260.6881	0.001390
260.8965	0.000925
261.1050	0.000461
261.3135	0.000250
261.5221	-0.001144
261.7306	0.001221
261.9392	-0.001101
262.1477	-0.000595
262.3563	0.000588
262.5649	0.000271
262.7735	0.000081
262.9822	0.000588
263.1908	0.000398
263.3995	0.001242
263.6081	0.001390
263.8168	0.000630
264.0255	0.000271
264.2342	0.000208
264.4429	0.000334
264.6517	-0.000827
264.8604	0.001495
265.0692	0.001200
265.2780	-0.000447
265.4868	0.000778
265.6956	0.000292
265.9044	0.001094
266.1133	0.000440
266.3221	0.001369
266.5310	0.000123
266.7399	0.000376
266.9488	-0.000151
267.1577	-0.000046
267.3666	-0.000785
267.5755	0.000862
267.7845	0.001326
267.9935	0.000250
268.2024	0.001643
268.4114	-0.001692
268.6205	-0.000742
268.8295	0.001474
269.0385	-0.000637
269.2476	-0.000151
269.4566	-0.000278
269.6657	0.000756
269.8748	-0.000869
270.0839	-0.000384
270.2931	0.000545
270.5022	0.000672
270.7114	-0.000299
270.9205	0.001812
271.1297	0.001474
271.3389	0.001200
271.5481	0.000060
271.7573	0.001263
271.9666	0.000123
272.1758	0.000060
272.3851	0.000630
272.5944	0.000440
272.8037	0.000799
273.0130	0.001538
273.2223	-0.000299
273.4316	0.000946
273.6410	-0.000025
273.8504	-0.000257
274.0597	0.000630
274.2691	0.000018
274.4785	-0.000151
274.6880	-0.000426
274.8974	-0.000806
275.1069	0.000313
275.3163	0.000313
275.5258	0.001369
275.7353	0.001200
275.9448	0.001200
276.1543	0.000376
276.3639	0.001728
276.5734	0.000968
276.7830	-0.000088
276.9926	0.000440
277.2022	0.001348
277.4118	0.000081
277.6214	0.000566
277.8310	0.000503
278.0407	0.001348
278.2503	0.000524
278.4600	0.000123
278.6697	0.001326
278.8794	-0.000004
279.0891	0.000271
279.2989	0.000524
279.5086	-0.000341
279.7184	-0.000046
279.9281	-0.000552
280.1379	0.001580
280.3477	0.000968
280.5576	0.001348
280.7674	0.000799
280.9772	0.000588
281.1871	0.000756
281.3970	0.001010
281.6069	0.000820
281.8168	0.001728
282.0267	-0.001017
282.2366	0.001369
282.4466	0.001516
282.6565	0.000714
282.8665	-0.000299
283.0765	0.001538
283.2865	0.000355
283.4965	0.001538
283.7065	0.000989
283.9166	0.000123
284.1266	0.001305
284.3367	-0.000806
284.5468	-0.000764
284.7569	-0.001038
284.9670	0.000588
285.1771	-0.000046
285.3873	0.000989
285.5974	0.000398
285.8076	-0.000362
286.0178	0.001812
286.2280	0.000271
286.4382	0.000355
286.6484	-0.000848
286.8587	0.001136
287.0689	0.000609
287.2792	0.000419
287.4895	0.000482
287.6998	-0.000405
287.9101	0.001516
288.1204	0.000186
288.3308	0.000334
288.5411	0.000968
288.7515	-0.000109
288.9619	0.000229
289.1723	0.001538
289.3827	0.001179
289.5931	-0.000320
289.8035	0.000461
290.0140	0.000503
290.2245	-0.000172
290.4349	0.000651
290.6454	0.001263
290.8559	-0.000151
291.0665	0.000735
291.2770	0.000355
291.4875	0.000925
291.6981	0.000229
291.9087	0.000018
292.1193	0.000503
292.3299	0.000862
292.5405	-0.000194
292.7511	0.000208
292.9618	0.001643
293.1724	0.000482
293.3831	-0.000405
293.5938	0.000799
293.8045	0.000419
294.0152	0.001179
294.2260	0.000946
294.4367	0.000820
294.6475	-0.000046
294.8582	0.000883
295.0690	-0.000975
295.2798	-0.001038
295.4906	-0.000468
295.7015	0.001010
295.9123	0.000018
296.1232	0.000060
296.3340	0.000060
296.5449	0.000250
296.7558	0.001200
296.9667	0.000588
297.1777	0.000419
297.3886	-0.001249
297.5995	-0.000426
297.8105	-0.000046
298.0215	-0.000151
298.2325	0.000503
298.4435	-0.000848
298.6545	0.000440
298.8656	0.000461
299.0766	0.000820
299.2877	0.001348
299.4988	0.000820
299.7099	-0.000911
299.9210	-0.000257
300.1321	-0.000384
300.3432	0.000799
300.5544	-0.000531
300.7655	0.001052
300.9767	0.000271
301.1879	0.000524
301.3991	0.000334
301.6103	0.000735
301.8215	0.000588
302.0328	-0.000426
302.2441	-0.000764
302.4553	0.000968
302.6666	0.001474
302.8779	0.000968
303.0892	-0.000215
303.3006	0.000862
303.5119	0.000334
303.7233	0.000355
303.9346	-0.000932
304.1460	0.000989
304.3574	-0.000151
304.5688	0.001242
304.7803	0.001094
304.9917	0.000503
305.2031	0.000968
305.4146	0.000334
305.6261	0.000566
305.8376	0.002044
306.0491	-0.000130
306.2606	0.000566
306.4722	0.000503
306.6837	0.001242
306.8953	0.000545
307.1069	0.001073
307.3184	-0.000109
307.5301	0.001136
307.7417	-0.001608
307.9533	0.000714
308.1650	-0.000025
308.3766	0.001348
308.5883	0.000271
308.8000	0.000799
309.0117	0.000968
309.2234	-0.000447
309.4351	0.000735
309.6469	0.001115
309.8586	0.000144
310.0704	0.000292
310.2822	-0.001080
310.4940	0.000799
310.7058	-0.000046
310.9176	0.000503
311.1295	0.000334
311.3413	0.000989
311.5532	-0.000151
311.7651	-0.000341
311.9770	0.000925
312.1889	0.000039
312.4008	-0.000426
312.6127	0.000503
312.8247	0.000461
313.0366	0.000968
313.2486	0.000355
313.4606	-0.000426
313.6726	-0.000004
313.8846	0.001348
314.0967	-0.001502
314.3087	-0.000046
314.5208	0.000630
314.7328	0.000482
314.9449	0.000461
315.1570	0.000081
315.3692	0.000503
315.5813	0.001348
315.7934	0.000440
316.0056	-0.000109
316.2177	0.000355
316.4299	0.001052
316.6421	0.000081
316.8543	0.000566
317.0666	0.000545
317.2788	0.001031
317.4911	0.000566
317.7033	0.000883
317.9156	0.000250
318.1279	-0.000046
318.3402	0.000165
318.5525	0.000904
318.7649	0.000883
318.9772	0.001284
319.1896	0.000039
319.4019	0.001200
319.6143	0.000566
319.8267	0.000693
320.0392	0.000862
320.2516	0.000989
320.4640	0.000630
320.6765	-0.000088
320.8890	0.000714
321.1014	0.001390
321.3139	-0.000109
321.5265	-0.001101
321.7390	0.000292
321.9515	0.000651
322.1641	-0.000721
322.3766	0.002171
322.5892	-0.001249
322.8018	0.000883
323.0144	-0.000721
323.2270	0.001875
323.4397	-0.001059
323.6523	-0.000595
323.8650	0.000355
324.0777	0.000229
324.2904	0.000060
324.5031	0.000588
324.7158	0.001326
324.9285	0.001073
325.1412	-0.000341
325.3540	0.001960
325.5668	-0.001355
325.7796	-0.000067
325.9924	0.000524
326.2052	0.000588
326.4180	0.000292
326.6308	0.001622
326.8437	0.000355
327.0566	0.000250
327.2694	0.000799
327.4823	0.000229
327.6952	0.001538
327.9082	0.000778
328.1211	0.001115
328.3340	0.000144
328.5470	-0.000320
328.7600	0.000355
328.9730	-0.000468
329.1860	0.000419
329.3990	0.000482
329.6120	0.001010
329.8251	0.000165
330.0381	0.001601
330.2512	-0.001249
330.4643	0.001326
330.6774	-0.000046
330.8905	0.000841
331.1036	-0.000341
331.3167	-0.000088
331.5299	0.000271
331.7431	0.000968
331.9562	-0.000616
332.1694	-0.000046
332.3826	0.000630
332.5959	0.000271
332.8091	0.000313
333.0223	0.001242
333.2356	-0.001186
333.4489	0.001305
333.6622	0.000186
333.8755	0.001369
334.0888	-0.000700
334.3021	0.000904
334.5154	-0.000088
334.7288	0.001390
334.9422	-0.001165
335.1555	0.000693
335.3689	0.000440
335.5823	0.000946
335.7958	-0.000574
336.0092	0.000334
336.2227	0.000756
336.4361	0.000440
336.6496	-0.000320
336.8631	0.000588
337.0766	-0.000806
337.2901	0.000524
337.5036	0.000651
337.7172	0.001200
337.9307	0.000989
338.1443	0.001643
338.3579	-0.001904
338.5715	0.001348
338.7851	0.000123
338.9987	0.000398
339.2124	0.001242
339.4260	0.000609
339.6397	-0.000320
339.8533	0.000735
340.0670	-0.000004
340.2807	0.001326
340.4945	0.000735
340.7082	0.001390
340.9219	0.000799
341.1357	0.001242
341.3495	-0.000468
341.5633	0.000841
341.7771	0.000081
341.9909	0.002276
342.2047	0.000419
342.4185	0.001728
342.6324	-0.001228
342.8463	0.000756
343.0601	-0.000489
343.2740	0.000545
343.4879	0.000799
343.7019	0.001136
343.9158	-0.000341
344.1297	0.000102
344.3437	0.000334
344.5577	0.000419
344.7717	0.000440
344.9857	0.001453
345.1997	-0.001122
345.4137	0.000208
345.6277	-0.000088
345.8418	0.000229
346.0559	0.000123
346.2699	0.001263
346.4840	-0.000700
346.6981	0.002150
346.9123	0.001010
347.1264	0.000334
347.3406	0.001221
347.5547	0.000799
347.7689	0.000904
347.9831	-0.000595
348.1973	0.000862
348.4115	0.000461
348.6257	0.000250
348.8400	0.000461
349.0542	-0.000806
349.2685	-0.000046
349.4828	-0.000489
349.6971	-0.000088
349.9114	0.000799
350.1257	0.000904
350.3400	-0.000489
350.5544	0.000081
350.7687	0.000398
350.9831	0.001390
351.1975	-0.000384
351.4119	0.000524
351.6263	0.000714
351.8407	0.000778
352.0552	0.001115
352.2696	-0.000405
352.4841	0.001115
352.6986	0.000968
352.9131	-0.000151
353.1276	0.000334
353.3421	0.000419
353.5566	0.000123
353.7712	0.001284
353.9858	0.001115
354.2003	0.000693
354.4149	0.000841
354.6295	-0.001080
354.8441	0.001580
355.0588	0.001369
355.2734	0.000588
355.4881	0.001094
355.7027	0.001622
355.9174	0.001115
356.1321	0.001136
356.3468	0.000461
356.5615	0.000482
356.7763	0.000060
356.9910	0.000165
357.2058	0.000862
357.4206	0.000989
357.6353	0.001432
357.8501	0.000989
358.0650	0.000398
358.2798	0.001073
358.4946	0.000524
358.7095	0.000250
358.9243	0.000693
359.1392	0.000989
359.3541	0.000186
359.5690	0.000250
359.7839	0.000081
359.9989	0.001960
360.2138	-0.000320
360.4288	0.000925
360.6438	0.001094
360.8587	0.001390
361.0737	-0.000510
361.2888	0.000271
361.5038	0.000039
361.7188	0.001158
361.9339	0.000398
362.1489	0.001073
362.3640	0.001115
362.5791	0.000376
362.7942	0.001664
363.0093	0.001158
363.2245	-0.000215
363.4396	0.000672
363.6548	-0.000637
363.8699	0.000672
364.0851	-0.000531
364.3003	0.000799
364.5155	-0.000426
364.7308	0.001031
364.9460	-0.000405
365.1612	0.000503
365.3765	0.000081
365.5918	0.001432
365.8071	0.000060
366.0224	0.001411
366.2377	0.000566
366.4530	0.000630
366.6684	-0.000130
366.8837	0.001432
367.0991	0.001495
367.3145	-0.000004
367.5299	-0.000046
367.7453	0.001369
367.9607	0.001559
368.1761	0.000630
368.3916	-0.000067
368.6070	0.001918
368.8225	0.000503
369.0380	0.002192
369.2535	0.001179
369.4690	-0.000341
369.6845	0.000039
369.9001	0.000588
370.1156	0.000630
370.3312	-0.000278
370.5468	-0.001165
370.7624	-0.000257
370.9780	0.000208
371.1936	0.001369
371.4092	0.000355
371.6249	0.000820
371.8405	-0.001059
372.0562	0.001728
372.2719	0.000799
372.4876	-0.000130
372.7033	0.001348
372.9190	0.000060
373.1348	0.001580
373.3505	0.002192
373.5663	0.000609
373.7820	-0.000257
373.9978	0.000820
374.2136	-0.000109
374.4294	0.001115
374.6453	0.000630
374.8611	0.000609
375.0770	0.001390
375.2928	0.000545
375.5087	0.001495
375.7246	0.000482
375.9405	0.000904
376.1564	-0.001038
376.3724	-0.000215
376.5883	0.000524
376.8043	0.000482
377.0203	0.000060
377.2362	0.000778
377.4522	0.000123
377.6682	0.001179
377.8843	-0.000468
378.1003	0.001284
378.3164	0.000123
378.5324	-0.000109
378.7485	0.001158
378.9646	0.001369
379.1807	0.000376
379.3968	0.001200
379.6129	0.000165
379.8291	0.000271
380.0452	-0.000236
380.2614	0.000186
380.4776	0.001136
380.6938	0.001284
380.9100	-0.000257
381.1262	0.001242
381.3424	0.000989
381.5587	0.001073
381.7749	0.000862
381.9912	0.000904
382.2075	-0.000257
382.4238	0.001179
382.6401	0.000102
382.8564	0.000588
383.0728	-0.000405
383.2891	0.001390
383.5055	0.000524
383.7219	0.000862
383.9382	-0.000679
384.1546	0.000946
384.3711	0.000334
384.5875	0.002065
384.8039	0.000229
385.0204	0.000250
385.2368	0.001643
385.4533	0.000862
385.6698	-0.000489
385.8863	-0.000130
386.1028	-0.000341
386.3194	0.000081
386.5359	0.000334
386.7525	0.000440
386.9690	0.000229
387.1856	0.001263
387.4022	0.001158
387.6188	0.001411
387.8355	0.000714
388.0521	0.000355
388.2687	0.000862
388.4854	0.001242
388.7021	0.000440
388.9188	0.001685
389.1355	-0.000278
389.3522	0.001981
389.5689	0.000461
389.7856	0.000883
390.0024	-0.000320
390.2192	0.000841
390.4359	0.001981
390.6527	0.001369
390.8695	0.002868
391.0863	0.001749
391.3032	0.002825
391.5200	0.001348
391.7369	0.000756
391.9537	0.002720
392.1706	0.002614
392.3875	0.001643
392.6044	0.001559
392.8213	0.001305
393.0383	0.001601
393.2552	0.001833
393.4722	0.002213
393.6891	0.002255
393.9061	-0.000088
394.1231	0.002488
394.3401	0.003142
394.5572	0.002762
394.7742	0.001411
394.9912	0.001453
395.2083	0.002614
395.4254	0.002931
395.6425	0.004050
395.8596	0.002065
396.0767	0.002192
396.2938	0.003395
396.5109	0.001854
396.7281	0.002382
396.9453	0.004324
397.1624	0.002889
397.3796	0.003226
397.5968	0.004556
397.8140	0.003965
398.0313	0.003860
398.2485	0.003374
398.4658	0.005084
398.6830	0.004789
398.9003	0.006456
399.1176	0.004683
399.3349	0.006266
399.5522	0.003860
399.7696	0.004852
399.9869	0.005380
400.2043	0.003902
400.4216	0.004071
400.6390	0.005063
400.8564	0.005063
401.0738	0.005021
401.2912	0.005696
401.5087	0.006224
401.7261	0.005021
401.9436	0.005359
402.1610	0.005549
402.3785	0.005739
402.5960	0.005886
402.8135	0.006858
403.0310	0.003965
403.2486	0.005084
403.4661	0.006583
403.6837	0.006879
403.9013	0.005422
404.1189	0.006731
404.3365	0.007744
404.5541	0.007470
404.7717	0.006731
404.9893	0.008145
405.2070	0.007786
405.4246	0.007238
405.6423	0.008462
405.8600	0.006520
406.0777	0.008673
406.2954	0.007808
406.5131	0.008209
406.7309	0.007005
406.9486	0.007259
407.1664	0.008082
407.3842	0.008969
407.6020	0.007449
407.8198	0.007174
408.0376	0.007322
408.2554	0.009328
408.4733	0.008694
408.6911	0.009116
408.9090	0.009433
409.1269	0.009982
409.3448	0.007829
409.5627	0.008969
409.7806	0.008546
409.9985	0.009285
410.2165	0.008525
410.4344	0.008842
410.6524	0.010320
410.8704	0.008863
411.0884	0.008800
411.3064	0.008420
411.5244	0.009243
411.7424	0.009116
411.9605	0.010066
412.1785	0.010953
412.3966	0.010024
412.6147	0.010679
412.8328	0.011629
413.0509	0.011607
413.2690	0.012135
413.4871	0.011037
413.7053	0.010341
413.9234	0.011629
414.1416	0.010172
414.3598	0.012726
414.5780	0.011227
414.7962	0.011502
415.0144	0.012853
415.2326	0.012790
415.4509	0.011565
415.6692	0.014035
415.8874	0.012114
416.1057	0.010088
416.3240	0.013317
416.5423	0.012410
416.7606	0.013655
416.9790	0.014289
417.1973	0.012874
417.4157	0.012980
417.6341	0.013507
417.8524	0.011776
418.0708	0.012874
418.2893	0.014289
418.5077	0.012747
418.7261	0.013233
418.9446	0.016189
419.1630	0.015196
419.3815	0.014162
419.6000	0.015787
419.8185	0.014837
420.0370	0.015281
420.2555	0.016357
420.4741	0.014859
420.6926	0.017223
420.9112	0.014816
421.1298	0.017265
421.3483	0.018490
421.5669	0.016083
421.7856	0.019820
422.0042	0.018511
422.2228	0.019355
422.4415	0.018490
422.6601	0.016906
422.8788	0.017835
423.0975	0.017856
423.3162	0.018806
423.5349	0.017012
423.7536	0.017603
423.9724	0.018173
424.1911	0.018384
424.4099	0.016231
424.6287	0.017202
424.8475	0.016906
425.0663	0.017202
425.2851	0.018912
425.5039	0.019672
425.7228	0.018933
425.9416	0.017856
426.1605	0.015365
426.3793	0.016505
426.5982	0.016906
426.8171	0.017350
427.0361	0.017223
427.2550	0.017835
427.4739	0.020052
427.6929	0.019545
427.9118	0.020115
428.1308	0.017941
428.3498	0.019397
428.5688	0.019609
428.7878	0.018701
429.0068	0.018532
429.2259	0.020580
429.4449	0.022395
429.6640	0.021445
429.8831	0.023683
430.1022	0.021361
430.3213	0.020896
430.5404	0.020939
430.7595	0.023746
430.9787	0.022543
431.1978	0.020917
431.4170	0.021107
431.6362	0.020115
431.8553	0.019587
432.0745	0.018405
432.2938	0.019250
432.5130	0.018342
432.7322	0.019799
432.9515	0.018574
433.1707	0.020516
433.3900	0.018574
433.6093	0.019989
433.8286	0.025498
434.0479	0.024865
434.2673	0.021677
434.4866	0.020516
434.7059	0.020516
434.9253	0.021804
435.1447	0.021530
435.3641	0.020580
435.5835	0.019925
435.8029	0.021129
436.0223	0.022247
436.2418	0.020812
436.4612	0.021234
436.6807	0.023556
436.9001	0.022374
437.1196	0.020854
437.3391	0.020537
437.5586	0.021910
437.7782	0.020305
437.9977	0.021086
438.2173	0.020812
438.4368	0.021234
438.6564	0.021023
438.8760	0.021213
439.0956	0.021129
439.3152	0.021804
439.5348	0.022649
439.7545	0.021762
439.9741	0.021234
440.1938	0.020685
440.4135	0.021910
440.6331	0.021107
440.8528	0.022290
441.0725	0.020770
441.2923	0.024021
441.5120	0.026997
441.7318	0.024675
441.9515	0.025562
442.1713	0.029151
442.3911	0.025330
442.6109	0.024295
442.8307	0.024527
443.0505	0.024506
443.2703	0.026554
443.4902	0.024844
443.7101	0.025477
443.9299	0.026174
444.1498	0.025520
444.3697	0.025921
444.5896	0.024907
444.8095	0.023788
445.0295	0.025646
445.2494	0.024506
445.4694	0.023387
445.6894	0.023472
445.9093	0.024485
446.1293	0.024316
446.3493	0.023408
446.5694	0.023704
446.7894	0.023451
447.0094	0.022226
447.2295	0.023387
447.4496	0.023071
447.6696	0.024844
447.8897	0.023176
448.1098	0.023092
448.3300	0.022036
448.5501	0.021656
448.7702	0.024021
448.9904	0.023303
449.2106	0.020727
449.4307	0.022416
449.6509	0.023472
449.8711	0.022775
450.0914	0.021234
450.3116	0.022036
450.5318	0.023746
450.7521	0.022839
450.9724	0.018996
451.1926	0.021044
451.4129	0.020242
451.6332	0.020727
451.8535	0.020939
452.0739	0.021551
452.2942	0.019355
452.5146	0.021656
452.7349	0.019271
452.9553	0.020749
453.1757	0.020326
453.3961	0.017117
453.6165	0.017096
453.8369	0.018785
454.0574	0.016590
454.2778	0.018152
454.4983	0.016273
454.7188	0.017012
454.9393	0.018405
455.1597	0.017730
455.3803	0.018321
455.6008	0.018806
455.8213	0.017265
456.0419	0.017476
456.2624	0.017265
456.4830	0.018469
456.7036	0.016801
456.9242	0.016906
457.1448	0.018004
457.3654	0.017160
457.5860	0.016653
457.8067	0.018405
458.0274	0.017877
458.2480	0.016357
458.4687	0.017223
458.6894	0.017666
458.9101	0.018827
459.1308	0.017962
459.3516	0.017751
459.5723	0.018490
459.7931	0.016822
460.0138	0.017962
460.2346	0.015724
460.4554	0.017371
460.6762	0.017160
460.8970	0.015851
461.1178	0.017117
461.3387	0.016379
461.5595	0.018173
461.7804	0.015513
462.0013	0.015365
462.2222	0.013972
462.4431	0.013697
462.6640	0.013402
462.8849	0.013170
463.1059	0.013951
463.3268	0.014436
463.5478	0.014035
463.7687	0.012916
463.9897	0.015217
464.2107	0.014310
464.4317	0.015049
464.6528	0.017160
464.8738	0.015999
465.0948	0.015999
465.3159	0.014880
465.5370	0.013951
465.7581	0.016547
465.9792	0.016695
466.2003	0.014837
466.4214	0.015914
466.6425	0.014099
466.8637	0.013149
467.0848	0.012536
467.3060	0.013423
467.5272	0.010911
467.7484	0.012325
467.9696	0.011122
468.1908	0.013676
468.4120	0.011671
468.6333	0.010805
468.8545	0.011333
469.0758	0.009665
469.2970	0.009792
469.5183	0.011016
469.7396	0.009074
469.9610	0.011354
470.1823	0.008948
470.4036	0.010024
470.6250	0.007596
470.8463	0.009876
471.0677	0.009518
471.2891	0.008948
471.5105	0.009011
471.7319	0.007385
471.9533	0.007955
472.1748	0.009053
472.3962	0.007976
472.6177	0.008694
472.8391	0.008209
473.0606	0.008378
473.2821	0.008948
473.5036	0.008103
473.7251	0.007618
473.9467	0.008926
474.1682	0.009475
474.3898	0.009834
474.6113	0.008800
474.8329	0.008694
475.0545	0.008546
475.2761	0.010130
475.4977	0.009433
475.7193	0.007723
475.9410	0.008420
476.1626	0.007364
476.3843	0.008736
476.6060	0.008335
476.8277	0.007428
477.0494	0.007132
477.2711	0.007449
477.4928	0.009243
477.7145	0.007955
477.9363	0.007090
478.1580	0.007660
478.3798	0.006710
478.6016	0.007449
478.8234	0.008209
479.0452	0.006456
479.2670	0.006710
479.4888	0.006773
479.7107	0.006541
479.9325	0.007850
480.1544	0.007174
480.3763	0.007428
480.5982	0.007428
480.8201	0.007512
481.0420	0.005591
481.2639	0.005739
481.4859	0.008166
481.7078	0.006224
481.9298	0.007385
482.1517	0.007702
482.3737	0.006604
482.5957	0.006900
482.8177	0.006034
483.0398	0.005760
483.2618	0.006076
483.4838	0.005443
483.7059	0.008145
483.9280	0.006963
484.1501	0.005232
484.3721	0.006309
484.5943	0.007406
484.8164	0.005633
485.0385	0.007385
485.2606	0.007554
485.4828	0.009454
485.7050	0.013296
485.9271	0.019630
486.1493	0.020643
486.3715	0.016674
486.5937	0.014289
486.8160	0.010953
487.0382	0.009665
487.2605	0.010151
487.4827	0.007343
487.7050	0.009053
487.9273	0.004831
488.1496	0.006266
488.3719	0.005401
488.5942	0.005021
488.8165	0.006098
489.0389	0.005570
489.2612	0.004409
489.4836	0.005274
489.7060	0.006456
489.9284	0.006076
490.1508	0.003923
490.3732	0.006773
490.5956	0.004345
490.8180	0.004472
491.0405	0.003712
491.2630	0.003775
491.4854	0.004514
491.7079	0.004725
491.9304	0.003649
492.1529	0.004641
492.3755	0.004050
492.5980	0.005148
492.8205	0.003818
493.0431	0.005633
493.2657	0.003459
493.4882	0.003438
493.7108	0.004768
493.9334	0.005190
494.1561	0.003416
494.3787	0.003986
494.6013	0.004092
494.8240	0.004599
495.0466	0.003606
495.2693	0.003374
495.4920	0.003564
495.7147	0.004388
495.9374	0.004008
496.1601	0.005021
496.3829	0.004683
496.6056	0.005253
496.8284	0.004071
497.0511	0.004029
497.2739	0.004641
497.4967	0.002846
497.7195	0.001960
497.9423	0.005739
498.1652	0.003649
498.3880	0.004176
498.6109	0.002910
498.8337	0.004556
499.0566	0.002994
499.2795	0.003058
499.5024	0.002973
499.7253	0.004979
499.9482	0.003459
500.1712	0.002889
500.3941	0.003416
500.6171	0.003332
500.8400	0.003649
501.0630	0.003775
501.2860	0.003311
501.5090	0.002551
501.7320	0.003839
501.9551	0.004472
502.1781	0.003564
502.4012	0.003691
502.6242	0.003395
502.8473	0.004599
503.0704	0.003015
503.2935	0.004092
503.5166	0.004345
503.7397	0.003564
503.9628	0.002868
504.1860	0.004029
504.4092	0.003079
504.6323	0.002044
504.8555	0.002994
505.0787	0.003796
505.3019	0.002635
505.5251	0.003015
505.7483	0.002361
505.9716	0.004451
506.1948	0.001516
506.4181	0.002994
506.6414	0.002846
506.8647	0.003775
507.0880	0.002783
507.3113	0.002530
507.5346	0.001305
507.7579	0.003543
507.9813	0.002192
508.2046	0.004303
508.4280	0.001981
508.6514	0.002171
508.8748	0.003480
509.0982	0.003480
509.3216	0.002846
509.5450	0.004345
509.7685	0.004578
509.9919	0.002509
510.2154	0.002699
510.4388	0.002825
510.6623	0.002635
510.8858	0.003332
511.1093	0.001453
511.3329	0.002086
511.5564	0.003332
511.7799	0.002171
512.0035	0.003015
512.2270	0.003269
512.4506	0.004261
512.6742	0.004430
512.8978	0.003839
513.1214	0.003923
513.3451	0.001390
513.5687	0.003058
513.7923	0.003775
514.0160	0.003522
514.2397	0.002509
514.4634	0.003353
514.6871	0.003796
514.9108	0.002150
515.1345	0.003923
515.3582	0.003564
515.5819	0.002445
515.8057	0.002804
516.0295	0.003311
516.2532	0.003923
516.4770	0.002445
516.7008	0.004008
516.9246	0.002572
517.1485	0.002931
517.3723	0.004134
517.5961	0.003670
517.8200	0.004345
518.0439	0.003902
518.2677	0.004641
518.4916	0.004198
518.7155	0.003459
518.9395	0.003395
519.1634	0.003290
519.3873	0.003712
519.6113	0.001875
519.8352	0.002825
520.0592	0.003501
520.2832	0.004050
520.5072	0.003564
520.7312	0.003036
520.9552	0.003944
521.1792	0.002213
521.4033	0.004008
521.6273	0.002783
521.8514	0.003564
522.0755	0.003226
522.2996	0.003754
522.5237	0.002762
522.7478	0.004493
522.9719	0.002108
523.1960	0.004261
523.4202	0.002804
523.6443	0.004345
523.8685	0.003923
524.0927	0.004113
524.3169	0.004008
524.5411	0.004092
524.7653	0.003522
524.9895	0.005549
525.2138	0.003205
525.4380	0.004894
525.6623	0.002466
525.8865	0.004894
526.1108	0.002973
526.3351	0.003839
526.5594	0.003543
526.7837	0.005316
527.0081	0.003501
527.2324	0.004388
527.4568	0.004514
527.6811	0.005232
527.9055	0.004324
528.1299	0.004451
528.3543	0.003501
528.5787	0.005401
528.8031	0.005464
529.0276	0.006309
529.2520	0.005042
529.4765	0.004746
529.7009	0.005485
529.9254	0.004936
530.1499	0.004599
530.3744	0.005021
530.5989	0.004240
530.8234	0.005844
531.0480	0.005021
531.2725	0.005485
531.4971	0.004176
531.7217	0.005696
531.9462	0.004979
532.1708	0.005422
532.3954	0.006351
532.6200	0.006773
532.8447	0.006731
533.0693	0.006478
533.2940	0.006583
533.5186	0.007554
533.7433	0.007322
533.9680	0.007111
534.1927	0.007702
534.4174	0.008546
534.6421	0.006393
534.8668	0.007428
535.0916	0.006963
535.3163	0.008040
535.5411	0.007026
535.7659	0.009412
535.9907	0.006731
536.2155	0.007364
536.4403	0.006266
536.6651	0.007998
536.8899	0.006879
537.1148	0.007850
537.3396	0.006668
537.5645	0.008610
537.7894	0.009644
538.0143	0.008504
538.2392	0.009940
538.4641	0.009792
538.6890	0.008821
538.9139	0.008948
539.1389	0.008990
539.3638	0.010172
539.5888	0.010193
539.8138	0.010826
540.0388	0.009539
540.2638	0.009855
540.4888	0.010024
540.7138	0.010932
540.9389	0.009961
541.1639	0.011882
541.3890	0.011417
541.6140	0.011312
541.8391	0.011713
542.0642	0.011586
542.2893	0.011460
542.5144	0.012304
542.7396	0.011987
542.9647	0.011629
543.1899	0.013022
543.4150	0.014774
543.6402	0.012811
543.8654	0.013170
544.0906	0.012536
544.3158	0.016210
544.5410	0.013697
544.7662	0.015619
544.9915	0.014141
545.2167	0.017012
545.4420	0.015407
545.6673	0.012579
545.8926	0.013339
546.1179	0.013655
546.3432	0.014753
546.5685	0.013381
546.7938	0.014246
547.0192	0.016906
547.2445	0.016357
547.4699	0.016125
547.6953	0.015809
547.9206	0.018637
548.1460	0.019039
548.3715	0.019355
548.5969	0.018511
548.8223	0.020094
549.0478	0.016885
549.2732	0.017181
549.4987	0.016632
549.7242	0.018680
549.9496	0.016885
550.1751	0.019313
550.4007	0.016843
550.6262	0.016737
550.8517	0.017350
551.0773	0.016569
551.3028	0.017434
551.5284	0.017751
551.7540	0.017139
551.9796	0.019250
552.2052	0.020854
552.4308	0.021297
552.6564	0.022079
552.8820	0.021889
553.1077	0.022269
553.3333	0.020559
553.5590	0.020263
553.7847	0.024063
554.0104	0.021994
554.2361	0.023978
554.4618	0.022015
554.6875	0.021403
554.9132	0.018447
555.1390	0.022543
555.3648	0.023197
555.5905	0.024105
555.8163	0.023683
556.0421	0.025287
556.2679	0.023873
556.4937	0.024570
556.7195	0.025308
556.9454	0.024570
557.1712	0.023155
557.3971	0.025372
557.6230	0.026005
557.8488	0.025794
558.0747	0.025900
558.3006	0.024802
558.5266	0.023915
558.7525	0.025372
558.9784	0.024506
559.2044	0.023219
559.4303	0.022902
559.6563	0.023915
559.8823	0.025308
560.1083	0.027588
560.3343	0.029657
560.5603	0.029932
560.7863	0.031220
561.0124	0.032106
561.2384	0.032423
561.4645	0.033626
561.6905	0.033605
561.9166	0.033373
562.1427	0.033077
562.3688	0.031156
562.5949	0.031874
562.8211	0.032887
563.0472	0.032423
563.2733	0.032782
563.4995	0.033183
563.7257	0.036371
563.9519	0.034070
564.1781	0.034745
564.4043	0.037827
564.6305	0.037869
564.8567	0.038587
565.0829	0.040361
565.3092	0.039959
565.5355	0.039009
565.7617	0.037553
565.9880	0.038102
566.2143	0.043654
566.4406	0.039833
566.6669	0.039495
566.8932	0.043738
567.1196	0.044308
567.3459	0.049692
567.5723	0.052858
567.7987	0.053365
568.0250	0.053407
568.2514	0.056426
568.4778	0.056996
568.7043	0.061809
568.9307	0.065694
569.1571	0.069810
569.3836	0.072998
569.6100	0.081928
569.8365	0.086509
570.0630	0.097529
570.2895	0.096495
570.5160	0.101434
570.7425	0.102870
570.9690	0.107873
571.1956	0.113658
571.4221	0.119104
571.6487	0.122398
571.8752	0.125775
572.1018	0.133164
572.3284	0.130779
572.5550	0.123137
572.7816	0.116128
573.0082	0.114924
573.2349	0.121004
573.4615	0.131159
573.6882	0.144015
573.9149	0.150095
574.1415	0.151003
574.3682	0.162741
574.5949	0.164113
574.8216	0.167132
575.0484	0.170742
575.2751	0.170636
575.5018	0.164894
575.7286	0.161453
575.9554	0.153156
576.1821	0.152375
576.4089	0.157357
576.6357	0.165781
576.8626	0.173338
577.0894	0.179038
577.3162	0.179038
577.5431	0.188137
577.7699	0.205828
577.9968	0.240788
578.2237	0.231478
578.4505	0.217861
578.6774	0.204625
578.9044	0.194850
579.1313	0.183197
579.3582	0.183767
579.5851	0.195737
579.8121	0.201289
580.0391	0.201395
580.2660	0.202408
580.4930	0.199621
580.7200	0.194407
580.9470	0.196370
581.1741	0.230866
581.4011	0.279970
581.6281	0.304627
581.8552	0.313705
582.0822	0.302812
582.3093	0.293544
582.5364	0.274270
582.7635	0.254995
582.9906	0.231647
583.2177	0.215539
583.4449	0.201310
583.6720	0.186089
583.8991	0.187630
584.1263	0.189446
584.3535	0.192549
584.5807	0.193900
584.8079	0.205554
585.0351	0.217692
585.2623	0.227340
585.4895	0.231203
585.7167	0.223857
585.9440	0.218030
586.1713	0.209670
586.3985	0.197658
586.6258	0.192887
586.8531	0.195568
587.0804	0.207939
587.3077	0.215771
587.5350	0.226031
587.7624	0.220563
587.9897	0.207644
588.2171	0.198228
588.4445	0.194639
588.6718	0.192528
588.8992	0.183324
589.1266	0.170552
589.3540	0.161094
589.5815	0.160461
589.8089	0.160355
590.0363	0.159300
590.2638	0.151636
590.4913	0.145852
590.7187	0.142537
590.9462	0.135571
591.1737	0.129385
591.4012	0.127211
591.6288	0.127126
591.8563	0.126514
592.0838	0.125670
592.3114	0.129491
592.5389	0.147604
592.7665	0.179207
592.9941	0.190607
593.2217	0.196877
593.4493	0.195800
593.6769	0.195188
593.9046	0.185878
594.1322	0.179355
594.3598	0.170024
594.5875	0.165823
594.8152	0.176231
595.0429	0.190206
595.2705	0.194597
595.4983	0.192106
595.7260	0.185477
595.9537	0.171818
596.1814	0.156808
596.4092	0.151425
596.6369	0.141545
596.8647	0.138906
597.0925	0.142833
597.3203	0.145915
597.5481	0.149504
597.7759	0.144754
598.0037	0.143255
598.2315	0.133249
598.4594	0.138168
598.6872	0.147435
598.9151	0.172008
599.1430	0.182353
599.3709	0.178637
599.5988	0.173972
599.8267	0.174964
600.0546	0.177940
600.2825	0.182184
600.5105	0.180157
600.7384	0.177497
600.9664	0.180959
601.1944	0.185266
601.4223	0.181403
601.6503	0.174711
601.8783	0.168061
602.1064	0.163416
602.3344	0.163078
602.5624	0.163268
602.7905	0.167871
603.0185	0.169897
603.2466	0.177307
603.4747	0.186554
603.7028	0.188665
603.9309	0.183598
604.1590	0.172283
604.3871	0.161453
604.6152	0.162973
604.8434	0.155204
605.0715	0.155964
605.2997	0.153473
605.5279	0.161115
605.7561	0.168145
605.9843	0.172198
606.2125	0.168799
606.4407	0.161242
606.6689	0.159933
606.8972	0.155478
607.1254	0.157020
607.3537	0.156872
607.5819	0.156027
607.8102	0.154972
608.0385	0.152354
608.2668	0.145683
608.4951	0.145240
608.7235	0.146485
608.9518	0.140089
609.1801	0.133882
609.4085	0.133692
609.6369	0.129575
609.8653	0.133544
610.0936	0.144226
610.3220	0.149673
610.5505	0.146654
610.7789	0.138991
611.0073	0.139582
611.2357	0.136289
611.4642	0.135592
611.6927	0.135698
611.9211	0.137091
612.1496	0.127316
612.3781	0.127169
612.6066	0.126472
612.8351	0.128773
613.0637	0.126662
613.2922	0.131138
613.5208	0.126852
613.7493	0.121215
613.9779	0.126071
614.2065	0.128942
614.4351	0.123115
614.6637	0.124973
614.8923	0.125058
615.1209	0.124319
615.3495	0.124762
615.5782	0.129069
615.8068	0.127084
616.0355	0.122165
616.2642	0.116444
616.4929	0.111441
616.7216	0.110554
616.9503	0.107852
617.1790	0.109224
617.4077	0.110681
617.6365	0.110027
617.8652	0.109351
618.0940	0.111547
618.3227	0.108274
618.5515	0.101477
618.7803	0.095650
619.0091	0.090689
619.2379	0.091428
619.4667	0.089845
619.6956	0.089063
619.9244	0.092610
620.1533	0.094932
620.3821	0.096579
620.6110	0.094932
620.8399	0.088430
621.0688	0.081274
621.2977	0.075046
621.5266	0.071183
621.7556	0.078022
621.9845	0.080387
622.2135	0.083047
622.4424	0.081949
622.6714	0.083321
622.9004	0.087016
623.1294	0.087607
623.3584	0.089950
623.5874	0.089929
623.8164	0.088831
624.0454	0.086762
624.2745	0.088240
624.5035	0.087417
624.7326	0.092082
624.9617	0.089443
625.1908	0.086298
625.4199	0.083891
625.6490	0.078656
625.8781	0.080197
626.1072	0.075320
626.3364	0.074117
626.5655	0.074011
626.7947	0.070465
627.0238	0.070993
627.2530	0.072006
627.4822	0.071225
627.7114	0.071964
627.9406	0.066221
628.1698	0.063266
628.3991	0.059297
628.6283	0.058769
628.8576	0.056236
629.0868	0.060036
629.3161	0.061662
629.5454	0.064321
629.7747	0.064849
630.0040	0.061830
630.2333	0.060332
630.4626	0.061809
630.6920	0.057925
630.9213	0.055054
631.1507	0.055413
631.3801	0.053576
631.6094	0.053069
631.8388	0.052816
632.0682	0.052035
632.2976	0.051507
632.5271	0.047876
632.7565	0.047813
632.9859	0.045765
633.2154	0.044963
633.4448	0.044773
633.6743	0.046314
633.9038	0.045448
634.1333	0.045385
634.3628	0.042472
634.5923	0.042535
634.8218	0.040424
635.0514	0.039706
635.2809	0.041416
635.5105	0.040171
635.7400	0.041057
635.9696	0.040593
636.1992	0.043907
636.4288	0.046694
636.6584	0.047707
636.8880	0.046208
637.1177	0.044139
637.3473	0.042366
637.5770	0.040973
637.8066	0.040297
638.0363	0.040867
638.2660	0.041606
638.4957	0.044224
638.7254	0.041057
638.9551	0.044245
639.1848	0.041226
639.4145	0.039263
639.6443	0.040069
639.8740	0.041312
640.1038	0.040094
640.3336	0.036223
640.5633	0.036258
640.7931	0.034684
641.0229	0.035686
641.2528	0.034462
641.4826	0.034615
641.7124	0.032529
641.9423	0.031758
642.1721	0.030688
642.4020	0.031606
642.6319	0.030613
642.8617	0.032135
643.0916	0.031305
643.3216	0.028587
643.5515	0.031245
643.7814	0.029483
644.0113	0.029254
644.2413	0.030106
644.4712	0.028303
644.7012	0.028278
644.9312	0.028074
645.1612	0.027901
645.3912	0.026694
645.6212	0.025719
645.8512	0.024334
646.0812	0.027679
646.3113	0.025700
646.5413	0.025607
646.7714	0.025243
647.0015	0.024457
647.2316	0.025193
647.4616	0.024679
647.6918	0.025193
647.9219	0.028360
648.1520	0.027600
648.3821	0.030859
648.6123	0.032136
648.8424	0.034303
649.0726	0.033342
649.3028	0.031584
649.5329	0.034090
649.7631	0.032541
649.9933	0.031104
650.2236	0.030151
650.4538	0.028611
650.6840	0.031188
650.9143	0.028174
651.1445	0.026962
651.3748	0.030176
651.6051	0.029993
651.8354	0.031323
652.0657	0.031925
652.2960	0.032090
652.5263	0.031827
652.7566	0.032785
652.9870	0.031283
653.2173	0.031884
653.4477	0.031724
653.6780	0.030682
653.9084	0.032267
654.1388	0.031585
654.3692	0.034222
654.5996	0.038009
654.8300	0.040432
655.0605	0.068077
655.2909	0.188158
655.5213	0.521817
655.7518	0.941712
655.9823	1.000000
656.2128	1.000000
656.4433	1.000000
656.6738	1.000000
656.9043	1.000000
657.1348	0.856580
657.3653	0.705460
657.5959	0.606621
657.8264	0.526672
658.0570	0.483337
658.2875	0.450252
658.5181	0.405614
658.7487	0.378491
658.9793	0.364825
659.2099	0.329139
659.4406	0.255245
659.6712	0.170477
659.9018	0.101123
660.1325	0.062995
660.3632	0.038576
660.5938	0.031939
660.8245	0.027650
661.0552	0.024037
661.2859	0.025681
661.5166	0.022449
661.7474	0.022130
661.9781	0.022059
662.2088	0.022516
662.4396	0.024019
662.6704	0.022802
662.9011	0.023459
663.1319	0.019449
663.3627	0.023367
663.5935	0.023467
663.8243	0.023344
664.0552	0.020940
664.2860	0.021588
664.5168	0.022294
664.7477	0.020738
664.9786	0.023215
665.2094	0.025609
665.4403	0.024481
665.6712	0.024424
665.9021	0.022937
666.1330	0.024714
666.3640	0.024330
666.5949	0.020999
666.8259	0.021600
667.0568	0.020867
667.2878	0.020814
667.5188	0.022353
667.7497	0.020811
667.9807	0.021326
668.2117	0.022006
668.4428	0.019714
668.6738	0.021044
668.9048	0.020896
669.1359	0.020495
669.3669	0.021699
669.5980	0.021044
669.8291	0.022057
670.0602	0.022923
670.2913	0.022269
670.5224	0.022522
670.7535	0.023134
670.9846	0.022311
671.2157	0.023810
671.4469	0.025963
671.6781	0.030058
671.9092	0.030502
672.1404	0.031051
672.3716	0.033858
672.6028	0.036349
672.8340	0.034766
673.0652	0.034703
673.2964	0.030713
673.5277	0.033436
673.7589	0.030080
673.9902	0.028792
674.2214	0.028918
674.4527	0.029805
674.6840	0.026195
674.9153	0.026596
675.1466	0.027715
675.3779	0.027652
675.6093	0.027588
675.8406	0.026364
676.0719	0.026301
676.3033	0.026512
676.5347	0.025245
676.7661	0.023577
676.9974	0.024738
677.2288	0.023704
677.4602	0.025541
677.6917	0.027420
677.9231	0.031093
678.1545	0.028264
678.3860	0.026828
678.6174	0.031072
678.8489	0.031811
679.0804	0.031958
679.3119	0.031853
679.5434	0.034661
679.7749	0.035146
680.0064	0.035188
680.2379	0.034724
680.4694	0.032930
680.7010	0.032803
680.9325	0.032908
681.1641	0.034238
681.3957	0.036328
681.6273	0.036307
681.8589	0.034027
682.0905	0.034027
682.3221	0.029890
682.5537	0.031980
682.7854	0.031663
683.0170	0.030354
683.2487	0.029467
683.4803	0.031768
683.7120	0.032444
683.9437	0.031177
684.1754	0.033521
684.4071	0.035336
684.6388	0.036835
684.8705	0.038081
685.1023	0.041374
685.3340	0.043569
685.5658	0.044878
685.7975	0.045153
686.0293	0.043907
686.2611	0.043759
686.4929	0.045406
686.7247	0.042282
686.9565	0.041923
687.1883	0.043337
687.4202	0.043189
687.6520	0.043358
687.8838	0.041733
688.1157	0.041078
688.3476	0.039664
688.5795	0.037743
688.8114	0.037299
689.0433	0.035463
689.2752	0.036054
689.5071	0.036075
689.7390	0.036371
689.9710	0.035484
690.2029	0.036497
690.4349	0.031916
690.6669	0.035864
690.8988	0.033668
691.1308	0.038904
691.3628	0.037848
691.5948	0.039432
691.8269	0.035801
692.0589	0.039917
692.2909	0.037764
692.5230	0.038735
692.7550	0.038123
692.9871	0.037637
693.2192	0.039094
693.4513	0.039411
693.6834	0.039453
693.9155	0.037827
694.1476	0.036751
694.3797	0.035970
694.6119	0.032740
694.8440	0.035400
695.0762	0.035357
695.3083	0.037701
695.5405	0.032782
695.7727	0.030966
696.0049	0.030438
696.2371	0.029320
696.4693	0.031008
696.7016	0.034534
696.9338	0.040276
697.1660	0.041585
697.3983	0.036603
697.6306	0.039959
697.8628	0.039748
698.0951	0.039009
698.3274	0.037489
698.5597	0.039073
698.7920	0.037616
699.0243	0.036708
699.2567	0.034344
699.4890	0.035041
699.7214	0.033352
699.9537	0.032317
700.1861	0.030270
700.4185	0.031705
700.6509	0.033753
700.8833	0.031114
701.1157	0.028876
701.3481	0.027800
701.5806	0.028412
701.8130	0.030101
702.0454	0.028728
702.2779	0.027293
702.5104	0.031916
702.7429	0.030270
702.9753	0.030840
703.2078	0.029404
703.4403	0.027821
703.6729	0.028581
703.9054	0.028496
704.1379	0.027990
704.3705	0.028560
704.6030	0.026491
704.8356	0.026512
705.0682	0.024295
705.3008	0.026744
705.5334	0.023598
705.7660	0.023662
705.9986	0.027018
706.2312	0.028370
706.4638	0.031578
706.6965	0.033310
706.9291	0.034745
707.1618	0.036181
707.3945	0.036054
707.6272	0.038967
707.8599	0.037574
708.0926	0.036772
708.3253	0.038186
708.5580	0.038503
708.7907	0.038461
709.0235	0.034724
709.2562	0.032634
709.4890	0.033563
709.7217	0.034070
709.9545	0.033267
710.1873	0.032718
710.4201	0.033647
710.6529	0.036265
710.8857	0.034302
711.1186	0.034787
711.3514	0.032486
711.5842	0.031051
711.8171	0.031093
712.0500	0.029256
712.2828	0.031262
712.5157	0.029784
712.7486	0.032127
712.9815	0.031578
713.2144	0.031600
713.4474	0.032233
713.6803	0.032507
713.9132	0.032170
714.1462	0.033478
714.3791	0.033436
714.6121	0.034091
714.8451	0.035864
715.0781	0.036349
715.3111	0.035125
715.5441	0.035970
715.7771	0.034217
716.0102	0.031937
716.2432	0.029974
716.4762	0.031156
716.7093	0.030903
716.9424	0.029594
717.1754	0.028327
717.4085	0.027356
717.6416	0.026997
717.8747	0.028053
718.1078	0.029721
718.3410	0.029911
718.5741	0.026828
718.8072	0.026491
719.0404	0.029045
719.2736	0.030101
719.5067	0.031051
719.7399	0.031283
719.9731	0.029636
720.2063	0.028961
720.4395	0.027187
720.6727	0.030058
720.9060	0.029277
721.1392	0.029467
721.3725	0.031114
721.6057	0.030396
721.8390	0.030586
722.0723	0.029615
722.3055	0.028750
722.5388	0.029488
722.7721	0.026068
723.0055	0.027778
723.2388	0.027208
723.4721	0.029341
723.7055	0.027968
723.9388	0.029151
724.1722	0.027694
724.4056	0.028158
724.6389	0.027842
724.8723	0.028412
725.1057	0.029932
725.3391	0.032381
725.5726	0.033647
725.8060	0.033267
726.0394	0.033690
726.2729	0.035674
726.5063	0.033964
726.7398	0.034238
726.9733	0.031557
727.2068	0.030966
727.4403	0.030713
727.6738	0.033521
727.9073	0.032212
728.1408	0.033605
728.3743	0.035843
728.6079	0.034450
728.8414	0.033837
729.0750	0.035927
729.3086	0.034048
729.5421	0.038102
729.7757	0.037954
730.0093	0.036497
730.2429	0.037321
730.4766	0.038629
730.7102	0.041374
730.9438	0.044604
731.1775	0.043084
731.4111	0.041458
731.6448	0.041648
731.8785	0.041247
732.1122	0.042704
732.3458	0.041691
732.5795	0.041332
732.8133	0.044097
733.0470	0.044097
733.2807	0.040698
733.5145	0.043844
733.7482	0.047749
733.9820	0.049333
734.2157	0.050958
734.4495	0.052964
734.6833	0.050578
734.9171	0.047918
735.1509	0.049164
735.3847	0.047602
735.6185	0.048256
735.8524	0.048045
736.0862	0.045554
736.3201	0.049692
736.5539	0.048636
736.7878	0.048509
737.0217	0.048932
737.2556	0.050515
737.4895	0.045322
737.7234	0.048151
737.9573	0.046082
738.1912	0.042493
738.4252	0.039516
738.6591	0.039326
738.8931	0.043781
739.1271	0.042683
739.3610	0.045997
739.5950	0.047011
739.8290	0.044203
740.0630	0.044477
740.2970	0.041501
740.5310	0.040572
740.7651	0.039558
740.9991	0.038988
741.2332	0.037511
741.4672	0.034808
741.7013	0.034471
741.9354	0.034787
742.1695	0.034682
742.4036	0.035843
742.6377	0.036814
742.8718	0.036772
743.1059	0.035231
743.3400	0.033690
743.5742	0.029868
743.8083	0.030924
744.0425	0.031536
744.2767	0.031705
744.5108	0.030058
744.7450	0.029678
744.9792	0.029594
745.2134	0.028285
745.4477	0.028412
745.6819	0.025857
745.9161	0.029298
746.1504	0.028665
746.3846	0.030924
746.6189	0.028391
746.8532	0.027884
747.0874	0.030945
747.3217	0.034196
747.5560	0.033732
747.7903	0.031156
748.0247	0.029995
748.2590	0.028496
748.4933	0.027863
748.7277	0.028560
748.9620	0.029552
749.1964	0.033141
749.4308	0.035357
749.6652	0.035885
749.8995	0.035927
750.1339	0.037426
750.3684	0.037215
750.6028	0.043105
750.8372	0.040339
751.0717	0.039537
751.3061	0.039432
751.5406	0.038862
751.7750	0.040529
752.0095	0.037764
752.2440	0.040213
752.4785	0.038798
752.7130	0.038482
752.9475	0.035526
753.1820	0.035927
753.4166	0.039812
753.6511	0.041627
753.8856	0.043485
754.1202	0.042028
754.3548	0.041078
754.5894	0.038904
754.8239	0.042345
755.0585	0.039136
755.2931	0.039622
755.5278	0.041775
755.7624	0.044815
755.9970	0.044203
756.2317	0.046778
756.4663	0.046968
756.7010	0.050937
756.9356	0.050473
757.1703	0.055180
757.4050	0.059128
757.6397	0.058136
757.8744	0.060184
758.1091	0.058284
758.3438	0.057017
758.5786	0.055624
758.8133	0.052900
759.0481	0.052985
759.2828	0.059170
759.5176	0.058812
759.7524	0.061260
759.9872	0.060310
760.2220	0.062210
760.4568	0.061387
760.6916	0.063097
760.9264	0.062865
761.1613	0.064216
761.3961	0.062421
761.6310	0.057017
761.8658	0.055012
762.1007	0.050452
762.3356	0.050515
762.5705	0.047792
762.8054	0.048573
763.0403	0.047982
763.2752	0.051022
763.5101	0.052288
763.7450	0.049502
763.9800	0.050114
764.2149	0.053006
764.4499	0.056426
764.6849	0.057165
764.9198	0.060437
765.1548	0.057777
765.3898	0.055666
765.6248	0.054420
765.8599	0.052162
766.0949	0.050114
766.3299	0.047222
766.5650	0.041881
766.8000	0.041036
767.0351	0.038587
767.2701	0.037827
767.5052	0.039136
767.7403	0.040593
767.9754	0.039791
768.2105	0.043717
768.4456	0.046757
768.6808	0.048552
768.9159	0.051085
769.1510	0.048889
769.3862	0.046441
769.6214	0.046504
769.8565	0.043401
770.0917	0.046863
770.3269	0.045976
770.5621	0.046926
770.7973	0.046103
771.0325	0.051275
771.2677	0.048214
771.5030	0.048066
771.7382	0.044794
771.9735	0.044583
772.2087	0.040593
772.4440	0.040762
772.6793	0.040614
772.9146	0.040825
773.1499	0.038165
773.3852	0.038756
773.6205	0.035758
773.8558	0.037701
774.0911	0.037342
774.3265	0.035927
774.5618	0.034450
774.7972	0.032507
775.0326	0.032676
775.2679	0.030776
775.5033	0.029277
775.7387	0.029045
775.9741	0.026744
776.2095	0.025625
776.4450	0.026068
776.6804	0.026406
776.9158	0.027145
777.1513	0.026596
777.3868	0.025224
777.6222	0.025963
777.8577	0.023366
778.0932	0.025878
778.3287	0.026047
778.5642	0.028982
778.7997	0.028961
779.0352	0.031980
779.2707	0.031705
779.5063	0.030058
779.7418	0.031135
779.9774	0.029615
780.2130	0.028011
780.4485	0.029108
780.6841	0.028327
780.9197	0.031621
781.1553	0.032951
781.3909	0.035336
781.6265	0.034766
781.8622	0.034893
782.0978	0.033500
782.3335	0.035146
782.5691	0.037278
782.8048	0.035167
783.0405	0.033795
783.2761	0.035041
783.5118	0.032275
783.7475	0.034893
783.9832	0.034238
784.2190	0.032296
784.4547	0.030523
784.6904	0.030016
784.9262	0.030185
785.1619	0.029784
785.3977	0.029151
785.6335	0.029087
785.8692	0.028348
786.1050	0.028053
786.3408	0.028496
786.5766	0.027905
786.8124	0.028644
787.0483	0.027314
787.2841	0.028665
787.5199	0.028496
787.7558	0.031494
787.9917	0.030945
788.2275	0.031536
788.4634	0.030776
788.6993	0.032402
788.9352	0.032613
789.1711	0.031410
789.4070	0.031473
789.6429	0.028855
789.8789	0.026786
790.1148	0.026744
790.3507	0.026702
790.5867	0.026301
790.8227	0.026385
791.0586	0.024738
791.2946	0.025266
791.5306	0.024527
791.7666	0.025055
792.0026	0.024443
792.2387	0.022733
792.4747	0.023134
792.7107	0.023050
792.9468	0.020939
793.1828	0.024232
793.4189	0.021255
793.6550	0.024907
793.8910	0.024612
794.1271	0.029404
794.3632	0.031811
794.5993	0.034133
794.8355	0.031346
795.0716	0.031705
795.3077	0.031283
795.5439	0.032170
795.7800	0.029953
796.0162	0.029130
796.2523	0.023577
796.4885	0.022480
796.7247	0.022965
796.9609	0.020727
797.1971	0.020031
797.4333	0.024232
797.6695	0.022796
797.9058	0.022585
798.1420	0.022163
798.3783	0.023894
798.6145	0.024506
798.8508	0.022691
799.0871	0.023155
799.3233	0.023050
799.5596	0.022501
799.7959	0.022205
800.0322	0.019461
800.2686	0.019482
800.5049	0.019271
800.7412	0.018363
800.9776	0.019081
801.2139	0.020263
801.4503	0.019060
801.6867	0.018384
801.9230	0.017603
802.1594	0.017054
802.3958	0.015956
802.6322	0.017899
802.8686	0.015830
803.1051	0.018215
803.3415	0.017012
803.5779	0.018743
803.8144	0.018405
804.0508	0.018701
804.2873	0.017561
804.5238	0.017371
804.7603	0.016442
804.9968	0.016104
805.2333	0.018870
805.4698	0.017181
805.7063	0.017624
805.9428	0.020305
806.1794	0.020643
806.4159	0.023050
806.6525	0.025245
806.8890	0.024042
807.1256	0.022374
807.3622	0.022902
807.5988	0.023767
807.8354	0.024084
808.0720	0.023978
808.3086	0.022817
808.5452	0.022459
808.7818	0.023472
809.0185	0.024042
809.2551	0.021234
809.4918	0.022015
809.7284	0.019777
809.9651	0.019292
810.2018	0.020854
810.4385	0.020242
810.6752	0.019820
810.9119	0.018300
811.1486	0.018574
811.3853	0.019250
811.6221	0.019039
811.8588	0.019397
812.0956	0.016379
812.3323	0.016146
812.5691	0.016716
812.8059	0.015766
813.0427	0.014267
813.2795	0.014816
813.5163	0.017561
813.7531	0.017350
813.9899	0.019566
814.2267	0.019672
814.4636	0.020263
814.7004	0.019820
814.9373	0.017244
815.1742	0.016041
815.4110	0.015302
815.6479	0.014415
815.8848	0.014584
816.1217	0.014922
816.3586	0.012747
816.5955	0.013951
816.8324	0.016104
817.0694	0.014669
817.3063	0.014394
817.5433	0.014077
817.7802	0.015196
818.0172	0.013655
818.2542	0.014120
818.4912	0.014436
818.7282	0.012579
818.9652	0.013866
819.2022	0.013149
819.4392	0.014289
819.6762	0.012642
819.9133	0.012114
820.1503	0.012811
820.3874	0.015471
820.6244	0.013127
820.8615	0.016906
821.0986	0.016590
821.3357	0.014795
821.5727	0.015576
821.8099	0.016294
822.0470	0.015956
822.2841	0.012811
822.5212	0.013170
822.7584	0.014141
822.9955	0.012959
823.2327	0.012494
823.4698	0.012832
823.7070	0.012367
823.9442	0.009940
824.1814	0.012009
824.4186	0.010425
824.6558	0.013212
824.8930	0.012621
825.1302	0.010130
825.3675	0.012346
825.6047	0.012959
825.8419	0.013254
826.0792	0.012916
826.3165	0.012220
826.5537	0.013191
826.7910	0.012600
827.0283	0.014669
827.2656	0.013254
827.5029	0.013866
827.7402	0.014647
827.9776	0.013782
828.2149	0.012557
828.4522	0.012241
828.6896	0.013064
828.9270	0.012769
829.1643	0.013507
829.4017	0.012030
829.6391	0.011924
829.8765	0.012895
830.1139	0.009729
830.3513	0.011819
830.5887	0.010700
830.8261	0.010446
831.0636	0.008715
831.3010	0.009961
831.5385	0.009222
831.7759	0.009686
832.0134	0.008715
832.2509	0.007829
832.4884	0.009813
832.7259	0.010256
832.9634	0.009686
833.2009	0.010172
833.4384	0.009708
833.6759	0.009834
833.9135	0.009412
834.1510	0.010045
834.3886	0.011312
834.6261	0.011396
834.8637	0.009982
835.1013	0.011544
835.3389	0.010826
835.5765	0.009708
835.8141	0.009876
836.0517	0.008166
836.2893	0.009370
836.5269	0.008019
836.7646	0.006414
837.0022	0.008293
837.2399	0.009095
837.4775	0.006646
837.7152	0.007533
837.9529	0.007850
838.1906	0.007913
838.4283	0.007829
838.6660	0.006351
838.9037	0.007026
839.1414	0.008800
839.3791	0.008905
839.6169	0.006435
839.8546	0.008335
840.0924	0.008188
840.3302	0.007238
840.5679	0.006710
840.8057	0.007660
841.0435	0.007216
841.2813	0.008040
841.5191	0.005633
841.7569	0.006393
841.9947	0.007892
842.2326	0.005950
842.4704	0.005169
842.7082	0.006646
842.9461	0.006372
843.1840	0.006098
843.4218	0.005823
843.6597	0.005760
843.8976	0.005148
844.1355	0.006794
844.3734	0.006520
844.6113	0.004894
844.8492	0.005253
845.0872	0.006288
845.3251	0.005274
845.5631	0.006541
845.8010	0.006836
846.0390	0.006034
846.2770	0.004936
846.5149	0.004641
846.7529	0.004704
846.9909	0.002741
847.2289	0.004430
847.4669	0.006266
847.7050	0.004979
847.9430	0.005359
848.1810	0.004683
848.4191	0.005992
848.6571	0.003902
848.8952	0.005506
849.1333	0.005126
849.3713	0.005823
849.6094	0.004873
849.8475	0.006203
850.0856	0.004894
850.3237	0.006414
850.5619	0.005190
850.8000	0.005823
851.0381	0.005422
851.2763	0.006224
851.5144	0.005105
851.7526	0.004810
851.9908	0.005675
852.2289	0.007765
852.4671	0.006794
852.7053	0.008441
852.9435	0.009898
853.1817	0.012346
853.4200	0.013001
853.6582	0.013909
853.8964	0.013719
854.1347	0.013085
854.3729	0.014690
854.6112	0.014500
854.8495	0.015302
855.0877	0.014183
855.3260	0.012579
855.5643	0.011987
855.8026	0.013634
856.0409	0.013127
856.2792	0.012325
856.5176	0.012199
856.7559	0.013592
856.9942	0.011544
857.2326	0.012177
857.4710	0.010489
857.7093	0.010531
857.9477	0.011417
858.1861	0.009116
858.4245	0.009222
858.6629	0.010679
858.9013	0.009328
859.1397	0.008378
859.3781	0.009855
859.6166	0.008124
859.8550	0.009876
860.0935	0.007681
860.3319	0.010151
860.5704	0.006351
860.8089	0.006984
861.0473	0.007259
861.2858	0.006921
861.5243	0.006836
861.7628	0.006921
862.0013	0.006435
862.2399	0.005929
862.4784	0.006414
862.7169	0.006752
862.9555	0.006710
863.1940	0.006710
863.4326	0.007618
863.6712	0.008124
863.9098	0.007026
864.1483	0.007470
864.3869	0.005485
864.6255	0.006858
864.8642	0.005971
865.1028	0.004050
865.3414	0.005506
865.5800	0.007048
865.8187	0.005126
866.0573	0.006119
866.2960	0.005591
866.5347	0.004873
866.7733	0.006076
867.0120	0.007301
867.2507	0.006245
867.4894	0.005908
867.7281	0.005380
867.9669	0.005295
868.2056	0.007322
868.4443	0.005084
868.6831	0.005485
868.9218	0.005612
869.1606	0.004092
869.3993	0.004219
869.6381	0.004092
869.8769	0.006245
870.1157	0.005021
870.3545	0.005549
870.5933	0.005169
870.8321	0.004029
871.0709	0.005865
871.3097	0.004852
871.5486	0.005316
871.7874	0.006076
872.0263	0.004725
872.2651	0.006583
872.5040	0.005823
872.7429	0.006625
872.9818	0.003438
873.2207	0.005443
873.4596	0.004472
873.6985	0.006414
873.9374	0.005612
874.1763	0.005549
874.4153	0.006351
874.6542	0.005316
874.8932	0.006625
875.1321	0.007090
875.3711	0.005992
875.6101	0.006963
875.8491	0.004915
876.0880	0.004810
876.3270	0.005591
876.5661	0.005570
876.8051	0.006288
877.0441	0.005992
877.2831	0.004599
877.5222	0.005612
877.7612	0.007005
878.0003	0.006900
878.2393	0.007385
878.4784	0.006098
878.7175	0.007871
878.9566	0.007090
879.1957	0.007090
879.4348	0.006076
879.6739	0.007829
879.9130	0.007470
880.1521	0.008166
880.3913	0.007702
880.6304	0.007765
880.8696	0.006900
881.1087	0.010024
881.3479	0.007976
881.5871	0.007829
881.8262	0.007069
882.0654	0.005781
882.3046	0.007301
882.5438	0.007702
882.7831	0.005675
883.0223	0.007111
883.2615	0.005295
883.5007	0.005126
883.7400	0.004556
883.9792	0.005950
884.2185	0.006921
884.4578	0.006541
884.6971	0.005696
884.9363	0.006499
885.1756	0.006266
885.4149	0.007934
885.6542	0.005823
885.8936	0.008040
886.1329	0.004852
886.3722	0.007976
886.6116	0.005485
886.8509	0.006119
887.0903	0.005042
887.3296	0.006119
887.5690	0.006414
887.8084	0.006541
888.0478	0.005675
888.2872	0.004979
888.5266	0.005380
888.7660	0.006520
889.0054	0.005591
889.2448	0.004641
889.4843	0.005380
889.7237	0.005739
889.9632	0.004071
890.2026	0.003670
890.4421	0.004388
890.6816	0.004915
890.9211	0.005021
891.1606	0.004578
891.4001	0.005084
891.6396	0.005148
891.8791	0.005000
892.1186	0.006583
892.3581	0.006266
892.5977	0.004704
892.8372	0.004746
893.0768	0.005570
893.3163	0.004683
893.5559	0.004155
893.7955	0.005126
894.0351	0.004915
894.2747	0.005295
894.5143	0.006182
894.7539	0.005506
894.9935	0.005000
895.2331	0.004430
895.4727	0.005422
895.7124	0.004029
895.9520	0.005401
896.1917	0.005485
896.4314	0.005232
896.6710	0.004894
896.9107	0.005654
897.1504	0.006288
897.3901	0.004641
897.6298	0.005000
897.8695	0.005612
898.1092	0.005675
898.3489	0.004514
898.5887	0.004725
898.8284	0.006858
899.0682	0.005591
899.3079	0.005000
899.5477	0.004472
899.7875	0.005274
900.0272	0.003205
900.2670	0.004345
900.5068	0.004451
900.7466	0.005021
900.9864	0.003163
901.2263	0.003965
901.4661	0.006309
901.7059	0.004894
901.9458	0.003585
902.1856	0.005295
902.4255	0.004556
902.6654	0.004599
902.9052	0.004261
903.1451	0.003754
903.3850	0.003459
903.6249	0.004725
903.8648	0.004936
904.1047	0.003606
904.3446	0.004683
904.5846	0.005633
904.8245	0.005950
905.0644	0.005063
905.3044	0.003818
905.5444	0.004324
905.7843	0.006098
906.0243	0.005316
906.2643	0.004493
906.5043	0.005126
906.7443	0.004894
906.9843	0.004852
907.2243	0.005718
907.4643	0.004620
907.7043	0.005042
907.9444	0.005802
908.1844	0.003839
908.4245	0.003965
908.6645	0.004704
908.9046	0.004979
909.1447	0.004388
909.3847	0.001812
909.6248	0.003036
909.8649	0.002846
910.1050	0.002994
910.3452	0.003585
910.5853	0.002868
910.8254	0.005464
911.0655	0.003965
911.3057	0.004261
911.5458	0.004936
911.7860	0.004324
912.0262	0.004282
912.2663	0.005908
912.5065	0.003121
912.7467	0.003902
912.9869	0.004725
913.2271	0.003986
913.4673	0.004958
913.7075	0.004768
913.9478	0.002213
914.1880	0.003459
914.4283	0.003121
914.6685	0.002002
914.9088	0.003142
915.1490	0.003374
915.3893	0.004472
915.6296	0.002868
915.8699	0.003712
916.1102	0.004451
916.3505	0.003205
916.5908	0.003944
916.8311	0.003163
917.0714	0.003944
917.3118	0.003585
917.5521	0.006288
917.7925	0.004873
918.0328	0.004683
918.2732	0.002931
918.5136	0.003986
918.7539	0.003100
918.9943	0.004662
919.2347	0.002868
919.4751	0.005359
919.7155	0.003205
919.9560	0.004915
920.1964	0.004008
920.4368	0.004641
920.6773	0.004008
920.9177	0.003712
921.1582	0.004683
921.3986	0.003585
921.6391	0.003311
921.8796	0.003754
922.1201	0.004219
922.3606	0.004599
922.6011	0.002234
922.8416	0.003712
923.0821	0.004282
923.3226	0.003374
923.5631	0.002952
923.8037	0.002614
924.0442	0.002656
924.2848	0.003543
924.5254	0.003649
924.7659	0.003311
925.0065	0.003501
925.2471	0.002952
925.4877	0.002678
925.7283	0.002108
925.9689	0.001939
926.2095	0.004134
926.4501	0.002678
926.6908	0.001981
926.9314	0.002234
927.1720	0.002910
927.4127	0.002720
927.6533	0.003606
927.8940	0.003628
928.1347	0.004514
928.3754	0.002255
928.6161	0.003142
928.8568	0.003986
929.0975	0.001875
929.3382	0.002424
929.5789	0.000503
929.8196	0.001136
930.0604	0.002150
930.3011	0.001453
930.5419	0.001981
930.7826	0.001073
931.0234	0.002572
931.2642	0.004155
931.5049	0.002973
931.7457	0.002846
931.9865	0.003226
932.2273	0.003036
932.4681	0.002572
932.7089	-0.000067
932.9498	0.001348
933.1906	0.003459
933.4314	0.003902
933.6723	0.002086
933.9131	0.002086
934.1540	0.002002
934.3949	0.002065
934.6358	0.001918
934.8766	0.003311
935.1175	0.000376
935.3584	-0.000109
935.5993	0.001242
935.8403	0.004472
936.0812	0.002298
936.3221	0.000925
936.5630	0.001939
936.8040	0.000946
937.0449	0.000566
937.2859	0.002150
937.5269	0.001960
937.7678	0.001812
938.0088	0.002656
938.2498	0.001305
938.4908	0.002234
938.7318	0.000925
938.9728	0.002129
939.2138	0.001158
939.4549	0.002002
939.6959	0.002488
939.9369	0.002108
940.1780	0.002234
940.4190	0.001369
940.6601	0.002234
940.9012	0.002403
941.1422	0.001136
941.3833	0.001136
941.6244	0.000862
941.8655	0.001179
942.1066	0.000250
942.3477	0.001664
942.5889	0.000904
942.8300	0.002403
943.0711	0.001474
943.3123	0.004029
943.5534	0.000735
943.7946	0.001559
944.0357	0.000524
944.2769	0.002298
944.5181	0.001854
944.7593	0.000778
945.0005	0.000862
945.2417	0.001242
945.4829	0.001369
945.7241	0.001369
945.9653	0.001010
946.2066	0.002403
946.4478	0.001580
946.6891	0.001981
946.9303	0.000841
947.1716	0.000799
947.4128	0.000355
947.6541	0.002086
947.8954	0.001411
948.1367	0.001031
948.3780	0.002108
948.6193	0.002255
948.8606	0.000334
949.1019	0.001010
949.3433	0.001305
949.5846	0.000989
949.8259	0.000778
950.0673	0.000946
950.3086	0.000503
950.5500	0.001453
950.7914	0.000313
951.0327	-0.000785
951.2741	0.001369
951.5155	0.002720
951.7569	0.000714
951.9983	0.001453
952.2398	0.002065
952.4812	0.002466
952.7226	0.001432
952.9640	0.001770
953.2055	0.002298
953.4469	0.002783
953.6884	0.002488
953.9299	0.001305
954.1713	0.000862
954.4128	0.002361
954.6543	0.000925
954.8958	0.001622
955.1373	0.001411
955.3788	0.000756
955.6203	-0.000574
955.8618	0.001411
956.1034	0.001432
956.3449	0.000820
956.5865	0.000862
956.8280	0.000588
957.0696	0.001495
957.3111	0.001136
957.5527	0.000693
957.7943	0.000271
958.0359	0.000355
958.2775	0.001474
958.5191	0.000946
958.7607	0.000756
959.0023	-0.000067
959.2439	0.001728
959.4856	0.000081
959.7272	0.001411
959.9688	0.000904
960.2105	0.000524
960.4522	-0.000046
960.6938	0.001115
960.9355	0.001348
961.1772	0.000355
961.4189	-0.000299
961.6606	0.000566
961.9023	0.000355
962.1440	0.001052
962.3857	0.001158
962.6274	0.001179
962.8692	0.000482
963.1109	0.001031
963.3527	0.001348
963.5944	0.001200
963.8362	0.000883
964.0779	0.001791
964.3197	0.000588
964.5615	0.001601
964.8033	-0.000172
965.0451	0.002086
965.2869	-0.000194
965.5287	0.001031
965.7705	0.000102
966.0123	0.001939
966.2542	0.000334
966.4960	0.001918
966.7379	0.000524
966.9797	0.001812
967.2216	0.001200
967.4634	0.001875
967.7053	0.001369
967.9472	0.001390
968.1891	-0.000215
968.4310	0.000503
968.6729	0.000482
968.9148	0.000271
969.1567	0.000609
969.3987	0.000482
969.6406	0.000651
969.8825	0.001115
970.1245	0.001136
970.3664	0.000419
970.6084	0.001474
970.8504	0.000482
971.0923	0.000672
971.3343	0.002488
971.5763	0.002340
971.8183	0.001115
972.0603	0.000123
972.3023	0.001728
972.5443	0.001031
972.7864	0.000799
973.0284	0.002129
973.2704	0.001115
973.5125	0.000714
973.7545	0.000482
973.9966	0.001263
974.2387	0.000165
974.4807	0.000271
974.7228	0.000989
974.9649	0.000292
975.2070	0.000946
975.4491	0.000714
975.6912	0.001495
975.9333	-0.000215
976.1755	0.001516
976.4176	0.001538
976.6597	-0.000320
976.9019	0.000756
977.1440	0.001263
977.3862	0.001200
977.6283	0.000165
977.8705	-0.000468
978.1127	0.000735
978.3549	-0.000700
978.5971	0.000271
978.8393	0.000376
979.0815	-0.000088
979.3237	0.000081
979.5659	0.000229
979.8082	0.001305
980.0504	0.001052
980.2926	0.001622
980.5349	0.001812
980.7771	0.001854
981.0194	0.001749
981.2617	-0.001059
981.5040	0.000672
981.7462	0.000566
981.9885	0.001200
982.2308	0.000018
982.4731	0.000630
982.7155	0.000904
982.9578	0.000165
983.2001	0.000271
983.4424	-0.000236
983.6848	0.001094
983.9271	0.000883
984.1695	0.000440
984.4118	0.000693
984.6542	-0.000004
984.8966	0.000376
985.1390	0.000503
985.3814	0.000545
985.6238	0.000862
985.8662	0.002044
986.1086	-0.000552
986.3510	0.000799
986.5934	0.001284
986.8358	0.000482
987.0783	0.000144
987.3207	0.001052
987.5632	0.000545
987.8056	0.001580
988.0481	-0.000384
988.2906	0.001728
988.5331	-0.000172
988.7756	0.000503
989.0180	-0.000278
989.2605	-0.000595
989.5031	-0.001355
989.7456	0.000081
989.9881	0.001305
990.2306	0.001263
990.4732	0.000630
990.7157	0.000313
990.9582	0.000545
991.2008	0.000862
991.4434	-0.000679
991.6859	0.000799
991.9285	0.001115
992.1711	0.001474
992.4137	-0.001101
992.6563	0.001031
992.8989	0.000524
993.1415	0.000778
993.3841	0.000419
993.6267	0.001052
993.8694	-0.000257
994.1120	0.000144
994.3547	0.001580
994.5973	0.000862
994.8400	0.000039
995.0826	0.001200
995.3253	0.001495
995.5680	-0.000447
995.8107	0.000524
996.0534	0.000503
996.2961	0.001179
996.5388	0.000524
996.7815	0.000609
997.0242	0.000672
997.2670	0.000482
997.5097	-0.000742
997.7524	-0.000531
997.9952	0.000799
998.2379	-0.000510
998.4807	0.002065
998.7235	0.000503
998.9662	0.000208
999.2090	0.000778
999.4518	-0.000172
999.6946	0.001559
999.9374	-0.000215
1000.1802	0.000461
1000.4230	0.000334
1000.6659	0.001939
1000.9087	0.001094
1001.1515	-0.000025
1001.3944	0.000123
1001.6372	-0.000257
1001.8801	-0.000975
1002.1230	0.000968
1002.3658	0.000693
1002.6087	-0.000088
1002.8516	-0.000468
1003.0945	-0.000215
1003.3374	0.000355
1003.5803	0.000186
1003.8232	-0.001122
1004.0661	0.001728
1004.3091	0.000355
1004.5520	0.002150
1004.7949	0.000904
1005.0379	0.000419
1005.2808	0.000672
1005.5238	0.001981
1005.7667	0.000503
1006.0097	0.001073
1006.2527	0.000144
1006.4957	0.001453
1006.7387	0.000144
1006.9817	-0.000447
1007.2247	-0.000595
1007.4677	0.000376
1007.7107	0.001369
1007.9538	0.001031
1008.1968	0.000039
1008.4398	0.002530
1008.6829	0.000398
1008.9259	0.000208
1009.1690	-0.000468
1009.4121	0.002002
1009.6551	0.001728
1009.8982	0.001031
1010.1413	0.000271
1010.3844	0.000334
1010.6275	0.001242
1010.8706	0.000925
1011.1137	0.000102
1011.3568	0.000292
1011.6000	0.000545
1011.8431	0.000883
1012.0863	0.000186
1012.3294	0.001031
1012.5726	0.001200
1012.8157	0.002530
1013.0589	-0.000236
1013.3021	-0.000130
1013.5452	0.001263
1013.7884	0.001432
1014.0316	-0.000004
1014.2748	0.001073
1014.5180	-0.000215
1014.7613	0.002276
1015.0045	0.000292
1015.2477	0.000862
1015.4909	0.000609
1015.7342	0.000503
1015.9774	-0.000764
1016.2207	-0.000637
1016.4640	0.000841
1016.7072	-0.000384
1016.9505	0.001664
1017.1938	0.000123
1017.4371	0.000144
1017.6804	0.000144
1017.9237	0.000018
1018.1670	0.000524
1018.4103	0.001263
1018.6536	0.000799
1018.8969	-0.001861
1019.1403	0.001516
1019.3836	-0.000679
1019.6270	0.001305
1019.8703	-0.000088
1020.1137	0.000355
1020.3571	0.001453
1020.6004	0.000545
1020.8438	-0.000109
1021.0872	-0.000215
1021.3306	0.001390
1021.5740	0.000778
1021.8174	-0.000278
1022.0608	0.001010
1022.3042	-0.000278
1022.5477	0.000524
1022.7911	-0.000194
1023.0345	0.001622
