# Wavelength (nm)	Intensity (a.u.)
197.7802	0.001335
197.9842	0.000892
198.1882	0.000913
198.3922	-0.000058
198.5963	0.000681
198.8003	-0.000100
199.0044	-0.000818
199.2085	0.000934
199.4126	0.000533
199.6168	-0.000121
199.8209	-0.000185
200.0251	-0.000903
200.2292	0.000322
200.4334	-0.001114
200.6376	0.000069
200.8418	-0.001177
201.0461	0.000385
201.2503	0.000216
201.4546	-0.000290
201.6589	0.000892
201.8631	0.000829
202.0674	-0.000459
202.2718	-0.000945
202.4761	-0.000713
202.6805	0.000216
202.8848	0.000005
203.0892	0.000301
203.2936	-0.000206
203.4980	0.001990
203.7024	-0.000586
203.9069	0.000934
204.1113	0.000195
204.3158	0.000238
204.5203	0.000280
204.7248	0.000976
204.9293	-0.000396
205.1338	0.001631
205.3384	-0.000058
205.5430	0.000639
205.7475	-0.002887
205.9521	0.000364
206.1567	-0.000691
206.3614	0.001504
206.5660	0.000153
206.7706	0.000512
206.9753	-0.000396
207.1800	0.000111
207.3847	-0.001325
207.5894	-0.000755
207.7941	-0.000079
207.9989	-0.000164
208.2036	-0.000227
208.4084	0.001758
208.6132	0.000385
208.8180	0.000174
209.0228	-0.001008
209.2276	0.000153
209.4325	-0.000143
209.6373	0.000385
209.8422	0.000702
210.0471	0.000829
210.2520	-0.000375
210.4569	0.000280
210.6618	-0.001515
210.8668	-0.001557
211.0718	-0.000375
211.2767	-0.000396
211.4817	-0.001789
211.6867	-0.000269
211.8918	0.000238
212.0968	-0.000523
212.3018	-0.001093
212.5069	0.000301
212.7120	0.000385
212.9171	-0.000248
213.1222	-0.000713
213.3273	0.000808
213.5325	0.000406
213.7376	-0.000966
213.9428	0.000512
214.1480	0.000850
214.3532	-0.000354
214.5584	-0.000649
214.7636	-0.001620
214.9689	-0.000586
215.1741	0.000660
215.3794	-0.000227
215.5847	0.000259
215.7900	0.000048
215.9953	0.000955
216.2007	-0.000058
216.4060	0.000660
216.6114	-0.000037
216.8168	0.000174
217.0222	-0.000375
217.2276	0.000449
217.4330	-0.000206
217.6384	-0.000459
217.8439	0.001145
218.0494	-0.000438
218.2548	0.000491
218.4603	-0.001135
218.6659	-0.000459
218.8714	-0.000797
219.0769	-0.000079
219.2825	0.000301
219.4881	0.000871
219.6936	0.000744
219.8992	0.000195
220.1049	-0.000544
220.3105	0.000554
220.5161	-0.000100
220.7218	0.000406
220.9275	0.000343
221.1332	-0.000860
221.3389	-0.000164
221.5446	0.000681
221.7503	0.000808
221.9561	0.000913
222.1618	-0.001304
222.3676	0.000174
222.5734	0.000470
222.7792	0.000913
222.9850	-0.000164
223.1909	0.001504
223.3967	-0.000354
223.6026	0.000934
223.8085	0.001314
224.0144	0.001145
224.2203	-0.000164
224.4262	0.000428
224.6322	-0.000670
224.8381	-0.000438
225.0441	0.000238
225.2501	0.000808
225.4561	-0.000058
225.6621	0.000976
225.8681	0.000702
226.0742	-0.000903
226.2802	0.000005
226.4863	0.000681
226.6924	-0.000523
226.8985	0.000153
227.1046	-0.000164
227.3107	0.000449
227.5169	0.001568
227.7230	0.000596
227.9292	-0.000016
228.1354	0.001230
228.3416	-0.001261
228.5478	-0.000480
228.7541	-0.000037
228.9603	-0.000375
229.1666	0.000808
229.3729	-0.000565
229.5791	-0.001916
229.7855	0.001525
229.9918	-0.001177
230.1981	-0.000290
230.4045	0.001736
230.6108	-0.000438
230.8172	0.000470
231.0236	0.000765
231.2300	0.001314
231.4364	0.000449
231.6429	-0.000354
231.8493	0.000786
232.0558	-0.000185
232.2623	0.001061
232.4688	0.000639
232.6753	0.000850
232.8818	0.000618
233.0884	0.001251
233.2949	0.000913
233.5015	0.000174
233.7081	-0.000333
233.9147	0.001652
234.1213	-0.001093
234.3279	-0.001050
234.5346	-0.000311
234.7413	0.000216
234.9479	0.000280
235.1546	0.000491
235.3613	-0.002866
235.5680	0.000618
235.7748	0.000554
235.9815	0.000153
236.1883	-0.000016
236.3951	-0.000586
236.6018	-0.001219
236.8087	0.000005
237.0155	-0.000501
237.2223	-0.000628
237.4292	-0.000903
237.6360	0.000153
237.8429	-0.000797
238.0498	0.000976
238.2567	-0.000269
238.4636	-0.000079
238.6706	0.000280
238.8775	-0.000206
239.0845	0.000913
239.2915	-0.000037
239.4985	0.000385
239.7055	0.000808
239.9125	-0.000501
240.1195	0.000343
240.3266	0.001019
240.5337	0.000491
240.7407	0.000470
240.9478	-0.000121
241.1549	-0.001283
241.3621	0.000364
241.5692	0.000259
241.7764	0.000195
241.9835	-0.000628
242.1907	0.000681
242.3979	0.000026
242.6051	0.000575
242.8124	-0.000607
243.0196	0.000808
243.2269	0.000976
243.4341	0.001293
243.6414	0.000005
243.8487	-0.000333
244.0560	-0.000079
244.2634	-0.000100
244.4707	-0.000459
244.6781	0.000111
244.8854	0.000301
245.0928	0.001145
245.3002	-0.000544
245.5076	0.000681
245.7151	-0.000713
245.9225	-0.000417
246.1300	-0.000290
246.3375	0.000259
246.5449	-0.000924
246.7524	-0.000480
246.9600	-0.001388
247.1675	-0.000818
247.3750	-0.000818
247.5826	0.001166
247.7902	0.000195
247.9978	0.001145
248.2054	0.000301
248.4130	0.000681
248.6206	-0.000565
248.8283	0.000554
249.0359	-0.000713
249.2436	0.000026
249.4513	-0.000544
249.6590	0.000428
249.8667	-0.000649
250.0745	-0.000734
250.2822	0.000449
250.4900	0.001715
250.6978	0.001335
250.9056	0.000618
251.1134	0.000005
251.3212	-0.000037
251.5290	0.000681
251.7369	0.000216
251.9447	-0.000586
252.1526	0.000259
252.3605	0.000955
252.5684	0.000976
252.7763	0.001568
252.9843	0.000322
253.1922	-0.000417
253.4002	0.002602
253.6082	-0.000227
253.8162	0.001948
254.0242	0.000153
254.2322	0.000216
254.4402	0.000111
254.6483	-0.000100
254.8564	0.000639
255.0644	0.000998
255.2725	0.000048
255.4806	0.001525
255.6888	0.000048
255.8969	0.002222
256.1051	0.000554
256.3132	0.000259
256.5214	-0.000480
256.7296	0.000343
256.9378	0.001610
257.1460	0.000428
257.3543	-0.000396
257.5625	0.001124
257.7708	0.000090
257.9791	0.001040
258.1874	-0.000649
258.3957	-0.000607
258.6040	-0.000417
258.8124	0.001462
259.0207	-0.000924
259.2291	0.000765
259.4375	0.001821
259.6459	0.000195
259.8543	0.000343
260.0627	-0.000016
260.2711	-0.000375
260.4796	0.001019
260.6881	-0.000269
260.8965	0.001209
261.1050	-0.000333
261.3135	-0.000037
261.5221	0.000596
261.7306	0.000596
261.9392	-0.000586
262.1477	0.001314
262.3563	0.000216
262.5649	-0.000396
262.7735	-0.000501
262.9822	0.001504
263.1908	0.000850
263.3995	-0.000818
263.6081	-0.000354
263.8168	0.000934
264.0255	0.000744
264.2342	0.000744
264.4429	0.000069
264.6517	0.000132
264.8604	0.000850
265.0692	-0.000100
265.2780	-0.000143
265.4868	-0.000438
265.6956	-0.000227
265.9044	0.001504
266.1133	0.002116
266.3221	0.000702
266.5310	-0.000544
266.7399	0.000765
266.9488	0.000533
267.1577	0.001251
267.3666	-0.001283
267.5755	-0.000544
267.7845	0.000132
267.9935	0.000639
268.2024	0.000195
268.4114	0.001061
268.6205	-0.000987
268.8295	0.002053
269.0385	-0.000164
269.2476	0.000491
269.4566	0.000512
269.6657	0.001441
269.8748	-0.000058
270.0839	0.001441
270.2931	-0.001473
270.5022	0.000195
270.7114	-0.000333
270.9205	0.001103
271.1297	-0.000628
271.3389	0.000850
271.5481	-0.000290
271.7573	-0.000544
271.9666	-0.000670
272.1758	0.000618
272.3851	-0.000269
272.5944	0.000153
272.8037	0.000406
273.0130	-0.000121
273.2223	0.000153
273.4316	-0.000607
273.6410	0.000174
273.8504	0.000322
274.0597	-0.000860
274.2691	-0.000797
274.4785	-0.000501
274.6880	-0.000501
274.8974	0.000681
275.1069	0.000301
275.3163	-0.000248
275.5258	0.000765
275.7353	0.000238
275.9448	0.001145
276.1543	0.000132
276.3639	-0.000459
276.5734	0.001652
276.7830	-0.000501
276.9926	-0.001008
277.2022	-0.000480
277.4118	-0.000396
277.6214	0.001145
277.8310	-0.000164
278.0407	0.001483
278.2503	-0.000164
278.4600	0.000934
278.6697	0.000090
278.8794	0.000491
279.0891	-0.001494
279.2989	0.001821
279.5086	0.000575
279.7184	0.001040
279.9281	-0.000354
280.1379	0.000238
280.3477	-0.002233
280.5576	0.000280
280.7674	0.000512
280.9772	-0.000143
281.1871	0.000301
281.3970	-0.000860
281.6069	-0.001050
281.8168	-0.000206
282.0267	-0.000206
282.2366	0.001504
282.4466	0.000111
282.6565	0.001166
282.8665	-0.000248
283.0765	0.001103
283.2865	-0.001198
283.4965	-0.000290
283.7065	0.001061
283.9166	0.000660
284.1266	-0.000121
284.3367	0.000744
284.5468	-0.000649
284.7569	0.000955
284.9670	-0.000607
285.1771	0.001441
285.3873	0.000744
285.5974	0.000301
285.8076	-0.000079
286.0178	0.000575
286.2280	0.001082
286.4382	0.001145
286.6484	-0.000438
286.8587	0.001546
287.0689	-0.000586
287.2792	0.000090
287.4895	-0.000924
287.6998	-0.000755
287.9101	0.000174
288.1204	0.000955
288.3308	-0.000290
288.5411	0.000132
288.7515	0.000238
288.9619	-0.000565
289.1723	0.000132
289.3827	0.000280
289.5931	-0.000480
289.8035	0.000470
290.0140	-0.000037
290.2245	0.001082
290.4349	0.000575
290.6454	0.000829
290.8559	0.000512
291.0665	0.001779
291.2770	0.000005
291.4875	0.000216
291.6981	0.000069
291.9087	-0.000100
292.1193	0.001251
292.3299	0.001652
292.5405	-0.000311
292.7511	0.000892
292.9618	-0.001093
293.1724	0.000048
293.3831	-0.000058
293.5938	0.001736
293.8045	-0.000016
294.0152	0.000512
294.2260	0.000554
294.4367	-0.000860
294.6475	0.000322
294.8582	0.000005
295.0690	-0.000269
295.2798	-0.000037
295.4906	0.000575
295.7015	0.001314
295.9123	0.000364
296.1232	-0.000649
296.3340	-0.000839
296.5449	0.002201
296.7558	0.000048
296.9667	0.000470
297.1777	-0.000079
297.3886	0.000174
297.5995	0.000132
297.8105	-0.000691
298.0215	-0.000544
298.2325	-0.000037
298.4435	0.000048
298.6545	0.000111
298.8656	0.000216
299.0766	0.000765
299.2877	0.000385
299.4988	-0.000607
299.7099	0.001800
299.9210	-0.000185
300.1321	0.000998
300.3432	0.000765
300.5544	0.000470
300.7655	0.001441
300.9767	-0.000565
301.1879	-0.000248
301.3991	0.000090
301.6103	-0.000417
301.8215	0.000702
302.0328	-0.001346
302.2441	-0.000523
302.4553	-0.000903
302.6666	0.000385
302.8779	0.000216
303.0892	-0.000586
303.3006	0.000723
303.5119	-0.000523
303.7233	-0.000079
303.9346	-0.000375
304.1460	0.000048
304.3574	-0.001008
304.5688	0.000512
304.7803	-0.000903
304.9917	0.001103
305.2031	-0.001240
305.4146	0.001209
305.6261	0.001441
305.8376	-0.000185
306.0491	0.000470
306.2606	-0.000121
306.4722	0.000174
306.6837	0.000533
306.8953	0.000216
307.1069	0.001420
307.3184	-0.000248
307.5301	0.002391
307.7417	-0.000734
307.9533	-0.001114
308.1650	0.000512
308.3766	0.000069
308.5883	0.000428
308.8000	0.001293
309.0117	-0.001050
309.2234	0.000132
309.4351	-0.000227
309.6469	0.001483
309.8586	-0.000375
310.0704	-0.000544
310.2822	0.001546
310.4940	0.000744
310.7058	-0.000164
310.9176	0.000195
311.1295	0.000364
311.3413	0.001188
311.5532	0.000301
311.7651	0.000174
311.9770	-0.000311
312.1889	0.000575
312.4008	-0.000607
312.6127	-0.000480
312.8247	-0.000037
313.0366	-0.000016
313.2486	0.000660
313.4606	0.002032
313.6726	-0.000755
313.8846	0.001694
314.0967	0.000618
314.3087	0.000428
314.5208	0.000069
314.7328	0.000723
314.9449	0.000512
315.1570	0.001272
315.3692	-0.000058
315.5813	-0.000121
315.7934	-0.000459
316.0056	0.000618
316.2177	0.000998
316.4299	0.001103
316.6421	0.000280
316.8543	-0.000311
317.0666	-0.000100
317.2788	0.000132
317.4911	-0.001240
317.7033	0.000132
317.9156	0.000744
318.1279	0.001673
318.3402	0.000596
318.5525	0.001251
318.7649	0.000618
318.9772	0.000026
319.1896	-0.000311
319.4019	0.000955
319.6143	0.000069
319.8267	0.001145
320.0392	0.002328
320.2516	-0.001071
320.4640	0.000216
320.6765	0.001061
320.8890	-0.001388
321.1014	-0.000185
321.3139	-0.000691
321.5265	0.000639
321.7390	-0.002359
321.9515	0.000808
322.1641	-0.001430
322.3766	-0.000121
322.5892	-0.000079
322.8018	0.000280
323.0144	-0.000248
323.2270	0.000322
323.4397	-0.000987
323.6523	0.000428
323.8650	0.000238
324.0777	-0.000417
324.2904	0.001188
324.5031	-0.000628
324.7158	-0.000037
324.9285	0.001145
325.1412	-0.000269
325.3540	0.000955
325.5668	-0.000628
325.7796	0.001145
325.9924	0.002539
326.2052	0.001293
326.4180	0.000322
326.6308	-0.000713
326.8437	0.000639
327.0566	-0.000713
327.2694	0.000385
327.4823	-0.000438
327.6952	0.001145
327.9082	0.001652
328.1211	0.002222
328.3340	0.001863
328.5470	0.001483
328.7600	0.001821
328.9730	-0.000797
329.1860	0.001568
329.3990	0.000829
329.6120	-0.000438
329.8251	-0.001093
330.0381	-0.000079
330.2512	-0.000945
330.4643	0.000639
330.6774	-0.000565
330.8905	-0.000459
331.1036	0.000216
331.3167	0.001145
331.5299	0.000491
331.7431	0.000153
331.9562	0.001462
332.1694	0.002095
332.3826	0.000153
332.5959	-0.000565
332.8091	-0.000523
333.0223	0.000850
333.2356	0.000132
333.4489	0.001293
333.6622	0.000364
333.8755	-0.000248
334.0888	0.000913
334.3021	0.000639
334.5154	-0.000903
334.7288	-0.000079
334.9422	0.000491
335.1555	0.001652
335.3689	0.001082
335.5823	0.000913
335.7958	0.000639
336.0092	-0.000333
336.2227	-0.000016
336.4361	0.000406
336.6496	0.001631
336.8631	0.000280
337.0766	-0.001304
337.2901	0.000385
337.5036	0.000026
337.7172	0.000132
337.9307	0.000554
338.1443	0.001504
338.3579	0.000639
338.5715	0.000301
338.7851	-0.000417
338.9987	0.000913
339.2124	0.000153
339.4260	-0.000185
339.6397	0.001103
339.8533	0.001293
340.0670	-0.000755
340.2807	-0.001008
340.4945	0.001378
340.7082	0.000871
340.9219	0.000491
341.1357	-0.000903
341.3495	-0.000375
341.5633	0.000216
341.7771	0.000892
341.9909	0.000343
342.2047	0.001188
342.4185	-0.002591
342.6324	-0.000185
342.8463	-0.000058
343.0601	-0.001283
343.2740	-0.000501
343.4879	-0.000100
343.7019	-0.000480
343.9158	-0.000459
344.1297	0.000660
344.3437	0.000153
344.5577	0.000385
344.7717	-0.000206
344.9857	0.000913
345.1997	0.001990
345.4137	-0.000333
345.6277	0.000892
345.8418	-0.000375
346.0559	-0.000311
346.2699	0.000575
346.4840	0.000829
346.6981	0.000533
346.9123	0.000090
347.1264	0.000702
347.3406	-0.000523
347.5547	-0.000100
347.7689	-0.000375
347.9831	-0.000628
348.1973	0.000660
348.4115	0.000449
348.6257	-0.000037
348.8400	-0.000333
349.0542	0.001019
349.2685	-0.000100
349.4828	-0.000628
349.6971	0.000618
349.9114	0.000575
350.1257	0.000153
350.3400	-0.000966
350.5544	0.001082
350.7687	-0.000227
350.9831	-0.000037
351.1975	0.000090
351.4119	0.000554
351.6263	0.001399
351.8407	0.000533
352.0552	-0.000164
352.2696	-0.000185
352.4841	0.001905
352.6986	0.001631
352.9131	-0.000248
353.1276	0.000618
353.3421	-0.000945
353.5566	-0.000227
353.7712	-0.000628
353.9858	0.000934
354.2003	0.000871
354.4149	0.002708
354.6295	0.000195
354.8441	0.001293
355.0588	-0.000185
355.2734	0.000892
355.4881	-0.001135
355.7027	-0.000206
355.9174	-0.000311
356.1321	0.000238
356.3468	0.000280
356.5615	0.000681
356.7763	-0.002148
356.9910	-0.000311
357.2058	-0.000290
357.4206	-0.000100
357.6353	0.000005
357.8501	-0.000058
358.0650	0.000829
358.2798	0.001631
358.4946	0.000090
358.7095	0.000132
358.9243	0.000153
359.1392	0.000681
359.3541	-0.000121
359.5690	0.000364
359.7839	0.000132
359.9989	-0.000375
360.2138	-0.000607
360.4288	0.003193
360.6438	0.000744
360.8587	0.000660
361.0737	-0.000565
361.2888	0.001525
361.5038	-0.001219
361.7188	0.000406
361.9339	-0.000755
362.1489	-0.000839
362.3640	-0.000290
362.5791	-0.000544
362.7942	-0.000691
363.0093	0.000976
363.2245	0.001293
363.4396	0.002201
363.6548	-0.000396
363.8699	0.000343
364.0851	-0.000121
364.3003	0.000195
364.5155	0.001420
364.7308	0.000639
364.9460	0.000005
365.1612	-0.000227
365.3765	0.000976
365.5918	0.000111
365.8071	0.001335
366.0224	0.001272
366.2377	-0.000776
366.4530	0.000153
366.6684	-0.000016
366.8837	-0.000227
367.0991	0.001166
367.3145	0.000449
367.5299	0.001335
367.7453	0.000005
367.9607	0.000575
368.1761	0.000069
368.3916	0.000132
368.6070	0.001779
368.8225	0.001251
369.0380	0.000111
369.2535	0.001272
369.4690	0.001568
369.6845	-0.000734
369.9001	0.000976
370.1156	-0.000628
370.3312	0.001166
370.5468	-0.000248
370.7624	-0.000290
370.9780	0.000681
371.1936	-0.001093
371.4092	0.000639
371.6249	0.000470
371.8405	0.000195
372.0562	-0.000206
372.2719	0.000322
372.4876	0.000765
372.7033	0.000723
372.9190	0.001483
373.1348	0.000005
373.3505	0.000322
373.5663	0.000765
373.7820	-0.001029
373.9978	0.000491
374.2136	0.001019
374.4294	0.000871
374.6453	0.000195
374.8611	0.000385
375.0770	0.000660
375.2928	-0.000523
375.5087	0.000808
375.7246	-0.000544
375.9405	0.000090
376.1564	-0.001177
376.3724	0.000681
376.5883	0.000871
376.8043	0.000406
377.0203	-0.000100
377.2362	0.000491
377.4522	0.000829
377.6682	-0.000058
377.8843	0.000069
378.1003	0.000660
378.3164	-0.001388
378.5324	0.000322
378.7485	0.000364
378.9646	0.000069
379.1807	-0.000290
379.3968	0.000702
379.6129	0.000364
379.8291	0.001483
380.0452	-0.000628
380.2614	-0.000290
380.4776	-0.000058
380.6938	0.000364
380.9100	0.001736
381.1262	0.001969
381.3424	0.000786
381.5587	0.000216
381.7749	-0.000480
381.9912	0.000301
382.2075	-0.000586
382.4238	0.001610
382.6401	-0.001388
382.8564	-0.000734
383.0728	0.000913
383.2891	0.000470
383.5055	-0.000501
383.7219	-0.000100
383.9382	-0.000501
384.1546	0.000238
384.3711	-0.000016
384.5875	0.000470
384.8039	-0.000079
385.0204	0.000892
385.2368	0.000090
385.4533	0.000132
385.6698	-0.000565
385.8863	-0.000058
386.1028	0.001504
386.3194	0.001504
386.5359	-0.000628
386.7525	0.001990
386.9690	0.001040
387.1856	0.001821
387.4022	0.001821
387.6188	0.001652
387.8355	0.001061
388.0521	0.001166
388.2687	0.002982
388.4854	0.001842
388.7021	0.002201
388.9188	0.003024
389.1355	0.001568
389.3522	0.002116
389.5689	0.001800
389.7856	0.002855
390.0024	0.002982
390.2192	0.003003
390.4359	0.003341
390.6527	0.003045
390.8695	0.004945
391.0863	0.004798
391.3032	0.003615
391.5200	0.005368
391.7369	0.005769
391.9537	0.005748
392.1706	0.006318
392.3875	0.006465
392.6044	0.006487
392.8213	0.005283
393.0383	0.006909
393.2552	0.008830
393.4722	0.006423
393.6891	0.007732
393.9061	0.009463
394.1231	0.009928
394.3401	0.008323
394.5572	0.010392
394.7742	0.010962
394.9912	0.010793
395.2083	0.011004
395.4254	0.010266
395.6425	0.009738
395.8596	0.010920
396.0767	0.013728
396.2938	0.010540
396.5109	0.013643
396.7281	0.012250
396.9453	0.015269
397.1624	0.013855
397.3796	0.013453
397.5968	0.014636
397.8140	0.014340
398.0313	0.014087
398.2485	0.015037
398.4658	0.017359
398.6830	0.019111
398.9003	0.016916
399.1176	0.016726
399.3349	0.017887
399.5522	0.017486
399.7696	0.018140
399.9869	0.020082
400.2043	0.017253
400.4216	0.018161
400.6390	0.017359
400.8564	0.018752
401.0738	0.019956
401.2912	0.018900
401.5087	0.020040
401.7261	0.018520
401.9436	0.020589
402.1610	0.020230
402.3785	0.021961
402.5960	0.020272
402.8135	0.020631
403.0310	0.021961
403.2486	0.021328
403.4661	0.020019
403.6837	0.021075
403.9013	0.021624
404.1189	0.021201
404.3365	0.021919
404.5541	0.024199
404.7717	0.024621
404.9893	0.024495
405.2070	0.024073
405.4246	0.026437
405.6423	0.024136
405.8600	0.025318
406.0777	0.026564
406.2954	0.025973
406.5131	0.024389
406.7309	0.024959
406.9486	0.023355
407.1664	0.025128
407.3842	0.022848
407.6020	0.024516
407.8198	0.025044
408.0376	0.024854
408.2554	0.026479
408.4733	0.026416
408.6911	0.025487
408.9090	0.026500
409.1269	0.026479
409.3448	0.025951
409.5627	0.025424
409.7806	0.024959
409.9985	0.027535
410.2165	0.026733
410.4344	0.025656
410.6524	0.025888
410.8704	0.026141
411.0884	0.025213
411.3064	0.028084
411.5244	0.026521
411.7424	0.027957
411.9605	0.027852
412.1785	0.027429
412.3966	0.028464
412.6147	0.028527
412.8328	0.029287
413.0509	0.028569
413.2690	0.027683
413.4871	0.028443
413.7053	0.030068
413.9234	0.030195
414.1416	0.027683
414.3598	0.028548
414.5780	0.029730
414.7962	0.028358
415.0144	0.028358
415.2326	0.028189
415.4509	0.030026
415.6692	0.027260
415.8874	0.028802
416.1057	0.028886
416.3240	0.030490
416.5423	0.030427
416.7606	0.029667
416.9790	0.029139
417.1973	0.029519
417.4157	0.030406
417.6341	0.028358
417.8524	0.028358
418.0708	0.030892
418.2893	0.028590
418.5077	0.029899
418.7261	0.028590
418.9446	0.028633
419.1630	0.030469
419.3815	0.030617
419.6000	0.031145
419.8185	0.031631
420.0370	0.031377
420.2555	0.031652
420.4741	0.032137
420.6926	0.034628
420.9112	0.033003
421.1298	0.034354
421.3483	0.035684
421.5669	0.035283
421.7856	0.036254
422.0042	0.036908
422.2228	0.036845
422.4415	0.035325
422.6601	0.036887
422.8788	0.033657
423.0975	0.033298
423.3162	0.033594
423.5349	0.035726
423.7536	0.034713
423.9724	0.033615
424.1911	0.030575
424.4099	0.031567
424.6287	0.033129
424.8475	0.034481
425.0663	0.033383
425.2851	0.033467
425.5039	0.031694
425.7228	0.030870
425.9416	0.031335
426.1605	0.030490
426.3793	0.030976
426.5982	0.028865
426.8171	0.029287
427.0361	0.029815
427.2550	0.031673
427.4739	0.031103
427.6929	0.033446
427.9118	0.032116
428.1308	0.031588
428.3498	0.030554
428.5688	0.032222
428.7878	0.032644
429.0068	0.031799
429.2259	0.031483
429.4449	0.033172
429.6640	0.032348
429.8831	0.034523
430.1022	0.036718
430.3213	0.037415
430.5404	0.035895
430.7595	0.035536
430.9787	0.034417
431.1978	0.034882
431.4170	0.032771
431.6362	0.030533
431.8553	0.031799
432.0745	0.028316
432.2938	0.028422
432.5130	0.029477
432.7322	0.028548
432.9515	0.028020
433.1707	0.027535
433.3900	0.029013
433.6093	0.034882
433.8286	0.034291
434.0479	0.035557
434.2673	0.033214
434.4866	0.033509
434.7059	0.031483
434.9253	0.031018
435.1447	0.029372
435.3641	0.030596
435.5835	0.031187
435.8029	0.030195
436.0223	0.028633
436.2418	0.031039
436.4612	0.030913
436.6807	0.033024
436.9001	0.030680
437.1196	0.033362
437.3391	0.029836
437.5586	0.030322
437.7782	0.028844
437.9977	0.029076
438.2173	0.030406
438.4368	0.028949
438.6564	0.030786
438.8760	0.029857
439.0956	0.031293
439.3152	0.029097
439.5348	0.030364
439.7545	0.029308
439.9741	0.027556
440.1938	0.029836
440.4135	0.027999
440.6331	0.029203
440.8528	0.031039
441.0725	0.031229
441.2923	0.033763
441.5120	0.035578
441.7318	0.035304
441.9515	0.036782
442.1713	0.035536
442.3911	0.035114
442.6109	0.033446
442.8307	0.031166
443.0505	0.031060
443.2703	0.033467
443.4902	0.032475
443.7101	0.034607
443.9299	0.033932
444.1498	0.033594
444.3697	0.032053
444.5896	0.033889
444.8095	0.033509
445.0295	0.031842
445.2494	0.029688
445.4694	0.029625
445.6894	0.031103
445.9093	0.031039
446.1293	0.030617
446.3493	0.032011
446.5694	0.031419
446.7894	0.030237
447.0094	0.031272
447.2295	0.030892
447.4496	0.029540
447.6696	0.030934
447.8897	0.029076
448.1098	0.028802
448.3300	0.027324
448.5501	0.028654
448.7702	0.027514
448.9904	0.027450
449.2106	0.028295
449.4307	0.028422
449.6509	0.028126
449.8711	0.029519
450.0914	0.027577
450.3116	0.027324
450.5318	0.027915
450.7521	0.026733
450.9724	0.026374
451.1926	0.025487
451.4129	0.023714
451.6332	0.026564
451.8535	0.025804
452.0739	0.025297
452.2942	0.023059
452.5146	0.025593
452.7349	0.024263
452.9553	0.023249
453.1757	0.024811
453.3961	0.022172
453.6165	0.022320
453.8369	0.020864
454.0574	0.020906
454.2778	0.021708
454.4983	0.021666
454.7188	0.022341
454.9393	0.020251
455.1597	0.021075
455.3803	0.024199
455.6008	0.021011
455.8213	0.023650
456.0419	0.022362
456.2624	0.020821
456.4830	0.021518
456.7036	0.019386
456.9242	0.020209
457.1448	0.021138
457.3654	0.022088
457.5860	0.021032
457.8067	0.021032
458.0274	0.022679
458.2480	0.020484
458.4687	0.022426
458.6894	0.021940
458.9101	0.020378
459.1308	0.020420
459.3516	0.022447
459.5723	0.020821
459.7931	0.018710
460.0138	0.020420
460.2346	0.020209
460.4554	0.019597
460.6762	0.019724
460.8970	0.019365
461.1178	0.017148
461.3387	0.018710
461.5595	0.018752
461.7804	0.019745
462.0013	0.018985
462.2222	0.018077
462.4431	0.017697
462.6640	0.015839
462.8849	0.016008
463.1059	0.017063
463.3268	0.017085
463.5478	0.016135
463.7687	0.016852
463.9897	0.016768
464.2107	0.017760
464.4317	0.017401
464.6528	0.018140
464.8738	0.017549
465.0948	0.016810
465.3159	0.019322
465.5370	0.017486
465.7581	0.018816
465.9792	0.018795
466.2003	0.017570
466.4214	0.016240
466.6425	0.016388
466.8637	0.015459
467.0848	0.014213
467.3060	0.013855
467.5272	0.015185
467.7484	0.013200
467.9696	0.013812
468.1908	0.014488
468.4120	0.012841
468.6333	0.013073
468.8545	0.011743
469.0758	0.012926
469.2970	0.011976
469.5183	0.012377
469.7396	0.010223
469.9610	0.011680
470.1823	0.009949
470.4036	0.010413
470.6250	0.010413
470.8463	0.012187
471.0677	0.008999
471.2891	0.009738
471.5105	0.011363
471.7319	0.010329
471.9533	0.010540
472.1748	0.008978
472.3962	0.010118
472.6177	0.010139
472.8391	0.007838
473.0606	0.011406
473.2821	0.008809
473.5036	0.011638
473.7251	0.008408
473.9467	0.010793
474.1682	0.010160
474.3898	0.011448
474.6113	0.009020
474.8329	0.009252
475.0545	0.008640
475.2761	0.010434
475.4977	0.010181
475.7193	0.009442
475.9410	0.008408
476.1626	0.009484
476.3843	0.008999
476.6060	0.008767
476.8277	0.007795
477.0494	0.009484
477.2711	0.009548
477.4928	0.008387
477.7145	0.008640
477.9363	0.008070
478.1580	0.008577
478.3798	0.005157
478.6016	0.008598
478.8234	0.008724
479.0452	0.007605
479.2670	0.008957
479.4888	0.008619
479.7107	0.008534
479.9325	0.007563
480.1544	0.006043
480.3763	0.009337
480.5982	0.006909
480.8201	0.006909
481.0420	0.006719
481.2639	0.007627
481.4859	0.008070
481.7078	0.006550
481.9298	0.007584
482.1517	0.006634
482.3737	0.008703
482.5957	0.006571
482.8177	0.006972
483.0398	0.006993
483.2618	0.006592
483.4838	0.006339
483.7059	0.006465
483.9280	0.006487
484.1501	0.006698
484.3721	0.007817
484.5943	0.007859
484.8164	0.006318
485.0385	0.006381
485.2606	0.007162
485.4828	0.009400
485.7050	0.013010
485.9271	0.020315
486.1493	0.021159
486.3715	0.015142
486.5937	0.014783
486.8160	0.011891
487.0382	0.012419
487.2605	0.010646
487.4827	0.008049
487.7050	0.007648
487.9273	0.006677
488.1496	0.005663
488.3719	0.005431
488.5942	0.005515
488.8165	0.006107
489.0389	0.005558
489.2612	0.004777
489.4836	0.005515
489.7060	0.004945
489.9284	0.005832
490.1508	0.003848
490.3732	0.005600
490.5956	0.003425
490.8180	0.003468
491.0405	0.005051
491.2630	0.005241
491.4854	0.004903
491.7079	0.005621
491.9304	0.005727
492.1529	0.005072
492.3755	0.004882
492.5980	0.006001
492.8205	0.004059
493.0431	0.004755
493.2657	0.003214
493.4882	0.003066
493.7108	0.004354
493.9334	0.004650
494.1561	0.004016
494.3787	0.003278
494.6013	0.003531
494.8240	0.004565
495.0466	0.003256
495.2693	0.003615
495.4920	0.003425
495.7147	0.003003
495.9374	0.004608
496.1601	0.003024
496.3829	0.003341
496.6056	0.004291
496.8284	0.004544
497.0511	0.003636
497.2739	0.003510
497.4967	0.003024
497.7195	0.002644
497.9423	0.003974
498.1652	0.001969
498.3880	0.003805
498.6109	0.003911
498.8337	0.003024
499.0566	0.004312
499.2795	0.003784
499.5024	0.003172
499.7253	0.005304
499.9482	0.003425
500.1712	0.004185
500.3941	0.003088
500.6171	0.003193
500.8400	0.003341
501.0630	0.004270
501.2860	0.002201
501.5090	0.003383
501.7320	0.003256
501.9551	0.003510
502.1781	0.003510
502.4012	0.002475
502.6242	0.003700
502.8473	0.003658
503.0704	0.001990
503.2935	0.004629
503.5166	0.002855
503.7397	0.003679
503.9628	0.002961
504.1860	0.003299
504.4092	0.003552
504.6323	0.004481
504.8555	0.002623
505.0787	0.002771
505.3019	0.003235
505.5251	0.003425
505.7483	0.002665
505.9716	0.003425
506.1948	0.001905
506.4181	0.004016
506.6414	0.002243
506.8647	0.003341
507.0880	0.003911
507.3113	0.003425
507.5346	0.002349
507.7579	0.002834
507.9813	0.004038
508.2046	0.003742
508.4280	0.003636
508.6514	0.003784
508.8748	0.002412
509.0982	0.003172
509.3216	0.002750
509.5450	0.002834
509.7685	0.003911
509.9919	0.003805
510.2154	0.002708
510.4388	0.003953
510.6623	0.002243
510.8858	0.003066
511.1093	0.002982
511.3329	0.003974
511.5564	0.002982
511.7799	0.002644
512.0035	0.002686
512.2270	0.002306
512.4506	0.001715
512.6742	0.003531
512.8978	0.001905
513.1214	0.001188
513.3451	0.003700
513.5687	0.003193
513.7923	0.002496
514.0160	0.003130
514.2397	0.001441
514.4634	0.004038
514.6871	0.001842
514.9108	0.003278
515.1345	0.003003
515.3582	0.001884
515.5819	0.001948
515.8057	0.003446
516.0295	0.004418
516.2532	0.002518
516.4770	0.002496
516.7008	0.003636
516.9246	0.003172
517.1485	0.001884
517.3723	0.002201
517.5961	0.004270
517.8200	0.003088
518.0439	0.004185
518.2677	0.003003
518.4916	0.003636
518.7155	0.003130
518.9395	0.003784
519.1634	0.002391
519.3873	0.004544
519.6113	0.003615
519.8352	0.003214
520.0592	0.003911
520.2832	0.004291
520.5072	0.004164
520.7312	0.003299
520.9552	0.003003
521.1792	0.002349
521.4033	0.002412
521.6273	0.002328
521.8514	0.004059
522.0755	0.002581
522.2996	0.003066
522.5237	0.001694
522.7478	0.003278
522.9719	0.002264
523.1960	0.003362
523.4202	0.004354
523.6443	0.002370
523.8685	0.002834
524.0927	0.005157
524.3169	0.002391
524.5411	0.003615
524.7653	0.003341
524.9895	0.004861
525.2138	0.004523
525.4380	0.004312
525.6623	0.004692
525.8865	0.005600
526.1108	0.003088
526.3351	0.004439
526.5594	0.002855
526.7837	0.003826
527.0081	0.003658
527.2324	0.004249
527.4568	0.004755
527.6811	0.003594
527.9055	0.003446
528.1299	0.004777
528.3543	0.004439
528.5787	0.005304
528.8031	0.003784
529.0276	0.005368
529.2520	0.005600
529.4765	0.005621
529.7009	0.004228
529.9254	0.006951
530.1499	0.004185
530.3744	0.005114
530.5989	0.005748
530.8234	0.004101
531.0480	0.004882
531.2725	0.005832
531.4971	0.004713
531.7217	0.004143
531.9462	0.005157
532.1708	0.006381
532.3954	0.004650
532.6200	0.007479
532.8447	0.006212
533.0693	0.005832
533.2940	0.007099
533.5186	0.007795
533.7433	0.006993
533.9680	0.005727
534.1927	0.006803
534.4174	0.008344
534.6421	0.007774
534.8668	0.009189
535.0916	0.008049
535.3163	0.008830
535.5411	0.006740
535.7659	0.006128
535.9907	0.006993
536.2155	0.008028
536.4403	0.007732
536.6651	0.007225
536.8899	0.006275
537.1148	0.006107
537.3396	0.008598
537.5645	0.008640
537.7894	0.007922
538.0143	0.007795
538.2392	0.009506
538.4641	0.009590
538.6890	0.009273
538.9139	0.009316
539.1389	0.011068
539.3638	0.010097
539.5888	0.011258
539.8138	0.010350
540.0388	0.009611
540.2638	0.010582
540.4888	0.009273
540.7138	0.011807
540.9389	0.011047
541.1639	0.011384
541.3890	0.011954
541.6140	0.013073
541.8391	0.011237
542.0642	0.013052
542.2893	0.012714
542.5144	0.014150
542.7396	0.012778
542.9647	0.014087
543.1899	0.013643
543.4150	0.014340
543.6402	0.013643
543.8654	0.014403
544.0906	0.015607
544.3158	0.013538
544.5410	0.014488
544.7662	0.016515
544.9915	0.014931
545.2167	0.014762
545.4420	0.017443
545.6673	0.015902
545.8926	0.015417
546.1179	0.015945
546.3432	0.015100
546.5685	0.014868
546.7938	0.015311
547.0192	0.014973
547.2445	0.015881
547.4699	0.018837
547.6953	0.017380
547.9206	0.018731
548.1460	0.019386
548.3715	0.019470
548.5969	0.020779
548.8223	0.019618
549.0478	0.018774
549.2732	0.018562
549.4987	0.018689
549.7242	0.019006
549.9496	0.019069
550.1751	0.017718
550.4007	0.017380
550.6262	0.020125
550.8517	0.020568
551.0773	0.019491
551.3028	0.019259
551.5284	0.019132
551.7540	0.018204
551.9796	0.022151
552.2052	0.021180
552.4308	0.023629
552.6564	0.023059
552.8820	0.022679
553.1077	0.022869
553.3333	0.022743
553.5590	0.022869
553.7847	0.022194
554.0104	0.024284
554.2361	0.023608
554.4618	0.022911
554.6875	0.023017
554.9132	0.021117
555.1390	0.025191
555.3648	0.023735
555.5905	0.024790
555.8163	0.025761
556.0421	0.026395
556.2679	0.026965
556.4937	0.026754
556.7195	0.024643
556.9454	0.024896
557.1712	0.023249
557.3971	0.025951
557.6230	0.025255
557.8488	0.027619
558.0747	0.027493
558.3006	0.024875
558.5266	0.028337
558.7525	0.025930
558.9784	0.024431
559.2044	0.023566
559.4303	0.024748
559.6563	0.026099
559.8823	0.026521
560.1083	0.029752
560.3343	0.032918
560.5603	0.032264
560.7863	0.032538
561.0124	0.035789
561.2384	0.035198
561.4645	0.036465
561.6905	0.035747
561.9166	0.036254
562.1427	0.037204
562.3688	0.035177
562.5949	0.033868
562.8211	0.033784
563.0472	0.036064
563.2733	0.034586
563.4995	0.035621
563.7257	0.036634
563.9519	0.036486
564.1781	0.037647
564.4043	0.039568
564.6305	0.039336
564.8567	0.039716
565.0829	0.040856
565.3092	0.040497
565.5355	0.040920
565.7617	0.041342
565.9880	0.041722
566.2143	0.041321
566.4406	0.043221
566.6669	0.042820
566.8932	0.044403
567.1196	0.047422
567.3459	0.051264
567.5723	0.053565
567.7987	0.056458
568.0250	0.057724
568.2514	0.058020
568.4778	0.063847
568.7043	0.064185
568.9307	0.071426
569.1571	0.072714
569.3836	0.077485
569.6100	0.087872
569.8365	0.097984
570.0630	0.104466
570.2895	0.102924
570.5160	0.107295
570.7425	0.108287
570.9690	0.116077
571.1956	0.122305
571.4221	0.126168
571.6487	0.131742
571.8752	0.133177
572.1018	0.140440
572.3284	0.139975
572.5550	0.129842
572.7816	0.122157
573.0082	0.117639
573.2349	0.127414
573.4615	0.145739
573.6882	0.153972
573.9149	0.156822
574.1415	0.160897
574.3682	0.169658
574.5949	0.174767
574.8216	0.174788
575.0484	0.173838
575.2751	0.177427
575.5018	0.179201
575.7286	0.173036
575.9554	0.162882
576.1821	0.160475
576.4089	0.166471
576.6357	0.172445
576.8626	0.184901
577.0894	0.190707
577.3162	0.188237
577.5431	0.204493
577.7699	0.218046
577.9968	0.256153
578.2237	0.245892
578.4505	0.232233
578.6774	0.215745
578.9044	0.205611
579.1313	0.194338
579.3582	0.197589
579.5851	0.205823
579.8121	0.208715
580.0391	0.210404
580.2660	0.212853
580.4930	0.210910
580.7200	0.203754
580.9470	0.207786
581.1741	0.245935
581.4011	0.291662
581.6281	0.321282
581.8552	0.328249
582.0822	0.318474
582.3093	0.313956
582.5364	0.287799
582.7635	0.265737
582.9906	0.244605
583.2177	0.229193
583.4449	0.212895
583.6720	0.200882
583.8991	0.193367
584.1263	0.195942
584.3535	0.198708
584.5807	0.202529
584.8079	0.210657
585.0351	0.231093
585.2623	0.237997
585.4895	0.241185
585.7167	0.237279
585.9440	0.231748
586.1713	0.225161
586.3985	0.205210
586.6258	0.201495
586.8531	0.201537
587.0804	0.216568
587.3077	0.230945
587.5350	0.234133
587.7624	0.228644
587.9897	0.220875
588.2171	0.208863
588.4445	0.204746
588.6718	0.198645
588.8992	0.192269
589.1266	0.176879
589.3540	0.171221
589.5815	0.167357
589.8089	0.165119
590.0363	0.167315
590.2638	0.160306
590.4913	0.152199
590.7187	0.146879
590.9462	0.140778
591.1737	0.132776
591.4012	0.130285
591.6288	0.135795
591.8563	0.136112
592.0838	0.132227
592.3114	0.137695
592.5389	0.154817
592.7665	0.181755
592.9941	0.200460
593.2217	0.205654
593.4493	0.205780
593.6769	0.204091
593.9046	0.194697
594.1322	0.186484
594.3598	0.176815
594.5875	0.173290
594.8152	0.186168
595.0429	0.197103
595.2705	0.201621
595.4983	0.199785
595.7260	0.185365
595.9537	0.176287
596.1814	0.164824
596.4092	0.155239
596.6369	0.147913
596.8647	0.143543
597.0925	0.148420
597.3203	0.152389
597.5481	0.154669
597.7759	0.156400
598.0037	0.147174
598.2315	0.140947
598.4594	0.142973
598.6872	0.158406
598.9151	0.178314
599.1430	0.183486
599.3709	0.184099
599.5988	0.180784
599.8267	0.181840
600.0546	0.185745
600.2825	0.189989
600.5105	0.185745
600.7384	0.183909
600.9664	0.182621
601.1944	0.188638
601.4223	0.186337
601.6503	0.180974
601.8783	0.174725
602.1064	0.173163
602.3344	0.170545
602.5624	0.171812
602.7905	0.172445
603.0185	0.174915
603.2466	0.184120
603.4747	0.191171
603.7028	0.192966
603.9309	0.185007
604.1590	0.177237
604.3871	0.171031
604.6152	0.166872
604.8434	0.155640
605.0715	0.154205
605.2997	0.159673
605.5279	0.169278
605.7561	0.172508
605.9843	0.177069
606.2125	0.174978
606.4407	0.165309
606.6689	0.160095
606.8972	0.157519
607.1254	0.160538
607.3537	0.160813
607.5819	0.161573
607.8102	0.158617
608.0385	0.158047
608.2668	0.154416
608.4951	0.149560
608.7235	0.148336
608.9518	0.142340
609.1801	0.141242
609.4085	0.133937
609.6369	0.133220
609.8653	0.140292
610.0936	0.149645
610.3220	0.153614
610.5505	0.149835
610.7789	0.145084
611.0073	0.141094
611.2357	0.138730
611.4642	0.136682
611.6927	0.140630
611.9211	0.138624
612.1496	0.135943
612.3781	0.131657
612.6066	0.132966
612.8351	0.129398
613.0637	0.134930
613.2922	0.132249
613.5208	0.130982
613.7493	0.129968
613.9779	0.128660
614.2065	0.128322
614.4351	0.131552
614.6637	0.128216
614.8923	0.124332
615.1209	0.127498
615.3495	0.131066
615.5782	0.134233
615.8068	0.136175
616.0355	0.128047
616.2642	0.122115
616.4929	0.115971
616.7216	0.114008
616.9503	0.112974
617.1790	0.113881
617.4077	0.113480
617.6365	0.111369
617.8652	0.115401
618.0940	0.110905
618.3227	0.110525
618.5515	0.100813
618.7803	0.095388
619.0091	0.096802
619.2379	0.090511
619.4667	0.090490
619.6956	0.088653
619.9244	0.093973
620.1533	0.097288
620.3821	0.097077
620.6110	0.095578
620.8399	0.089202
621.0688	0.080736
621.2977	0.073326
621.5266	0.077211
621.7556	0.079744
621.9845	0.083628
622.2135	0.084008
622.4424	0.086479
622.6714	0.085212
622.9004	0.087450
623.1294	0.091102
623.3584	0.090258
623.5874	0.089371
623.8164	0.086394
624.0454	0.087703
624.2745	0.090110
624.5035	0.092918
624.7326	0.093551
624.9617	0.090025
625.1908	0.086732
625.4199	0.084431
625.6490	0.083840
625.8781	0.081686
626.1072	0.078541
626.3364	0.078224
626.5655	0.073094
626.7947	0.072038
627.0238	0.071363
627.2530	0.072482
627.4822	0.072418
627.7114	0.071320
627.9406	0.068470
628.1698	0.064016
628.3991	0.061609
628.6283	0.057302
628.8576	0.059076
629.0868	0.058886
629.3161	0.062686
629.5454	0.063045
629.7747	0.062601
630.0040	0.061356
630.2333	0.060068
630.4626	0.059688
630.6920	0.057703
630.9213	0.059498
631.1507	0.055993
631.3801	0.052742
631.6094	0.054072
631.8388	0.054473
632.0682	0.053502
632.2976	0.052425
632.5271	0.051454
632.7565	0.048372
632.9859	0.047190
633.2154	0.046430
633.4448	0.046958
633.6743	0.047211
633.9038	0.045839
634.1333	0.043706
634.3628	0.044065
634.5923	0.043559
634.8218	0.040751
635.0514	0.040877
635.2809	0.041933
635.5105	0.041004
635.7400	0.042102
635.9696	0.042714
636.1992	0.042820
636.4288	0.045311
636.6584	0.048858
636.8880	0.047443
637.1177	0.043833
637.3473	0.043031
637.5770	0.042017
637.8066	0.040666
638.0363	0.043157
638.2660	0.042756
638.4957	0.042334
638.7254	0.041849
638.9551	0.044593
639.1848	0.042946
639.4145	0.040666
639.6443	0.041408
639.8740	0.037004
640.1038	0.038094
640.3336	0.039946
640.5633	0.038226
640.7931	0.037826
641.0229	0.035906
641.2528	0.035888
641.4826	0.035644
641.7124	0.033177
641.9423	0.032319
642.1721	0.032018
642.4020	0.030278
642.6319	0.029484
642.8617	0.030858
643.0916	0.030135
643.3216	0.032008
643.5515	0.030966
643.7814	0.029814
644.0113	0.030033
644.2413	0.028271
644.4712	0.027021
644.7012	0.026770
644.9312	0.027416
645.1612	0.026700
645.3912	0.028653
645.6212	0.026485
645.8512	0.025580
646.0812	0.026998
646.3113	0.025843
646.5413	0.027124
646.7714	0.024853
647.0015	0.025668
647.2316	0.025336
647.4616	0.025155
647.6918	0.028116
647.9219	0.026668
648.1520	0.028071
648.3821	0.032052
648.6123	0.033289
648.8424	0.033376
649.0726	0.033417
649.3028	0.034170
649.5329	0.035406
649.7631	0.031762
649.9933	0.034067
650.2236	0.030414
650.4538	0.030051
650.6840	0.028783
650.9143	0.029182
651.1445	0.029507
651.3748	0.030505
651.6051	0.029156
651.8354	0.030250
652.0657	0.032254
652.2960	0.031254
652.5263	0.030191
652.7566	0.031194
652.9870	0.029844
653.2173	0.033074
653.4477	0.031947
653.6780	0.032665
653.9084	0.033975
654.1388	0.033238
654.3692	0.035164
654.5996	0.035756
654.8300	0.040229
655.0605	0.066338
655.2909	0.188815
655.5213	0.530016
655.7518	0.963226
655.9823	1.000000
656.2128	1.000000
656.4433	1.000000
656.6738	1.000000
656.9043	1.000000
657.1348	0.876039
657.3653	0.719184
657.5959	0.618146
657.8264	0.537166
658.0570	0.483088
658.2875	0.447843
658.5181	0.415426
658.7487	0.377376
658.9793	0.369938
659.2099	0.333366
659.4406	0.254794
659.6712	0.165327
659.9018	0.098300
660.1325	0.061053
660.3632	0.040675
660.5938	0.031696
660.8245	0.027278
661.0552	0.025186
661.2859	0.026093
661.5166	0.024291
661.7474	0.024022
661.9781	0.022746
662.2088	0.023499
662.4396	0.021981
662.6704	0.022068
662.9011	0.021815
663.1319	0.021543
663.3627	0.022111
663.5935	0.022179
663.8243	0.022284
664.0552	0.020611
664.2860	0.021784
664.5168	0.022430
664.7477	0.022973
664.9786	0.023943
665.2094	0.025997
665.4403	0.026034
665.6712	0.024538
665.9021	0.024154
666.1330	0.024010
666.3640	0.023540
666.5949	0.023584
666.8259	0.022031
667.0568	0.020813
667.2878	0.019207
667.5188	0.025020
667.7497	0.022656
667.9807	0.022575
668.2117	0.022099
668.4428	0.021307
668.6738	0.022215
668.9048	0.022194
669.1359	0.022109
669.3669	0.020652
669.5980	0.020420
669.8291	0.021982
670.0602	0.022236
670.2913	0.022954
670.5224	0.021349
670.7535	0.022785
670.9846	0.022531
671.2157	0.023714
671.4469	0.027324
671.6781	0.028337
671.9092	0.030955
672.1404	0.033066
672.3716	0.033446
672.6028	0.037035
672.8340	0.035156
673.0652	0.033129
673.2964	0.031419
673.5277	0.029583
673.7589	0.027915
673.9902	0.028084
674.2214	0.029709
674.4527	0.028232
674.6840	0.028295
674.9153	0.028147
675.1466	0.028696
675.3779	0.028020
675.6093	0.024474
675.8406	0.025783
676.0719	0.026395
676.3033	0.025086
676.5347	0.026289
676.7661	0.025825
676.9974	0.024178
677.2288	0.023503
677.4602	0.026310
677.6917	0.026754
677.9231	0.027640
678.1545	0.028274
678.3860	0.031018
678.6174	0.030892
678.8489	0.030047
679.0804	0.030892
679.3119	0.033193
679.5434	0.033509
679.7749	0.035029
680.0064	0.034354
680.2379	0.036718
680.4694	0.035452
680.7010	0.033889
680.9325	0.033742
681.1641	0.034945
681.3957	0.036486
681.6273	0.034312
681.8589	0.035283
682.0905	0.033826
682.3221	0.032623
682.5537	0.031039
682.7854	0.031145
683.0170	0.030617
683.2487	0.029878
683.4803	0.033172
683.7120	0.033383
683.9437	0.033552
684.1754	0.031863
684.4071	0.036866
684.6388	0.038365
684.8705	0.038471
685.1023	0.040371
685.3340	0.043664
685.5658	0.045902
685.7975	0.046789
686.0293	0.044403
686.2611	0.043981
686.4929	0.046578
686.7247	0.044065
686.9565	0.043305
687.1883	0.046050
687.4202	0.044086
687.6520	0.044720
687.8838	0.041215
688.1157	0.038893
688.3476	0.039125
688.5795	0.038133
688.8114	0.037901
689.0433	0.037246
689.2752	0.036887
689.5071	0.036528
689.7390	0.036338
689.9710	0.035768
690.2029	0.034839
690.4349	0.034734
690.6669	0.033805
690.8988	0.034649
691.1308	0.037795
691.3628	0.040117
691.5948	0.039970
691.8269	0.037584
692.0589	0.037690
692.2909	0.039864
692.5230	0.038302
692.7550	0.036972
692.9871	0.040012
693.2192	0.039906
693.4513	0.041004
693.6834	0.038661
693.9155	0.038851
694.1476	0.036148
694.3797	0.035008
694.6119	0.032538
694.8440	0.033467
695.0762	0.036676
695.3083	0.034903
695.5405	0.034016
695.7727	0.029350
696.0049	0.031060
696.2371	0.028189
696.4693	0.032623
696.7016	0.037056
696.9338	0.040434
697.1660	0.039758
697.3983	0.039547
697.6306	0.037985
697.8628	0.038935
698.0951	0.039167
698.3274	0.037331
698.5597	0.037626
698.7920	0.038808
699.0243	0.037436
699.2567	0.036887
699.4890	0.035768
699.7214	0.034143
699.9537	0.032855
700.1861	0.032538
700.4185	0.031335
700.6509	0.033003
700.8833	0.030279
701.1157	0.029076
701.3481	0.029076
701.5806	0.029203
701.8130	0.030702
702.0454	0.028253
702.2779	0.030153
702.5104	0.029245
702.7429	0.030807
702.9753	0.029266
703.2078	0.029773
703.4403	0.029456
703.6729	0.026733
703.9054	0.028844
704.1379	0.028464
704.3705	0.031504
704.6030	0.028168
704.8356	0.026479
705.0682	0.025318
705.3008	0.022067
705.5334	0.025403
705.7660	0.024347
705.9986	0.025001
706.2312	0.027049
706.4638	0.028569
706.6965	0.034122
706.9291	0.034628
707.1618	0.039885
707.3945	0.036233
707.6272	0.036507
707.8599	0.039231
708.0926	0.036951
708.3253	0.038238
708.5580	0.035029
708.7907	0.035578
709.0235	0.035768
709.2562	0.033995
709.4890	0.035431
709.7217	0.036908
709.9545	0.035262
710.1873	0.033066
710.4201	0.035515
710.6529	0.034987
710.8857	0.034079
711.1186	0.030638
711.3514	0.033066
711.5842	0.031377
711.8171	0.031905
712.0500	0.031419
712.2828	0.026120
712.5157	0.029097
712.7486	0.030047
712.9815	0.028780
713.2144	0.031082
713.4474	0.032728
713.6803	0.033003
713.9132	0.035093
714.1462	0.034375
714.3791	0.035599
714.6121	0.035874
714.8451	0.034755
715.0781	0.036022
715.3111	0.034586
715.5441	0.036127
715.7771	0.031356
716.0102	0.032327
716.2432	0.032644
716.4762	0.029350
716.7093	0.030216
716.9424	0.028422
717.1754	0.026521
717.4085	0.027915
717.6416	0.026859
717.8747	0.028992
718.1078	0.030385
718.3410	0.029646
718.5741	0.028886
718.8072	0.026268
719.0404	0.030237
719.2736	0.029076
719.5067	0.029139
719.7399	0.028590
719.9731	0.029562
720.2063	0.028759
720.4395	0.027450
720.6727	0.029118
720.9060	0.029160
721.1392	0.031398
721.3725	0.029688
721.6057	0.030343
721.8390	0.029942
722.0723	0.030385
722.3055	0.029773
722.5388	0.030005
722.7721	0.027767
723.0055	0.026733
723.2388	0.028063
723.4721	0.029287
723.7055	0.028316
723.9388	0.030047
724.1722	0.028780
724.4056	0.026901
724.6389	0.027366
724.8723	0.029182
725.1057	0.031504
725.3391	0.032285
725.5726	0.031398
725.8060	0.033847
726.0394	0.035726
726.2729	0.033953
726.5063	0.033974
726.7398	0.034755
726.9733	0.033467
727.2068	0.032686
727.4403	0.030702
727.6738	0.032391
727.9073	0.035135
728.1408	0.032517
728.3743	0.031989
728.6079	0.033383
728.8414	0.035283
729.0750	0.035431
729.3086	0.036486
729.5421	0.035621
729.7757	0.036761
730.0093	0.036803
730.2429	0.035241
730.4766	0.037225
730.7102	0.039167
730.9438	0.044086
731.1775	0.042334
731.4111	0.043960
731.6448	0.043601
731.8785	0.045923
732.1122	0.042060
732.3458	0.040096
732.5795	0.042102
732.8133	0.042229
733.0470	0.041194
733.2807	0.044466
733.5145	0.044572
733.7482	0.046810
733.9820	0.048245
734.2157	0.047633
734.4495	0.053038
734.6833	0.050652
734.9171	0.047675
735.1509	0.048119
735.3847	0.046620
735.6185	0.047718
735.8524	0.050019
736.0862	0.049280
736.3201	0.047654
736.5539	0.046641
736.7878	0.049639
737.0217	0.048921
737.2556	0.050990
737.4895	0.048288
737.7234	0.047211
737.9573	0.044319
738.1912	0.041004
738.4252	0.039273
738.6591	0.040920
738.8931	0.042440
739.1271	0.043875
739.3610	0.045248
739.5950	0.048583
739.8290	0.047000
740.0630	0.045818
740.2970	0.042904
740.5310	0.041363
740.7651	0.040328
740.9991	0.037457
741.2332	0.037436
741.4672	0.035367
741.7013	0.037120
741.9354	0.034269
742.1695	0.035388
742.4036	0.035008
742.6377	0.036718
742.8718	0.034924
743.1059	0.032686
743.3400	0.031842
743.5742	0.031039
743.8083	0.032707
744.0425	0.030406
744.2767	0.030068
744.5108	0.029435
744.7450	0.029604
744.9792	0.030132
745.2134	0.029625
745.4477	0.028126
745.6819	0.028949
745.9161	0.028232
746.1504	0.028844
746.3846	0.029076
746.6189	0.028612
746.8532	0.029034
747.0874	0.029752
747.3217	0.029942
747.5560	0.032243
747.7903	0.031736
748.0247	0.030786
748.2590	0.027830
748.4933	0.028590
748.7277	0.028485
748.9620	0.030258
749.1964	0.031546
749.4308	0.033087
749.6652	0.033087
749.8995	0.034396
750.1339	0.036613
750.3684	0.038618
750.6028	0.042693
750.8372	0.039357
751.0717	0.039378
751.3061	0.040371
751.5406	0.039653
751.7750	0.039378
752.0095	0.040920
752.2440	0.037521
752.4785	0.041490
752.7130	0.038260
752.9475	0.035895
753.1820	0.035093
753.4166	0.038196
753.6511	0.042419
753.8856	0.044931
754.1202	0.038893
754.3548	0.041616
754.5894	0.040223
754.8239	0.040286
755.0585	0.041574
755.2931	0.043031
755.5278	0.041954
755.7624	0.043917
755.9970	0.042904
756.2317	0.045121
756.4663	0.048562
756.7010	0.049090
756.9356	0.050314
757.1703	0.054220
757.4050	0.055529
757.6397	0.058991
757.8744	0.059329
758.1091	0.061630
758.3438	0.057513
758.5786	0.055888
758.8133	0.055022
759.0481	0.053650
759.2828	0.056014
759.5176	0.058759
759.7524	0.059941
759.9872	0.058294
760.2220	0.062981
760.4568	0.061313
760.6916	0.063129
760.9264	0.061693
761.1613	0.061926
761.3961	0.058041
761.6310	0.056690
761.8658	0.051497
762.1007	0.052637
762.3356	0.049892
762.5705	0.049343
762.8054	0.048034
763.0403	0.047253
763.2752	0.049998
763.5101	0.049808
763.7450	0.048900
763.9800	0.051349
764.2149	0.053650
764.4499	0.055719
764.6849	0.059160
764.9198	0.060237
765.1548	0.058970
765.3898	0.057640
765.6248	0.054853
765.8599	0.051307
766.0949	0.052257
766.3299	0.046451
766.5650	0.043305
766.8000	0.042799
767.0351	0.040666
767.2701	0.039463
767.5052	0.037880
767.7403	0.040793
767.9754	0.041384
768.2105	0.043981
768.4456	0.046282
768.6808	0.049364
768.9159	0.050737
769.1510	0.049259
769.3862	0.048182
769.6214	0.047612
769.8565	0.043812
770.0917	0.045290
770.3269	0.044973
770.5621	0.045860
770.7973	0.048182
771.0325	0.047908
771.2677	0.051750
771.5030	0.047591
771.7382	0.045438
771.9735	0.041933
772.2087	0.039294
772.4440	0.041194
772.6793	0.040835
772.9146	0.039611
773.1499	0.039020
773.3852	0.039188
773.6205	0.037711
773.8558	0.036127
774.0911	0.035895
774.3265	0.036275
774.5618	0.033129
774.7972	0.032306
775.0326	0.033151
775.2679	0.031250
775.5033	0.029076
775.7387	0.028358
775.9741	0.029878
776.2095	0.027324
776.4450	0.027303
776.6804	0.024959
776.9158	0.025698
777.1513	0.025973
777.3868	0.026416
777.6222	0.023608
777.8577	0.023355
778.0932	0.027514
778.3287	0.025951
778.5642	0.028949
778.7997	0.029709
779.0352	0.030786
779.2707	0.031947
779.5063	0.030110
779.7418	0.032032
779.9774	0.030153
780.2130	0.029963
780.4485	0.027366
780.6841	0.029034
780.9197	0.030617
781.1553	0.032602
781.3909	0.037141
781.6265	0.036465
781.8622	0.035811
782.0978	0.035219
782.3335	0.036887
782.5691	0.034945
782.8048	0.035072
783.0405	0.032559
783.2761	0.036043
783.5118	0.033868
783.7475	0.035494
783.9832	0.034607
784.2190	0.032158
784.4547	0.030955
784.6904	0.028759
784.9262	0.029308
785.1619	0.028084
785.3977	0.030279
785.6335	0.029519
785.8692	0.028949
786.1050	0.027957
786.3408	0.028928
786.5766	0.028802
786.8124	0.028084
787.0483	0.028949
787.2841	0.029013
787.5199	0.027556
787.7558	0.030723
787.9917	0.031377
788.2275	0.029308
788.4634	0.030089
788.6993	0.031187
788.9352	0.033214
789.1711	0.029794
789.4070	0.030364
789.6429	0.027218
789.8789	0.027598
790.1148	0.024790
790.3507	0.024305
790.5867	0.023883
790.8227	0.024009
791.0586	0.023798
791.2946	0.026838
791.5306	0.024769
791.7666	0.025044
792.0026	0.023714
792.2387	0.021518
792.4747	0.021412
792.7107	0.021391
792.9468	0.020378
793.1828	0.023418
793.4189	0.022172
793.6550	0.022869
793.8910	0.026310
794.1271	0.030089
794.3632	0.031884
794.5993	0.031187
794.8355	0.030723
795.0716	0.031124
795.3077	0.032771
795.5439	0.032876
795.7800	0.028400
796.0162	0.027556
796.2523	0.024115
796.4885	0.025128
796.7247	0.021075
796.9609	0.020082
797.1971	0.020188
797.4333	0.020610
797.6695	0.024621
797.9058	0.024516
798.1420	0.023397
798.3783	0.022890
798.6145	0.023840
798.8508	0.023798
799.0871	0.022510
799.3233	0.022616
799.5596	0.021940
799.7959	0.020589
800.0322	0.021729
800.2686	0.020251
800.5049	0.019512
800.7412	0.018267
800.9776	0.018668
801.2139	0.020800
801.4503	0.019217
801.6867	0.021624
801.9230	0.019175
802.1594	0.018541
802.3958	0.016303
802.6322	0.017190
802.8686	0.015945
803.1051	0.017739
803.3415	0.018584
803.5779	0.019534
803.8144	0.017486
804.0508	0.017380
804.2873	0.017190
804.5238	0.018626
804.7603	0.018436
804.9968	0.016726
805.2333	0.018752
805.4698	0.017211
805.7063	0.017148
805.9428	0.021075
806.1794	0.022088
806.4159	0.023777
806.6525	0.025740
806.8890	0.025234
807.1256	0.023313
807.3622	0.022574
807.5988	0.025445
807.8354	0.024305
808.0720	0.022890
808.3086	0.023376
808.5452	0.024241
808.7818	0.022954
809.0185	0.022215
809.2551	0.021708
809.4918	0.022088
809.7284	0.021982
809.9651	0.019745
810.2018	0.018752
810.4385	0.018288
810.6752	0.018647
810.9119	0.019175
811.1486	0.020251
811.3853	0.018372
811.6221	0.017950
811.8588	0.018647
812.0956	0.017549
812.3323	0.015628
812.5691	0.016156
812.8059	0.015966
813.0427	0.012588
813.2795	0.015248
813.5163	0.015860
813.7531	0.016705
813.9899	0.018837
814.2267	0.018056
814.4636	0.017359
814.7004	0.017591
814.9373	0.016641
815.1742	0.016050
815.4110	0.017275
815.6479	0.015755
815.8848	0.013960
816.1217	0.015058
816.3586	0.013981
816.5955	0.013812
816.8324	0.015375
817.0694	0.014425
817.3063	0.015037
817.5433	0.014045
817.7802	0.015945
818.0172	0.013390
818.2542	0.013665
818.4912	0.014783
818.7282	0.015565
818.9652	0.014572
819.2022	0.013179
819.4392	0.011638
819.6762	0.012672
819.9133	0.013496
820.1503	0.014952
820.3874	0.013812
820.6244	0.013855
820.8615	0.016557
821.0986	0.014657
821.3357	0.015016
821.5727	0.012989
821.8099	0.013876
822.0470	0.012883
822.2841	0.014340
822.5212	0.012841
822.7584	0.011976
822.9955	0.011237
823.2327	0.013855
823.4698	0.011743
823.7070	0.012440
823.9442	0.011701
824.1814	0.011110
824.4186	0.011596
824.6558	0.009780
824.8930	0.012208
825.1302	0.010772
825.3675	0.013094
825.6047	0.012947
825.8419	0.012356
826.0792	0.013073
826.3165	0.013242
826.5537	0.012208
826.7910	0.012630
827.0283	0.012060
827.2656	0.013474
827.5029	0.014192
827.7402	0.013158
827.9776	0.012904
828.2149	0.011997
828.4522	0.011659
828.6896	0.012166
828.9270	0.012377
829.1643	0.013094
829.4017	0.014593
829.6391	0.011764
829.8765	0.011764
830.1139	0.010667
830.3513	0.010202
830.5887	0.009527
830.8261	0.010646
831.0636	0.008640
831.3010	0.008218
831.5385	0.007732
831.7759	0.007437
832.0134	0.008070
832.2509	0.008534
832.4884	0.008365
832.7259	0.008724
832.9634	0.009907
833.2009	0.011110
833.4384	0.009083
833.6759	0.009780
833.9135	0.007922
834.1510	0.009949
834.3886	0.010160
834.6261	0.010456
834.8637	0.010118
835.1013	0.011553
835.3389	0.008809
835.5765	0.011321
835.8141	0.009126
836.0517	0.010012
836.2893	0.009463
836.5269	0.009189
836.7646	0.008450
837.0022	0.008978
837.2399	0.007352
837.4775	0.007247
837.7152	0.006402
837.9529	0.008619
838.1906	0.006782
838.4283	0.006845
838.6660	0.005030
838.9037	0.006233
839.1414	0.006212
839.3791	0.007057
839.6169	0.007605
839.8546	0.007183
840.0924	0.008197
840.3302	0.007035
840.5679	0.007985
840.8057	0.007859
841.0435	0.007373
841.2813	0.006824
841.5191	0.006233
841.7569	0.007310
841.9947	0.006740
842.2326	0.006550
842.4704	0.005748
842.7082	0.007014
842.9461	0.005558
843.1840	0.004460
843.4218	0.005051
843.6597	0.004439
843.8976	0.005072
844.1355	0.005009
844.3734	0.005410
844.6113	0.005199
844.8492	0.003679
845.0872	0.004755
845.3251	0.004544
845.5631	0.005748
845.8010	0.004734
846.0390	0.007605
846.2770	0.004354
846.5149	0.004840
846.7529	0.004629
846.9909	0.005199
847.2289	0.004502
847.4669	0.004608
847.7050	0.006381
847.9430	0.006571
848.1810	0.004945
848.4191	0.005642
848.6571	0.005452
848.8952	0.005030
849.1333	0.004903
849.3713	0.006064
849.6094	0.004798
849.8475	0.006107
850.0856	0.004460
850.3237	0.004059
850.5619	0.005114
850.8000	0.004059
851.0381	0.005600
851.2763	0.004038
851.5144	0.004059
851.7526	0.005262
851.9908	0.005157
852.2289	0.005980
852.4671	0.006423
852.7053	0.009632
852.9435	0.010350
853.1817	0.013749
853.4200	0.014699
853.6582	0.014361
853.8964	0.014002
854.1347	0.014425
854.3729	0.014868
854.6112	0.015016
854.8495	0.014826
855.0877	0.013137
855.3260	0.013728
855.5643	0.012060
855.8026	0.012398
856.0409	0.012377
856.2792	0.009400
856.5176	0.013369
856.7559	0.013137
856.9942	0.011701
857.2326	0.010477
857.4710	0.010920
857.7093	0.010793
857.9477	0.010498
858.1861	0.010962
858.4245	0.012292
858.6629	0.009674
858.9013	0.009294
859.1397	0.009632
859.3781	0.009611
859.6166	0.008344
859.8550	0.010244
860.0935	0.006909
860.3319	0.007310
860.5704	0.007627
860.8089	0.007394
861.0473	0.007880
861.2858	0.007289
861.5243	0.007500
861.7628	0.006444
862.0013	0.006698
862.2399	0.006233
862.4784	0.005558
862.7169	0.006022
862.9555	0.006740
863.1940	0.006444
863.4326	0.006128
863.6712	0.007605
863.9098	0.005220
864.1483	0.006698
864.3869	0.006888
864.6255	0.007099
864.8642	0.006423
865.1028	0.006951
865.3414	0.005452
865.5800	0.005980
865.8187	0.004439
866.0573	0.005178
866.2960	0.005558
866.5347	0.005558
866.7733	0.005452
867.0120	0.004903
867.2507	0.004354
867.4894	0.006465
867.7281	0.005135
867.9669	0.004734
868.2056	0.005220
868.4443	0.006254
868.6831	0.005452
868.9218	0.004967
869.1606	0.005114
869.3993	0.006064
869.6381	0.003446
869.8769	0.005157
870.1157	0.004249
870.3545	0.004924
870.5933	0.004565
870.8321	0.005452
871.0709	0.005663
871.3097	0.005748
871.5486	0.003404
871.7874	0.005621
872.0263	0.004354
872.2651	0.004777
872.5040	0.004587
872.7429	0.004206
872.9818	0.005283
873.2207	0.005410
873.4596	0.005621
873.6985	0.006339
873.9374	0.004840
874.1763	0.005304
874.4153	0.005874
874.6542	0.004481
874.8932	0.004544
875.1321	0.007057
875.3711	0.005811
875.6101	0.007162
875.8491	0.003974
876.0880	0.007014
876.3270	0.005452
876.5661	0.003890
876.8051	0.005431
877.0441	0.005600
877.2831	0.006360
877.5222	0.005769
877.7612	0.006930
878.0003	0.005579
878.2393	0.006381
878.4784	0.006592
878.7175	0.007795
878.9566	0.007247
879.1957	0.006803
879.4348	0.007099
879.6739	0.007648
879.9130	0.007859
880.1521	0.008640
880.3913	0.008112
880.6304	0.007880
880.8696	0.009294
881.1087	0.006233
881.3479	0.007247
881.5871	0.008471
881.8262	0.005684
882.0654	0.006740
882.3046	0.005600
882.5438	0.006613
882.7831	0.006592
883.0223	0.005748
883.2615	0.006655
883.5007	0.005093
883.7400	0.005663
883.9792	0.007373
884.2185	0.005178
884.4578	0.005431
884.6971	0.005727
884.9363	0.004988
885.1756	0.005621
885.4149	0.005600
885.6542	0.006888
885.8936	0.007162
886.1329	0.008091
886.3722	0.007458
886.6116	0.006592
886.8509	0.006128
887.0903	0.005832
887.3296	0.006803
887.5690	0.004038
887.8084	0.005114
888.0478	0.006128
888.2872	0.004967
888.5266	0.005811
888.7660	0.004671
889.0054	0.003172
889.2448	0.005304
889.4843	0.004523
889.7237	0.004101
889.9632	0.004164
890.2026	0.004734
890.4421	0.003932
890.6816	0.005178
890.9211	0.002349
891.1606	0.005811
891.4001	0.005642
891.6396	0.004861
891.8791	0.005410
892.1186	0.005072
892.3581	0.004945
892.5977	0.004629
892.8372	0.005621
893.0768	0.004354
893.3163	0.005262
893.5559	0.004798
893.7955	0.004945
894.0351	0.002750
894.2747	0.004249
894.5143	0.004924
894.7539	0.003003
894.9935	0.003404
895.2331	0.004228
895.4727	0.004481
895.7124	0.003869
895.9520	0.005727
896.1917	0.005938
896.4314	0.005368
896.6710	0.005705
896.9107	0.003784
897.1504	0.003193
897.3901	0.004798
897.6298	0.005917
897.8695	0.004354
898.1092	0.005959
898.3489	0.005199
898.5887	0.005283
898.8284	0.004608
899.0682	0.004967
899.3079	0.004629
899.5477	0.004016
899.7875	0.005537
900.0272	0.003446
900.2670	0.004101
900.5068	0.005600
900.7466	0.004396
900.9864	0.004164
901.2263	0.005241
901.4661	0.004206
901.7059	0.005241
901.9458	0.003383
902.1856	0.003636
902.4255	0.004143
902.6654	0.004713
902.9052	0.004354
903.1451	0.003468
903.3850	0.004270
903.6249	0.003869
903.8648	0.004650
904.1047	0.004840
904.3446	0.002518
904.5846	0.004650
904.8245	0.002602
905.0644	0.004819
905.3044	0.003995
905.5444	0.004439
905.7843	0.004861
906.0243	0.005684
906.2643	0.005853
906.5043	0.006803
906.7443	0.004354
906.9843	0.004650
907.2243	0.004523
907.4643	0.004059
907.7043	0.005304
907.9444	0.003932
908.1844	0.003193
908.4245	0.004692
908.6645	0.003700
908.9046	0.003383
909.1447	0.002855
909.3847	0.003341
909.6248	0.003995
909.8649	0.002180
910.1050	0.004502
910.3452	0.003911
910.5853	0.002792
910.8254	0.004629
911.0655	0.002855
911.3057	0.003341
911.5458	0.004882
911.7860	0.005347
912.0262	0.004713
912.2663	0.003299
912.5065	0.005262
912.7467	0.004396
912.9869	0.003890
913.2271	0.002665
913.4673	0.002602
913.7075	0.003193
913.9478	0.003763
914.1880	0.003848
914.4283	0.003383
914.6685	0.003193
914.9088	0.003573
915.1490	0.002349
915.3893	0.002644
915.6296	0.004861
915.8699	0.003172
916.1102	0.003468
916.3505	0.003784
916.5908	0.004439
916.8311	0.003193
917.0714	0.005051
917.3118	0.002792
917.5521	0.003679
917.7925	0.004903
918.0328	0.004354
918.2732	0.004544
918.5136	0.003468
918.7539	0.005051
918.9943	0.003552
919.2347	0.003299
919.4751	0.003299
919.7155	0.004016
919.9560	0.004185
920.1964	0.004544
920.4368	0.003784
920.6773	0.005030
920.9177	0.002792
921.1582	0.002919
921.3986	0.003974
921.6391	0.003278
921.8796	0.003362
922.1201	0.002496
922.3606	0.003172
922.6011	0.002095
922.8416	0.003404
923.0821	0.001483
923.3226	0.004249
923.5631	0.002940
923.8037	0.004882
924.0442	0.002454
924.2848	0.002982
924.5254	0.001990
924.7659	0.002306
925.0065	0.003594
925.2471	0.003700
925.4877	0.004016
925.7283	0.001525
925.9689	0.003995
926.2095	0.002834
926.4501	0.003721
926.6908	0.001631
926.9314	0.001504
927.1720	0.003383
927.4127	0.001589
927.6533	0.002665
927.8940	0.001715
928.1347	0.003383
928.3754	0.002306
928.6161	0.002074
928.8568	0.002180
929.0975	0.001715
929.3382	0.002496
929.5789	0.002201
929.8196	0.001863
930.0604	0.001884
930.3011	0.001736
930.5419	0.003130
930.7826	0.002095
931.0234	0.002771
931.2642	0.002328
931.5049	0.002644
931.7457	0.001652
931.9865	0.002496
932.2273	0.000723
932.4681	0.001272
932.7089	0.001441
932.9498	0.002729
933.1906	0.000744
933.4314	0.001525
933.6723	0.002454
933.9131	0.002792
934.1540	0.001694
934.3949	0.002834
934.6358	0.000512
934.8766	0.002116
935.1175	0.002433
935.3584	0.002686
935.5993	0.002433
935.8403	0.002243
936.0812	0.000723
936.3221	0.001462
936.5630	-0.000354
936.8040	0.001842
937.0449	0.002412
937.2859	0.002665
937.5269	0.000280
937.7678	0.001694
938.0088	-0.000079
938.2498	0.001863
938.4908	0.002328
938.7318	0.000470
938.9728	0.001842
939.2138	0.000533
939.4549	0.002243
939.6959	0.000132
939.9369	0.001546
940.1780	0.000639
940.4190	0.000280
940.6601	0.000681
940.9012	0.000512
941.1422	0.001589
941.3833	0.001462
941.6244	0.000829
941.8655	0.001145
942.1066	0.000132
942.3477	0.002961
942.5889	-0.000670
942.8300	0.001145
943.0711	0.001124
943.3123	0.001462
943.5534	-0.000797
943.7946	0.001694
944.0357	0.000850
944.2769	0.002095
944.5181	0.001019
944.7593	0.001926
945.0005	0.001842
945.2417	-0.000333
945.4829	0.001736
945.7241	0.000913
945.9653	0.000913
946.2066	0.001990
946.4478	0.000892
946.6891	0.001842
946.9303	0.000512
947.1716	0.001652
947.4128	0.001926
947.6541	0.000111
947.8954	0.000449
948.1367	0.001483
948.3780	0.000174
948.6193	0.000322
948.8606	0.001103
949.1019	0.002623
949.3433	0.000934
949.5846	0.002159
949.8259	0.000090
950.0673	0.000723
950.3086	0.001568
950.5500	0.002496
950.7914	0.001546
951.0327	0.002053
951.2741	0.000871
951.5155	0.001082
951.7569	0.001546
951.9983	0.001061
952.2398	0.000428
952.4812	0.000512
952.7226	0.001990
952.9640	0.000026
953.2055	0.000216
953.4469	0.000786
953.6884	0.001821
953.9299	0.002285
954.1713	0.001293
954.4128	0.001525
954.6543	-0.001430
954.8958	0.001884
955.1373	0.001884
955.3788	0.001251
955.6203	-0.000227
955.8618	0.000132
956.1034	0.001399
956.3449	0.001884
956.5865	0.000343
956.8280	0.000744
957.0696	0.001061
957.3111	0.001905
957.5527	-0.000227
957.7943	0.001758
958.0359	0.000428
958.2775	0.001525
958.5191	0.001378
958.7607	0.001124
959.0023	0.000259
959.2439	0.000449
959.4856	0.000976
959.7272	0.000702
959.9688	0.000744
960.2105	0.000702
960.4522	0.000132
960.6938	0.000913
960.9355	0.000723
961.1772	0.002138
961.4189	0.002053
961.6606	-0.000037
961.9023	0.000364
962.1440	0.000153
962.3857	0.000470
962.6274	0.000765
962.8692	0.000681
963.1109	0.000955
963.3527	-0.000818
963.5944	0.001420
963.8362	0.000069
964.0779	0.000111
964.3197	0.002074
964.5615	0.001926
964.8033	0.000976
965.0451	0.001061
965.2869	0.001082
965.5287	0.000871
965.7705	0.000470
966.0123	0.000406
966.2542	0.000829
966.4960	0.001948
966.7379	0.001589
966.9797	-0.000227
967.2216	0.000744
967.4634	0.000892
967.7053	-0.000100
967.9472	0.001124
968.1891	0.000934
968.4310	0.000723
968.6729	0.000132
968.9148	0.000470
969.1567	0.001061
969.3987	0.000554
969.6406	0.000660
969.8825	0.001441
970.1245	0.000026
970.3664	0.001124
970.6084	0.000744
970.8504	-0.000016
971.0923	0.000765
971.3343	0.000829
971.5763	0.000913
971.8183	0.001314
972.0603	0.000765
972.3023	0.002285
972.5443	-0.000290
972.7864	-0.000860
973.0284	0.000829
973.2704	0.000174
973.5125	0.000406
973.7545	0.000976
973.9966	0.000850
974.2387	0.001166
974.4807	0.000005
974.7228	-0.000818
974.9649	0.000575
975.2070	0.000153
975.4491	-0.000164
975.6912	0.000512
975.9333	0.000575
976.1755	0.000808
976.4176	0.000428
976.6597	0.000618
976.9019	-0.000987
977.1440	0.000322
977.3862	0.000153
977.6283	0.000491
977.8705	-0.000037
978.1127	-0.000164
978.3549	0.002328
978.5971	-0.000058
978.8393	-0.000734
979.0815	-0.000164
979.3237	0.001124
979.5659	0.000132
979.8082	0.001525
980.0504	-0.000121
980.2926	-0.000860
980.5349	-0.000016
980.7771	0.000955
981.0194	0.000660
981.2617	0.000913
981.5040	0.001758
981.7462	-0.000523
981.9885	0.000111
982.2308	0.000428
982.4731	0.001272
982.7155	0.000174
982.9578	-0.000100
983.2001	-0.000206
983.4424	0.000195
983.6848	-0.001008
983.9271	0.000575
984.1695	-0.000016
984.4118	0.001145
984.6542	0.000216
984.8966	-0.000691
985.1390	0.000533
985.3814	0.000554
985.6238	0.000406
985.8662	0.000702
986.1086	-0.000206
986.3510	0.000976
986.5934	0.000005
986.8358	0.000871
987.0783	-0.000016
987.3207	0.000829
987.5632	-0.001261
987.8056	0.001483
988.0481	-0.000713
988.2906	0.002032
988.5331	-0.000480
988.7756	0.000934
989.0180	0.000744
989.2605	0.000322
989.5031	0.000808
989.7456	-0.000691
989.9881	0.000301
990.2306	0.000702
990.4732	-0.000185
990.7157	0.001356
990.9582	-0.000755
991.2008	-0.000607
991.4434	-0.001747
991.6859	0.000955
991.9285	0.000153
992.1711	0.000111
992.4137	0.000470
992.6563	0.000871
992.8989	0.000660
993.1415	-0.000375
993.3841	0.000385
993.6267	0.000449
993.8694	0.000428
994.1120	0.000322
994.3547	0.000216
994.5973	0.000596
994.8400	0.000533
995.0826	-0.000016
995.3253	0.000786
995.5680	0.001378
995.8107	0.000343
996.0534	0.001019
996.2961	-0.000248
996.5388	0.000132
996.7815	0.000259
997.0242	0.001272
997.2670	0.000090
997.5097	0.001061
997.7524	-0.000628
997.9952	0.001272
998.2379	-0.000797
998.4807	0.000280
998.7235	0.000554
998.9662	-0.000206
999.2090	-0.000121
999.4518	-0.000480
999.6946	0.000174
999.9374	0.000639
1000.1802	0.000596
1000.4230	0.000132
1000.6659	0.000596
1000.9087	-0.000290
1001.1515	-0.000417
1001.3944	-0.001304
1001.6372	0.000406
1001.8801	-0.000185
1002.1230	0.000238
1002.3658	0.001061
1002.6087	0.000596
1002.8516	0.001948
1003.0945	-0.000544
1003.3374	-0.000417
1003.5803	-0.000523
1003.8232	-0.000375
1004.0661	0.000512
1004.3091	0.000639
1004.5520	0.001103
1004.7949	0.000639
1005.0379	-0.000164
1005.2808	0.000364
1005.5238	-0.000037
1005.7667	0.000512
1006.0097	-0.000565
1006.2527	0.001610
1006.4957	0.000153
1006.7387	-0.000459
1006.9817	0.002159
1007.2247	0.000216
1007.4677	-0.000755
1007.7107	-0.000523
1007.9538	-0.000058
1008.1968	0.000216
1008.4398	0.000618
1008.6829	-0.001093
1008.9259	0.000850
1009.1690	-0.000164
1009.4121	0.000005
1009.6551	0.000238
1009.8982	0.000449
1010.1413	-0.000185
1010.3844	0.001356
1010.6275	-0.000100
1010.8706	0.000406
1011.1137	-0.000375
1011.3568	0.002074
1011.6000	-0.000248
1011.8431	0.001483
1012.0863	-0.000523
1012.3294	0.000343
1012.5726	0.000216
1012.8157	0.000280
1013.0589	0.000829
1013.3021	-0.000417
1013.5452	-0.000037
1013.7884	0.002159
1014.0316	0.000174
1014.2748	0.000575
1014.5180	0.000765
1014.7613	0.000174
1015.0045	0.000069
1015.2477	0.000428
1015.4909	0.000892
1015.7342	0.000301
1015.9774	-0.000333
1016.2207	0.000976
1016.4640	0.000364
1016.7072	0.000301
1016.9505	0.000301
1017.1938	0.001082
1017.4371	0.000406
1017.6804	0.000850
1017.9237	-0.000354
1018.1670	0.001420
1018.4103	0.000934
1018.6536	-0.000459
1018.8969	0.000955
1019.1403	-0.000776
1019.3836	-0.000079
1019.6270	0.000850
1019.8703	-0.000333
1020.1137	0.000048
1020.3571	-0.000185
1020.6004	-0.000333
1020.8438	-0.000121
1021.0872	0.000892
1021.3306	0.000575
1021.5740	0.000786
1021.8174	0.000090
1022.0608	0.001420
1022.3042	-0.000565
1022.5477	0.000406
1022.7911	0.000132
1023.0345	0.000132
