# Wavelength (nm)	Intensity (a.u.)
197.7802	0.000288
197.9842	-0.000324
198.1882	0.000162
198.3922	-0.000704
198.5963	0.000521
198.8003	-0.001041
199.0044	-0.000640
199.2085	-0.000281
199.4126	-0.001231
199.6168	0.000436
199.8209	0.000141
200.0251	-0.001253
200.2292	-0.000113
200.4334	-0.000894
200.6376	-0.000577
200.8418	-0.000387
201.0461	0.000415
201.2503	-0.000429
201.4546	0.000563
201.6589	0.000310
201.8631	0.000267
202.0674	0.000690
202.2718	0.000014
202.4761	0.000056
202.6805	0.000626
202.8848	-0.000197
203.0892	0.000647
203.2936	0.001492
203.4980	0.000605
203.7024	-0.000683
203.9069	0.000584
204.1113	-0.000830
204.3158	0.000943
204.5203	0.001407
204.7248	-0.000704
204.9293	0.001048
205.1338	0.000415
205.3384	-0.000113
205.5430	0.001112
205.7475	0.000267
205.9521	0.000858
206.1567	-0.000049
206.3614	-0.000387
206.5660	0.000457
206.7706	-0.000007
206.9753	0.001006
207.1800	0.000141
207.3847	0.000331
207.5894	0.000141
207.7941	0.000732
207.9989	-0.000155
208.2036	-0.000493
208.4084	0.000795
208.6132	0.000288
208.8180	0.001618
209.0228	0.000056
209.2276	0.000352
209.4325	0.001323
209.6373	0.001745
209.8422	0.000162
210.0471	-0.000450
210.2520	0.001365
210.4569	-0.000556
210.6618	0.000563
210.8668	0.000732
211.0718	-0.000767
211.2767	0.001618
211.4817	-0.001844
211.6867	0.001133
211.8918	0.000035
212.0968	0.001091
212.3018	-0.000429
212.5069	0.001154
212.7120	-0.000091
212.9171	0.000732
213.1222	-0.000577
213.3273	0.000880
213.5325	-0.000471
213.7376	-0.000239
213.9428	0.000478
214.1480	0.000732
214.3532	0.001428
214.5584	0.000774
214.7636	0.000310
214.9689	0.000436
215.1741	-0.000387
215.3794	0.001070
215.5847	-0.000218
215.7900	0.000310
215.9953	-0.000999
216.2007	0.001618
216.4060	0.000774
216.6114	0.000668
216.8168	-0.000281
217.0222	-0.000471
217.2276	0.000035
217.4330	0.000858
217.6384	0.000141
217.8439	0.001977
218.0494	0.001196
218.2548	0.000901
218.4603	-0.000640
218.6659	-0.000176
218.8714	-0.001654
219.0769	0.000162
219.2825	0.000225
219.4881	0.000837
219.6936	-0.000366
219.8992	0.001154
220.1049	0.000668
220.3105	0.000436
220.5161	-0.000387
220.7218	0.000605
220.9275	0.000563
221.1332	0.000056
221.3389	-0.000387
221.5446	0.001154
221.7503	0.000056
221.9561	0.000795
222.1618	-0.000978
222.3676	0.000099
222.5734	-0.000598
222.7792	0.001154
222.9850	-0.000683
223.1909	0.001006
223.3967	-0.000999
223.6026	0.000837
223.8085	0.000331
224.0144	0.000099
224.2203	0.000964
224.4262	0.001618
224.6322	0.000668
224.8381	-0.000218
225.0441	0.000056
225.2501	0.001682
225.4561	0.000310
225.6621	0.001154
225.8681	0.000267
226.0742	0.001070
226.2802	0.000099
226.4863	0.000647
226.6924	0.001428
226.8985	0.000732
227.1046	0.000584
227.3107	0.001323
227.5169	-0.000007
227.7230	0.000521
227.9292	-0.000408
228.1354	-0.001084
228.3416	0.000584
228.5478	0.000141
228.7541	-0.001126
228.9603	0.000858
229.1666	-0.000091
229.3729	0.000521
229.5791	0.001154
229.7855	0.000584
229.9918	-0.001084
230.1981	0.000711
230.4045	-0.000830
230.6108	0.000690
230.8172	-0.000429
231.0236	0.000880
231.2300	0.000690
231.4364	-0.000113
231.6429	-0.001611
231.8493	-0.000598
232.0558	0.000331
232.2623	0.000563
232.4688	0.000500
232.6753	-0.000345
232.8818	0.000331
233.0884	0.000457
233.2949	0.000014
233.5015	0.000711
233.7081	0.000858
233.9147	0.000352
234.1213	-0.000387
234.3279	0.000500
234.5346	0.000647
234.7413	0.001238
234.9479	0.000310
235.1546	0.000816
235.3613	-0.001295
235.5680	0.000647
235.7748	0.000690
235.9815	0.000626
236.1883	0.001027
236.3951	0.001027
236.6018	0.000711
236.8087	0.000901
237.0155	0.000373
237.2223	0.000415
237.4292	0.000436
237.6360	-0.001084
237.8429	0.000099
238.0498	0.001893
238.2567	0.000647
238.4636	0.000099
238.6706	0.000162
238.8775	0.001027
239.0845	0.000120
239.2915	0.001787
239.4985	-0.000767
239.7055	0.001070
239.9125	0.000436
240.1195	0.000732
240.3266	0.000647
240.5337	-0.000007
240.7407	-0.001654
240.9478	0.001576
241.1549	-0.000999
241.3621	-0.000873
241.5692	0.000668
241.7764	-0.000218
241.9835	-0.000007
242.1907	-0.000281
242.3979	-0.000535
242.6051	0.000943
242.8124	-0.000661
243.0196	-0.000303
243.2269	-0.000218
243.4341	0.000373
243.6414	0.000099
243.8487	0.000310
244.0560	-0.000809
244.2634	-0.000683
244.4707	-0.000239
244.6781	0.000014
244.8854	-0.001020
245.0928	0.001070
245.3002	0.000521
245.5076	0.001027
245.7151	0.000436
245.9225	0.000563
246.1300	-0.000619
246.3375	0.001154
246.5449	-0.000450
246.7524	0.000352
246.9600	-0.000197
247.1675	0.000795
247.3750	-0.000134
247.5826	-0.000239
247.7902	0.000478
247.9978	0.001407
248.2054	-0.000218
248.4130	0.001471
248.6206	-0.000915
248.8283	0.000816
249.0359	-0.000176
249.2436	0.000204
249.4513	0.000584
249.6590	-0.000366
249.8667	0.000225
250.0745	0.001450
250.2822	-0.000091
250.4900	0.000035
250.6978	-0.001379
250.9056	0.000478
251.1134	0.000858
251.3212	0.001006
251.5290	-0.000936
251.7369	-0.000514
251.9447	0.000668
252.1526	0.000331
252.3605	0.000985
252.5684	0.000288
252.7763	0.000964
252.9843	-0.000493
253.1922	-0.001548
253.4002	0.002357
253.6082	0.000837
253.8162	0.001006
254.0242	-0.000345
254.2322	0.000310
254.4402	-0.000281
254.6483	0.000352
254.8564	0.000099
255.0644	0.000099
255.2725	-0.000176
255.4806	0.001576
255.6888	0.000985
255.8969	0.001154
256.1051	-0.000936
256.3132	0.000711
256.5214	-0.001379
256.7296	-0.000598
256.9378	0.000141
257.1460	0.001196
257.3543	0.000246
257.5625	0.001407
257.7708	-0.000788
257.9791	-0.000070
258.1874	0.000141
258.3957	0.001407
258.6040	0.000288
258.8124	-0.000619
259.0207	-0.000028
259.2291	0.000478
259.4375	-0.000007
259.6459	0.000246
259.8543	-0.000640
260.0627	-0.000260
260.2711	0.000943
260.4796	-0.000049
260.6881	-0.000429
260.8965	0.000521
261.1050	0.000246
261.3135	0.001091
261.5221	-0.000493
261.7306	0.000394
261.9392	0.000795
262.1477	0.000985
262.3563	0.000901
262.5649	0.000647
262.7735	-0.000788
262.9822	0.000352
263.1908	-0.000049
263.3995	0.000753
263.6081	0.000500
263.8168	0.000225
264.0255	-0.000281
264.2342	0.000478
264.4429	0.000605
264.6517	-0.000535
264.8604	0.000288
265.0692	-0.000028
265.2780	-0.000324
265.4868	0.000584
265.6956	-0.002350
265.9044	-0.000514
266.1133	0.000732
266.3221	0.000711
266.5310	-0.001253
266.7399	0.000943
266.9488	0.000056
267.1577	-0.000260
267.3666	0.000816
267.5755	-0.000070
267.7845	0.000099
267.9935	-0.000028
268.2024	0.000394
268.4114	0.000605
268.6205	-0.000746
268.8295	0.000204
269.0385	-0.000640
269.2476	-0.000429
269.4566	-0.001295
269.6657	0.000837
269.8748	0.000288
270.0839	0.000521
270.2931	-0.000197
270.5022	0.001534
270.7114	0.000478
270.9205	0.000711
271.1297	-0.000197
271.3389	-0.000155
271.5481	0.000626
271.7573	0.001281
271.9666	0.001070
272.1758	0.001238
272.3851	-0.000176
272.5944	0.001344
272.8037	-0.001295
273.0130	0.000394
273.2223	0.000753
273.4316	-0.000049
273.6410	0.001450
273.8504	0.000668
274.0597	0.001260
274.2691	0.000310
274.4785	-0.000450
274.6880	-0.000007
274.8974	0.000352
275.1069	0.000690
275.3163	-0.001105
275.5258	0.000014
275.7353	-0.000197
275.9448	-0.001168
276.1543	0.000225
276.3639	0.000225
276.5734	-0.000704
276.7830	0.000500
276.9926	-0.000640
277.2022	-0.000218
277.4118	-0.000134
277.6214	-0.001147
277.8310	-0.000704
278.0407	0.000922
278.2503	-0.000113
278.4600	-0.000324
278.6697	-0.000155
278.8794	0.001872
279.0891	0.000183
279.2989	-0.000197
279.5086	0.000141
279.7184	0.001281
279.9281	0.001006
280.1379	-0.000239
280.3477	-0.000113
280.5576	0.000352
280.7674	0.000457
280.9772	0.000077
281.1871	-0.000661
281.3970	-0.000028
281.6069	-0.000387
281.8168	0.000120
282.0267	0.000331
282.2366	-0.000113
282.4466	-0.000408
282.6565	-0.001168
282.8665	0.000542
283.0765	0.000415
283.2865	0.000668
283.4965	0.001766
283.7065	-0.000746
283.9166	0.000880
284.1266	-0.000514
284.3367	0.000626
284.5468	0.000732
284.7569	0.000753
284.9670	-0.000598
285.1771	0.000478
285.3873	-0.000239
285.5974	0.001935
285.8076	0.000753
286.0178	-0.000028
286.2280	-0.000619
286.4382	0.003012
286.6484	0.000415
286.8587	0.001450
287.0689	0.001027
287.2792	0.000162
287.4895	0.000267
287.6998	-0.000387
287.9101	-0.000936
288.1204	0.000267
288.3308	0.000099
288.5411	-0.000851
288.7515	0.000204
288.9619	0.000521
289.1723	0.001513
289.3827	0.001281
289.5931	-0.000514
289.8035	0.001217
290.0140	0.000415
290.2245	0.000436
290.4349	-0.000999
290.6454	-0.000218
290.8559	-0.000725
291.0665	0.000267
291.2770	-0.000493
291.4875	0.001196
291.6981	-0.000176
291.9087	0.000500
292.1193	0.000816
292.3299	0.000225
292.5405	0.000310
292.7511	0.000711
292.9618	-0.002076
293.1724	0.001872
293.3831	-0.000598
293.5938	0.000647
293.8045	-0.000387
294.0152	-0.000493
294.2260	-0.000788
294.4367	-0.000218
294.6475	-0.000999
294.8582	0.000331
295.0690	0.000183
295.2798	0.000922
295.4906	-0.001168
295.7015	0.001006
295.9123	-0.000324
296.1232	0.000352
296.3340	0.000436
296.5449	0.001407
296.7558	0.000478
296.9667	0.000500
297.1777	0.000753
297.3886	0.001703
297.5995	0.001576
297.8105	0.001238
298.0215	0.000500
298.2325	0.001323
298.4435	0.001513
298.6545	-0.000070
298.8656	0.000141
299.0766	0.001154
299.2877	0.000795
299.4988	0.000816
299.7099	-0.000661
299.9210	-0.000387
300.1321	0.001851
300.3432	0.000352
300.5544	0.000141
300.7655	-0.000281
300.9767	0.000077
301.1879	0.001808
301.3991	0.001048
301.6103	-0.000725
301.8215	-0.000894
302.0328	-0.000851
302.2441	-0.000661
302.4553	0.000267
302.6666	0.000352
302.8779	0.000690
303.0892	-0.000197
303.3006	0.002273
303.5119	-0.000957
303.7233	0.000732
303.9346	-0.000450
304.1460	0.001640
304.3574	0.000120
304.5688	-0.000028
304.7803	0.000647
304.9917	0.001914
305.2031	0.000521
305.4146	-0.001844
305.6261	0.000056
305.8376	0.002167
306.0491	0.000415
306.2606	-0.000746
306.4722	-0.000471
306.6837	-0.000049
306.8953	0.000711
307.1069	0.000816
307.3184	-0.001548
307.5301	-0.000281
307.7417	-0.000007
307.9533	0.001281
308.1650	0.000584
308.3766	0.000816
308.5883	0.000858
308.8000	0.001027
309.0117	-0.000007
309.2234	-0.000556
309.4351	0.000288
309.6469	0.000943
309.8586	-0.000704
310.0704	0.000415
310.2822	0.000204
310.4940	0.000436
310.7058	-0.000218
310.9176	0.002526
311.1295	0.002104
311.3413	0.000183
311.5532	-0.000345
311.7651	0.001091
311.9770	-0.000577
312.1889	0.001661
312.4008	-0.001464
312.6127	0.000120
312.8247	0.000690
313.0366	0.002505
313.2486	-0.000218
313.4606	-0.000113
313.6726	0.000774
313.8846	-0.000514
314.0967	-0.001231
314.3087	-0.000830
314.5208	-0.000324
314.7328	0.000668
314.9449	0.000331
315.1570	0.000732
315.3692	-0.000091
315.5813	-0.000577
315.7934	0.000901
316.0056	0.000985
316.2177	0.000647
316.4299	0.002083
316.6421	-0.000239
316.8543	0.000331
317.0666	0.001893
317.2788	0.000563
317.4911	-0.000049
317.7033	-0.000725
317.9156	-0.000873
318.1279	-0.000049
318.3402	0.001534
318.5525	0.000753
318.7649	-0.000471
318.9772	0.000943
319.1896	-0.000007
319.4019	-0.000197
319.6143	-0.000493
319.8267	0.001471
320.0392	-0.000577
320.2516	0.000204
320.4640	0.001302
320.6765	0.000690
320.8890	-0.000556
321.1014	-0.000408
321.3139	0.000457
321.5265	0.000204
321.7390	0.000373
321.9515	0.000099
322.1641	-0.000556
322.3766	0.000985
322.5892	-0.000239
322.8018	-0.001738
323.0144	0.001154
323.2270	0.000035
323.4397	0.001407
323.6523	-0.000366
323.8650	0.000647
324.0777	0.001070
324.2904	-0.000007
324.5031	0.000943
324.7158	-0.000830
324.9285	0.000753
325.1412	-0.000007
325.3540	-0.001886
325.5668	0.000099
325.7796	-0.000028
325.9924	-0.000091
326.2052	0.000352
326.4180	0.000753
326.6308	0.001302
326.8437	0.001302
327.0566	-0.001084
327.2694	0.000690
327.4823	0.000183
327.6952	0.001830
327.9082	-0.000324
328.1211	-0.000134
328.3340	0.000605
328.5470	-0.000915
328.7600	0.001492
328.9730	-0.001358
329.1860	-0.000324
329.3990	-0.000873
329.6120	0.000310
329.8251	0.000457
330.0381	-0.000345
330.2512	0.001238
330.4643	0.001027
330.6774	0.000141
330.8905	-0.001168
331.1036	-0.000809
331.3167	0.000605
331.5299	0.000774
331.7431	0.000837
331.9562	-0.000134
332.1694	0.001070
332.3826	0.000605
332.5959	0.000267
332.8091	-0.000303
333.0223	0.000267
333.2356	0.000816
333.4489	-0.000957
333.6622	0.000014
333.8755	-0.000471
334.0888	0.001196
334.3021	0.000880
334.5154	-0.000767
334.7288	0.001977
334.9422	0.000880
335.1555	0.000077
335.3689	0.000331
335.5823	-0.000387
335.7958	0.000542
336.0092	-0.001379
336.2227	0.001281
336.4361	0.000267
336.6496	0.000415
336.8631	0.000436
337.0766	-0.000598
337.2901	0.000267
337.5036	0.000436
337.7172	0.000099
337.9307	0.000310
338.1443	-0.000725
338.3579	-0.000197
338.5715	0.000500
338.7851	0.000816
338.9987	0.000837
339.2124	0.000795
339.4260	0.001872
339.6397	0.001407
339.8533	-0.000514
340.0670	-0.000091
340.2807	0.000774
340.4945	0.000415
340.7082	0.001471
340.9219	0.000141
341.1357	-0.000788
341.3495	-0.000387
341.5633	-0.000197
341.7771	0.000542
341.9909	-0.000260
342.2047	0.000352
342.4185	0.000267
342.6324	0.000352
342.8463	-0.000028
343.0601	-0.000809
343.2740	0.001006
343.4879	-0.000218
343.7019	-0.000957
343.9158	-0.000197
344.1297	0.001091
344.3437	-0.000915
344.5577	0.000310
344.7717	0.000500
344.9857	0.000014
345.1997	0.000225
345.4137	-0.000577
345.6277	-0.000767
345.8418	-0.001020
346.0559	-0.001400
346.2699	0.000816
346.4840	0.000500
346.6981	0.000753
346.9123	-0.000873
347.1264	0.000985
347.3406	0.000457
347.5547	0.000478
347.7689	0.000077
347.9831	0.000732
348.1973	-0.000155
348.4115	0.000943
348.6257	0.000415
348.8400	-0.000176
349.0542	0.000880
349.2685	-0.000070
349.4828	-0.000915
349.6971	0.000985
349.9114	-0.001189
350.1257	-0.000556
350.3400	0.000077
350.5544	-0.000239
350.7687	0.000668
350.9831	-0.000007
351.1975	-0.000535
351.4119	-0.000450
351.6263	0.000267
351.8407	0.000816
352.0552	-0.001126
352.2696	-0.000239
352.4841	-0.000999
352.6986	0.000478
352.9131	0.000500
353.1276	0.000457
353.3421	-0.000155
353.5566	-0.000324
353.7712	0.000288
353.9858	0.000816
354.2003	0.001112
354.4149	0.001260
354.6295	0.000922
354.8441	-0.001126
355.0588	-0.000767
355.2734	-0.000429
355.4881	0.000647
355.7027	0.001450
355.9174	-0.001442
356.1321	0.000816
356.3468	0.000753
356.5615	0.001217
356.7763	-0.000345
356.9910	0.000605
357.2058	0.000246
357.4206	0.000310
357.6353	0.000837
357.8501	0.000880
358.0650	0.001260
358.2798	-0.001063
358.4946	-0.000155
358.7095	-0.000134
358.9243	0.000120
359.1392	0.000288
359.3541	0.000457
359.5690	0.000858
359.7839	0.000943
359.9989	0.000394
360.2138	0.000985
360.4288	0.001428
360.6438	-0.000070
360.8587	0.001260
361.0737	0.000310
361.2888	0.000436
361.5038	0.000647
361.7188	0.000267
361.9339	0.001450
362.1489	0.001070
362.3640	-0.000408
362.5791	0.000837
362.7942	0.000690
363.0093	-0.000704
363.2245	0.000711
363.4396	0.000584
363.6548	-0.000619
363.8699	-0.000556
364.0851	0.000837
364.3003	0.000183
364.5155	0.000690
364.7308	0.000352
364.9460	0.002357
365.1612	0.001260
365.3765	-0.000260
365.5918	-0.000070
365.8071	0.000331
366.0224	-0.000788
366.2377	-0.000873
366.4530	0.001112
366.6684	-0.001063
366.8837	-0.000471
367.0991	0.000605
367.3145	0.000922
367.5299	0.000457
367.7453	0.001787
367.9607	0.000478
368.1761	0.000964
368.3916	-0.001822
368.6070	-0.000683
368.8225	-0.000197
369.0380	0.000120
369.2535	-0.000873
369.4690	0.000225
369.6845	0.000922
369.9001	-0.000324
370.1156	0.000162
370.3312	0.000795
370.5468	-0.000704
370.7624	-0.000324
370.9780	0.000837
371.1936	0.001787
371.4092	0.000352
371.6249	0.000563
371.8405	0.001597
372.0562	0.000690
372.2719	-0.000936
372.4876	0.000352
372.7033	0.000880
372.9190	0.001302
373.1348	0.001154
373.3505	0.001027
373.5663	-0.000387
373.7820	0.000394
373.9978	-0.000936
374.2136	0.001534
374.4294	0.001006
374.6453	0.001618
374.8611	-0.000619
375.0770	0.000901
375.2928	0.000331
375.5087	0.001175
375.7246	0.000457
375.9405	0.000436
376.1564	0.000837
376.3724	0.000774
376.5883	-0.000429
376.8043	-0.000598
377.0203	0.000521
377.2362	-0.000851
377.4522	-0.000113
377.6682	0.001154
377.8843	-0.000725
378.1003	-0.000704
378.3164	-0.000809
378.5324	-0.000239
378.7485	0.001091
378.9646	-0.000155
379.1807	0.000183
379.3968	0.000690
379.6129	0.000816
379.8291	-0.000091
380.0452	-0.000619
380.2614	0.000795
380.4776	0.000964
380.6938	0.000584
380.9100	0.001323
381.1262	0.000774
381.3424	0.000858
381.5587	0.001260
381.7749	-0.000936
381.9912	0.000943
382.2075	0.000099
382.4238	0.002146
382.6401	0.000014
382.8564	0.000331
383.0728	0.002442
383.2891	0.002505
383.5055	0.000816
383.7219	0.001618
383.9382	0.000922
384.1546	0.001154
384.3711	0.000732
384.5875	0.000521
384.8039	-0.000957
385.0204	0.000267
385.2368	0.001492
385.4533	0.000162
385.6698	0.001070
385.8863	0.001471
386.1028	0.001513
386.3194	0.002231
386.5359	0.001471
386.7525	0.000647
386.9690	0.000246
387.1856	0.001365
387.4022	0.001217
387.6188	0.001682
387.8355	0.000795
388.0521	0.002209
388.2687	0.003476
388.4854	0.002336
388.7021	0.002019
388.9188	0.002273
389.1355	0.001534
389.3522	0.002062
389.5689	0.002632
389.7856	0.003075
390.0024	0.003603
390.2192	0.002737
390.4359	0.002209
390.6527	0.003286
390.8695	0.003835
391.0863	0.004489
391.3032	0.003645
391.5200	0.004933
391.7369	0.005693
391.9537	0.005524
392.1706	0.005587
392.3875	0.006157
392.6044	0.005883
392.8213	0.007867
393.0383	0.007149
393.2552	0.008606
393.4722	0.008331
393.6891	0.008817
393.9061	0.007740
394.1231	0.008099
394.3401	0.008965
394.5572	0.007825
394.7742	0.009345
394.9912	0.009070
395.2083	0.010653
395.4254	0.009915
395.6425	0.010231
395.8596	0.011793
396.0767	0.010316
396.2938	0.012722
396.5109	0.012194
396.7281	0.012659
396.9453	0.012215
397.1624	0.012617
397.3796	0.011645
397.5968	0.014960
397.8140	0.013946
398.0313	0.016627
398.2485	0.015255
398.4658	0.016902
398.6830	0.016923
398.9003	0.018675
399.1176	0.015741
399.3349	0.014685
399.5522	0.019076
399.7696	0.017092
399.9869	0.016902
400.2043	0.019034
400.4216	0.018358
400.6390	0.017493
400.8564	0.018759
401.0738	0.019857
401.2912	0.018907
401.5087	0.020343
401.7261	0.019224
401.9436	0.020364
402.1610	0.019688
402.3785	0.020406
402.5960	0.018401
402.8135	0.021567
403.0310	0.020617
403.2486	0.021863
403.4661	0.020364
403.6837	0.021250
403.9013	0.021483
404.1189	0.022601
404.3365	0.022454
404.5541	0.023340
404.7717	0.023002
404.9893	0.023425
405.2070	0.024860
405.4246	0.023805
405.6423	0.024206
405.8600	0.026296
406.0777	0.024860
406.2954	0.024839
406.5131	0.023868
406.7309	0.025641
406.9486	0.023847
407.1664	0.025008
407.3842	0.024375
407.6020	0.024016
407.8198	0.025346
408.0376	0.025156
408.2554	0.027351
408.4733	0.026253
408.6911	0.025768
408.9090	0.026338
409.1269	0.025705
409.3448	0.024058
409.5627	0.025958
409.7806	0.026992
409.9985	0.026739
410.2165	0.027731
410.4344	0.024987
410.6524	0.027436
410.8704	0.026760
411.0884	0.026232
411.3064	0.027330
411.5244	0.027562
411.7424	0.027034
411.9605	0.028871
412.1785	0.027393
412.3966	0.029357
412.6147	0.028554
412.8328	0.028111
413.0509	0.029314
413.2690	0.028660
413.4871	0.030686
413.7053	0.029441
413.9234	0.029082
414.1416	0.028069
414.3598	0.026211
414.5780	0.027077
414.7962	0.030011
415.0144	0.026274
415.2326	0.029167
415.4509	0.028027
415.6692	0.029230
415.8874	0.030053
416.1057	0.029314
416.3240	0.028850
416.5423	0.027436
416.7606	0.030454
416.9790	0.029335
417.1973	0.028871
417.4157	0.028977
417.6341	0.028449
417.8524	0.029441
418.0708	0.029019
418.2893	0.029061
418.5077	0.030496
418.7261	0.029399
418.9446	0.029948
419.1630	0.030855
419.3815	0.029631
419.6000	0.030475
419.8185	0.028554
420.0370	0.032523
420.2555	0.030328
420.4741	0.032185
420.6926	0.033283
420.9112	0.033768
421.1298	0.034254
421.3483	0.034127
421.5669	0.036724
421.7856	0.035816
422.0042	0.035584
422.2228	0.038011
422.4415	0.034571
422.6601	0.034993
422.8788	0.034381
423.0975	0.034296
423.3162	0.034972
423.5349	0.033093
423.7536	0.033051
423.9724	0.033262
424.1911	0.032396
424.4099	0.033051
424.6287	0.031552
424.8475	0.033177
425.0663	0.033536
425.2851	0.031087
425.5039	0.031847
425.7228	0.032122
425.9416	0.029040
426.1605	0.030222
426.3793	0.029504
426.5982	0.028702
426.8171	0.028850
427.0361	0.031320
427.2550	0.030750
427.4739	0.033895
427.6929	0.032544
427.9118	0.032650
428.1308	0.028892
428.3498	0.030328
428.5688	0.028892
428.7878	0.031805
429.0068	0.031087
429.2259	0.030623
429.4449	0.033768
429.6640	0.034613
429.8831	0.036344
430.1022	0.034571
430.3213	0.034803
430.5404	0.036259
430.7595	0.037864
430.9787	0.033958
431.1978	0.033747
431.4170	0.034296
431.6362	0.030876
431.8553	0.030475
432.0745	0.028449
432.2938	0.027098
432.5130	0.029230
432.7322	0.028428
432.9515	0.028069
433.1707	0.028132
433.3900	0.028850
433.6093	0.032502
433.8286	0.033832
434.0479	0.037779
434.2673	0.031805
434.4866	0.032185
434.7059	0.030813
434.9253	0.030222
435.1447	0.029694
435.3641	0.030053
435.5835	0.029040
435.8029	0.028744
436.0223	0.032080
436.2418	0.030138
436.4612	0.029103
436.6807	0.031404
436.9001	0.031784
437.1196	0.030306
437.3391	0.029610
437.5586	0.030222
437.7782	0.030412
437.9977	0.030518
438.2173	0.028723
438.4368	0.030433
438.6564	0.029568
438.8760	0.029293
439.0956	0.031742
439.3152	0.032101
439.5348	0.029631
439.7545	0.030180
439.9741	0.029061
440.1938	0.028913
440.4135	0.027393
440.6331	0.029230
440.8528	0.031172
441.0725	0.031109
441.2923	0.032333
441.5120	0.034803
441.7318	0.034655
441.9515	0.037019
442.1713	0.032966
442.3911	0.034676
442.6109	0.034254
442.8307	0.031531
443.0505	0.032396
443.2703	0.031700
443.4902	0.031679
443.7101	0.034908
443.9299	0.032987
444.1498	0.031425
444.3697	0.031636
444.5896	0.032840
444.8095	0.031932
445.0295	0.032396
445.2494	0.031489
445.4694	0.030053
445.6894	0.030138
445.9093	0.031995
446.1293	0.032840
446.3493	0.031320
446.5694	0.029694
446.7894	0.030708
447.0094	0.030771
447.2295	0.030349
447.4496	0.029504
447.6696	0.030370
447.8897	0.030180
448.1098	0.028280
448.3300	0.027372
448.5501	0.031045
448.7702	0.029631
448.9904	0.028027
449.2106	0.028533
449.4307	0.027647
449.6509	0.027604
449.8711	0.029167
450.0914	0.026697
450.3116	0.026697
450.5318	0.026464
450.7521	0.026380
450.9724	0.026317
451.1926	0.024565
451.4129	0.024649
451.6332	0.025726
451.8535	0.024881
452.0739	0.024459
452.2942	0.023404
452.5146	0.025493
452.7349	0.023382
452.9553	0.021863
453.1757	0.024945
453.3961	0.024396
453.6165	0.022601
453.8369	0.021778
454.0574	0.020596
454.2778	0.022243
454.4983	0.021863
454.7188	0.020068
454.9393	0.020892
455.1597	0.020702
455.3803	0.021947
455.6008	0.022770
455.8213	0.020786
456.0419	0.019414
456.2624	0.022031
456.4830	0.020047
456.7036	0.020279
456.9242	0.021630
457.1448	0.021272
457.3654	0.019773
457.5860	0.021504
457.8067	0.020849
458.0274	0.022559
458.2480	0.020870
458.4687	0.020892
458.6894	0.019583
458.9101	0.019899
459.1308	0.019562
459.3516	0.020702
459.5723	0.021229
459.7931	0.020870
460.0138	0.019730
460.2346	0.018443
460.4554	0.018063
460.6762	0.021082
460.8970	0.020047
461.1178	0.018865
461.3387	0.018992
461.5595	0.018464
461.7804	0.018168
462.0013	0.015445
462.2222	0.017366
462.4431	0.015424
462.6640	0.016838
462.8849	0.016036
463.1059	0.015741
463.3268	0.015509
463.5478	0.015614
463.7687	0.017746
463.9897	0.018021
464.2107	0.017282
464.4317	0.015931
464.6528	0.017387
464.8738	0.018295
465.0948	0.016332
465.3159	0.017282
465.5370	0.020047
465.7581	0.018865
465.9792	0.017240
466.2003	0.017620
466.4214	0.016543
466.6425	0.014601
466.8637	0.016522
467.0848	0.015192
467.3060	0.014200
467.5272	0.012469
467.7484	0.015255
467.9696	0.012743
468.1908	0.013229
468.4120	0.011076
468.6333	0.011603
468.8545	0.011941
469.0758	0.013018
469.2970	0.013313
469.5183	0.012131
469.7396	0.011814
469.9610	0.011477
470.1823	0.011223
470.4036	0.010020
470.6250	0.011878
470.8463	0.010400
471.0677	0.008880
471.2891	0.009619
471.5105	0.010231
471.7319	0.009323
471.9533	0.010717
472.1748	0.009197
472.3962	0.009197
472.6177	0.010442
472.8391	0.010717
473.0606	0.010104
473.2821	0.011139
473.5036	0.010358
473.7251	0.009619
473.9467	0.010358
474.1682	0.010801
474.3898	0.009682
474.6113	0.009471
474.8329	0.011012
475.0545	0.010316
475.2761	0.010337
475.4977	0.008563
475.7193	0.010379
475.9410	0.009091
476.1626	0.009682
476.3843	0.008753
476.6060	0.009703
476.8277	0.007360
477.0494	0.008247
477.2711	0.009028
477.4928	0.007466
477.7145	0.008732
477.9363	0.010421
478.1580	0.009936
478.3798	0.008205
478.6016	0.008162
478.8234	0.008880
479.0452	0.007445
479.2670	0.007508
479.4888	0.007318
479.7107	0.007234
479.9325	0.007297
480.1544	0.009197
480.3763	0.008078
480.5982	0.008205
480.8201	0.006474
481.0420	0.008226
481.2639	0.006938
481.4859	0.007740
481.7078	0.007339
481.9298	0.008331
482.1517	0.007677
482.3737	0.007529
482.5957	0.005545
482.8177	0.007065
483.0398	0.007508
483.2618	0.005376
483.4838	0.007065
483.7059	0.008141
483.9280	0.007402
484.1501	0.007381
484.3721	0.006558
484.5943	0.008268
484.8164	0.007529
485.0385	0.008036
485.2606	0.007782
485.4828	0.008247
485.7050	0.014643
485.9271	0.019477
486.1493	0.020364
486.3715	0.017535
486.5937	0.014348
486.8160	0.012870
487.0382	0.011793
487.2605	0.011413
487.4827	0.010231
487.7050	0.007782
487.9273	0.006832
488.1496	0.005038
488.3719	0.005439
488.5942	0.006305
488.8165	0.004489
489.0389	0.005249
489.2612	0.004806
489.4836	0.005228
489.7060	0.005714
489.9284	0.004384
490.1508	0.004890
490.3732	0.004088
490.5956	0.004912
490.8180	0.005925
491.0405	0.004848
491.2630	0.004510
491.4854	0.005059
491.7079	0.005376
491.9304	0.004384
492.1529	0.003159
492.3755	0.004215
492.5980	0.005777
492.8205	0.003033
493.0431	0.005735
493.2657	0.004553
493.4882	0.004996
493.7108	0.003856
493.9334	0.003877
494.1561	0.003750
494.3787	0.004700
494.6013	0.003962
494.8240	0.005059
495.0466	0.003940
495.2693	0.002969
495.4920	0.002653
495.7147	0.004637
495.9374	0.003518
496.1601	0.003814
496.3829	0.004025
496.6056	0.005904
496.8284	0.004067
497.0511	0.003434
497.2739	0.003835
497.4967	0.005481
497.7195	0.002969
497.9423	0.004194
498.1652	0.002526
498.3880	0.004405
498.6109	0.004194
498.8337	0.003497
499.0566	0.004130
499.2795	0.004827
499.5024	0.002822
499.7253	0.004743
499.9482	0.004278
500.1712	0.003772
500.3941	0.003012
500.6171	0.004489
500.8400	0.003075
501.0630	0.003814
501.2860	0.003750
501.5090	0.004088
501.7320	0.004975
501.9551	0.003286
502.1781	0.002779
502.4012	0.002125
502.6242	0.002779
502.8473	0.002885
503.0704	0.002991
503.2935	0.004004
503.5166	0.003476
503.7397	0.002505
503.9628	0.002146
504.1860	0.003096
504.4092	0.003117
504.6323	0.003265
504.8555	0.003328
505.0787	0.002674
505.3019	0.002083
505.5251	0.003202
505.7483	0.001935
505.9716	0.001597
506.1948	0.002991
506.4181	0.003877
506.6414	0.004088
506.8647	0.004130
507.0880	0.004996
507.3113	0.002885
507.5346	0.001935
507.7579	0.003413
507.9813	0.002463
508.2046	0.002779
508.4280	0.002294
508.6514	0.002611
508.8748	0.002695
509.0982	0.004278
509.3216	0.002568
509.5450	0.004743
509.7685	0.004194
509.9919	0.003455
510.2154	0.002294
510.4388	0.003223
510.6623	0.002653
510.8858	0.002209
511.1093	0.003729
511.3329	0.002695
511.5564	0.001323
511.7799	0.004152
512.0035	0.003940
512.2270	0.004363
512.4506	0.003286
512.6742	0.002822
512.8978	0.003054
513.1214	0.004278
513.3451	0.002611
513.5687	0.004743
513.7923	0.001555
514.0160	0.003244
514.2397	0.001471
514.4634	0.004700
514.6871	0.003434
514.9108	0.002885
515.1345	0.002885
515.3582	0.002843
515.5819	0.002716
515.8057	0.003075
516.0295	0.003349
516.2532	0.004130
516.4770	0.003096
516.7008	0.002716
516.9246	0.002526
517.1485	0.002273
517.3723	0.002526
517.5961	0.003286
517.8200	0.001112
518.0439	0.002589
518.2677	-0.000239
518.4916	0.003497
518.7155	0.003687
518.9395	0.004637
519.1634	0.002906
519.3873	0.003413
519.6113	0.002357
519.8352	0.003687
520.0592	0.003054
520.2832	0.003518
520.5072	0.002505
520.7312	0.002716
520.9552	0.004194
521.1792	0.003729
521.4033	0.003898
521.6273	0.003750
521.8514	0.003455
522.0755	0.002019
522.2996	0.002716
522.5237	0.002969
522.7478	0.003223
522.9719	0.002484
523.1960	0.002547
523.4202	0.003666
523.6443	0.004046
523.8685	0.003434
524.0927	0.003814
524.3169	0.003539
524.5411	0.004806
524.7653	0.001851
524.9895	0.004278
525.2138	0.002083
525.4380	0.003835
525.6623	0.004152
525.8865	0.003666
526.1108	0.003096
526.3351	0.004067
526.5594	0.004785
526.7837	0.004637
527.0081	0.003645
527.2324	0.005566
527.4568	0.002779
527.6811	0.005355
527.9055	0.005376
528.1299	0.004553
528.3543	0.004489
528.5787	0.004299
528.8031	0.003835
529.0276	0.005249
529.2520	0.005629
529.4765	0.005608
529.7009	0.005165
529.9254	0.005798
530.1499	0.004447
530.3744	0.005228
530.5989	0.005418
530.8234	0.005693
531.0480	0.005228
531.2725	0.006326
531.4971	0.005503
531.7217	0.005861
531.9462	0.005397
532.1708	0.005207
532.3954	0.004236
532.6200	0.004489
532.8447	0.004637
533.0693	0.006030
533.2940	0.005967
533.5186	0.004468
533.7433	0.006621
533.9680	0.007782
534.1927	0.006643
534.4174	0.007487
534.6421	0.005819
534.8668	0.008247
535.0916	0.006685
535.3163	0.007360
535.5411	0.008162
535.7659	0.009112
535.9907	0.006051
536.2155	0.006600
536.4403	0.007276
536.6651	0.006769
536.8899	0.007065
537.1148	0.008986
537.3396	0.006727
537.5645	0.007508
537.7894	0.008986
538.0143	0.008627
538.2392	0.009598
538.4641	0.009049
538.6890	0.010801
538.9139	0.009049
539.1389	0.010484
539.3638	0.009577
539.5888	0.010506
539.8138	0.010548
540.0388	0.012427
540.2638	0.011519
540.4888	0.009598
540.7138	0.008986
540.9389	0.011751
541.1639	0.010949
541.3890	0.010147
541.6140	0.012131
541.8391	0.011582
542.0642	0.011793
542.2893	0.013187
542.5144	0.013503
542.7396	0.012047
542.9647	0.014179
543.1899	0.013271
543.4150	0.012912
543.6402	0.015044
543.8654	0.014094
544.0906	0.014643
544.3158	0.013566
544.5410	0.013630
544.7662	0.015466
544.9915	0.015656
545.2167	0.016269
545.4420	0.013524
545.6673	0.015487
545.8926	0.012975
546.1179	0.015129
546.3432	0.014495
546.5685	0.014094
546.7938	0.013799
547.0192	0.014326
547.2445	0.015846
547.4699	0.016290
547.6953	0.016395
547.9206	0.019435
548.1460	0.018211
548.3715	0.020343
548.5969	0.018928
548.8223	0.019224
549.0478	0.020089
549.2732	0.018274
549.4987	0.018189
549.7242	0.019013
549.9496	0.017472
550.1751	0.019435
550.4007	0.018443
550.6262	0.018907
550.8517	0.017683
551.0773	0.018696
551.3028	0.018000
551.5284	0.016944
551.7540	0.016902
551.9796	0.021398
552.2052	0.024269
552.4308	0.023847
552.6564	0.023298
552.8820	0.021820
553.1077	0.022137
553.3333	0.021968
553.5590	0.023045
553.7847	0.024860
554.0104	0.022221
554.2361	0.022390
554.4618	0.021757
554.6875	0.021588
554.9132	0.023108
555.1390	0.023509
555.3648	0.023974
555.5905	0.025831
555.8163	0.025536
556.0421	0.024902
556.2679	0.024375
556.4937	0.027267
556.7195	0.025135
556.9454	0.026781
557.1712	0.025156
557.3971	0.024311
557.6230	0.026085
557.8488	0.027436
558.0747	0.026443
558.3006	0.026486
558.5266	0.025599
558.7525	0.024607
558.9784	0.026591
559.2044	0.024818
559.4303	0.025958
559.6563	0.025536
559.8823	0.027013
560.1083	0.027604
560.3343	0.030855
560.5603	0.031657
560.7863	0.033325
561.0124	0.035119
561.2384	0.033262
561.4645	0.034993
561.6905	0.034085
561.9166	0.032312
562.1427	0.034212
562.3688	0.034212
562.5949	0.033388
562.8211	0.033452
563.0472	0.034001
563.2733	0.034613
563.4995	0.036660
563.7257	0.038687
563.9519	0.036956
564.1781	0.039384
564.4043	0.038518
564.6305	0.040291
564.8567	0.041748
565.0829	0.038223
565.3092	0.040671
565.5355	0.041283
565.7617	0.040988
565.9880	0.040587
566.2143	0.043078
566.4406	0.042740
566.6669	0.044049
566.8932	0.044218
567.1196	0.046519
567.3459	0.051332
567.5723	0.054181
567.7987	0.058150
568.0250	0.057263
568.2514	0.058277
568.4778	0.061591
568.7043	0.067734
568.9307	0.069486
569.1571	0.072378
569.3836	0.077867
569.6100	0.083883
569.8365	0.094670
570.0630	0.103198
570.2895	0.106956
570.5160	0.105119
570.7425	0.106343
570.9690	0.112212
571.1956	0.120550
571.4221	0.128973
571.6487	0.127643
571.8752	0.135306
572.1018	0.139781
572.3284	0.138050
572.5550	0.132456
572.7816	0.121289
573.0082	0.121500
573.2349	0.129226
573.4615	0.143095
573.6882	0.150188
573.9149	0.155867
574.1415	0.160490
574.3682	0.170242
574.5949	0.174865
574.8216	0.171403
575.0484	0.175456
575.2751	0.175942
575.5018	0.177420
575.7286	0.169187
575.9554	0.159688
576.1821	0.162052
576.4089	0.167308
576.6357	0.170116
576.8626	0.186898
577.0894	0.187953
577.3162	0.190128
577.5431	0.199606
577.7699	0.218942
577.9968	0.250945
578.2237	0.247103
578.4505	0.227956
578.6774	0.215354
578.9044	0.205791
579.1313	0.197516
579.3582	0.196017
579.5851	0.204018
579.8121	0.209084
580.0391	0.211258
580.2660	0.214362
580.4930	0.209464
580.7200	0.208113
580.9470	0.205876
581.1741	0.245857
581.4011	0.293882
581.6281	0.324385
581.8552	0.324596
582.0822	0.317060
582.3093	0.304057
582.5364	0.290694
582.7635	0.265574
582.9906	0.240559
583.2177	0.223924
583.4449	0.209717
583.6720	0.202245
583.8991	0.197094
584.1263	0.198318
584.3535	0.203026
584.5807	0.202012
584.8079	0.214446
585.0351	0.227281
585.2623	0.236738
585.4895	0.239947
585.7167	0.239292
585.9440	0.229223
586.1713	0.221011
586.3985	0.208958
586.6258	0.199669
586.8531	0.204841
587.0804	0.215248
587.3077	0.226837
587.5350	0.234036
587.7624	0.228927
587.9897	0.222742
588.2171	0.210752
588.4445	0.203005
588.6718	0.201548
588.8992	0.190845
589.1266	0.179298
589.3540	0.168765
589.5815	0.165303
589.8089	0.166696
590.0363	0.163466
590.2638	0.158569
590.4913	0.151940
590.7187	0.147676
590.9462	0.137860
591.1737	0.132266
591.4012	0.132731
591.6288	0.134419
591.8563	0.134335
592.0838	0.135369
592.3114	0.138895
592.5389	0.153524
592.7665	0.184871
592.9941	0.199310
593.2217	0.208725
593.4493	0.205833
593.6769	0.199585
593.9046	0.196271
594.1322	0.185505
594.3598	0.175224
594.5875	0.174929
594.8152	0.185315
595.0429	0.196672
595.2705	0.198550
595.4983	0.195363
595.7260	0.186497
595.9537	0.174633
596.1814	0.164353
596.4092	0.155022
596.6369	0.146811
596.8647	0.141027
597.0925	0.145080
597.3203	0.155740
597.5481	0.155043
597.7759	0.151560
598.0037	0.148098
598.2315	0.143074
598.4594	0.146220
598.6872	0.159223
598.9151	0.178623
599.1430	0.188249
599.3709	0.186497
599.5988	0.178137
599.8267	0.180037
600.0546	0.183816
600.2825	0.191648
600.5105	0.189157
600.7384	0.183985
600.9664	0.187320
601.1944	0.188861
601.4223	0.184681
601.6503	0.179805
601.8783	0.169947
602.1064	0.168469
602.3344	0.167034
602.5624	0.169588
602.7905	0.173303
603.0185	0.177166
603.2466	0.180143
603.4747	0.194645
603.7028	0.192175
603.9309	0.188882
604.1590	0.176512
604.3871	0.170559
604.6152	0.166253
604.8434	0.158463
605.0715	0.157176
605.2997	0.161545
605.5279	0.166590
605.7561	0.174274
605.9843	0.178222
606.2125	0.175773
606.4407	0.169166
606.6689	0.159498
606.8972	0.157640
607.1254	0.153312
607.3537	0.159751
607.5819	0.161292
607.8102	0.156289
608.0385	0.154009
608.2668	0.152574
608.4951	0.147254
608.7235	0.145333
608.9518	0.146220
609.1801	0.139486
609.4085	0.132055
609.6369	0.136193
609.8653	0.141871
610.0936	0.149703
610.3220	0.154495
610.5505	0.149281
610.7789	0.143285
611.0073	0.141998
611.2357	0.140182
611.4642	0.138240
611.6927	0.141174
611.9211	0.136910
612.1496	0.136340
612.3781	0.132878
612.6066	0.130218
612.8351	0.130218
613.0637	0.132435
613.2922	0.129606
613.5208	0.128213
613.7493	0.128150
613.9779	0.128108
614.2065	0.126567
614.4351	0.129290
614.6637	0.127685
614.8923	0.128086
615.1209	0.126229
615.3495	0.130472
615.5782	0.131527
615.8068	0.133047
616.0355	0.124350
616.2642	0.122661
616.4929	0.117173
616.7216	0.114640
616.9503	0.111473
617.1790	0.109995
617.4077	0.111621
617.6365	0.108856
617.8652	0.111368
618.0940	0.111705
618.3227	0.109932
618.5515	0.101108
618.7803	0.098322
619.0091	0.091736
619.2379	0.091588
619.4667	0.092327
619.6956	0.090575
619.9244	0.093931
620.1533	0.095957
620.3821	0.098258
620.6110	0.095620
620.8399	0.090680
621.0688	0.080611
621.2977	0.075354
621.5266	0.074468
621.7556	0.080442
621.9845	0.079471
622.2135	0.081265
622.4424	0.087704
622.6714	0.083841
622.9004	0.087894
623.1294	0.093087
623.3584	0.089139
623.5874	0.090237
623.8164	0.089878
624.0454	0.089012
624.2745	0.089941
624.5035	0.091630
624.7326	0.090152
624.9617	0.088675
625.1908	0.088780
625.4199	0.085107
625.6490	0.082511
625.8781	0.080252
626.1072	0.078964
626.3364	0.076494
626.5655	0.074595
626.7947	0.071892
627.0238	0.070246
627.2530	0.071238
627.4822	0.069613
627.7114	0.071850
627.9406	0.067628
628.1698	0.064525
628.3991	0.058847
628.6283	0.060894
628.8576	0.059058
629.0868	0.063174
629.3161	0.060113
629.5454	0.066277
629.7747	0.062140
630.0040	0.061232
630.2333	0.062900
630.4626	0.058868
630.6920	0.058129
630.9213	0.056989
631.1507	0.056461
631.3801	0.052429
631.6094	0.054604
631.8388	0.054561
632.0682	0.054245
632.2976	0.053506
632.5271	0.051881
632.7565	0.047363
632.9859	0.047426
633.2154	0.045759
633.4448	0.046244
633.6743	0.045611
633.9038	0.043901
634.1333	0.044028
634.3628	0.043310
634.5923	0.041853
634.8218	0.041832
635.0514	0.042170
635.2809	0.041009
635.5105	0.043141
635.7400	0.041516
635.9696	0.042888
636.1992	0.044049
636.4288	0.044471
636.6584	0.044197
636.8880	0.046603
637.1177	0.043964
637.3473	0.044830
637.5770	0.042972
637.8066	0.041283
638.0363	0.040692
638.2660	0.043880
638.4957	0.043690
638.7254	0.045569
638.9551	0.042677
639.1848	0.041769
639.4145	0.040228
639.6443	0.038819
639.8740	0.039668
640.1038	0.037803
640.3336	0.039715
640.5633	0.035423
640.7931	0.038769
641.0229	0.034316
641.2528	0.032870
641.4826	0.033486
641.7124	0.034904
641.9423	0.031985
642.1721	0.030193
642.4020	0.031112
642.6319	0.031555
642.8617	0.031729
643.0916	0.030015
643.3216	0.028754
643.5515	0.030373
643.7814	0.028769
644.0113	0.028736
644.2413	0.027686
644.4712	0.028432
644.7012	0.026174
644.9312	0.025729
645.1612	0.025339
645.3912	0.027294
645.6212	0.027827
645.8512	0.025048
646.0812	0.026314
646.3113	0.024491
646.5413	0.027064
646.7714	0.024505
647.0015	0.023318
647.2316	0.025343
647.4616	0.022876
647.6918	0.026410
647.9219	0.027979
648.1520	0.029878
648.3821	0.028707
648.6123	0.032372
648.8424	0.034842
649.0726	0.033854
649.3028	0.034263
649.5329	0.032672
649.7631	0.032834
649.9933	0.031417
650.2236	0.029220
650.4538	0.030267
650.6840	0.029573
650.9143	0.029804
651.1445	0.028405
651.3748	0.029787
651.6051	0.030009
651.8354	0.031297
652.0657	0.030751
652.2960	0.030625
652.5263	0.030539
652.7566	0.033399
652.9870	0.034410
653.2173	0.032216
653.4477	0.032378
653.6780	0.033743
653.9084	0.032198
654.1388	0.032092
654.3692	0.034407
654.5996	0.036487
654.8300	0.041494
655.0605	0.066917
655.2909	0.190520
655.5213	0.530148
655.7518	0.966630
655.9823	1.000000
656.2128	1.000000
656.4433	1.000000
656.6738	1.000000
656.9043	1.000000
657.1348	0.869676
657.3653	0.717383
657.5959	0.618628
657.8264	0.536576
658.0570	0.489094
658.2875	0.446732
658.5181	0.415880
658.7487	0.385450
658.9793	0.374244
659.2099	0.336638
659.4406	0.256906
659.6712	0.170656
659.9018	0.100077
660.1325	0.063349
660.3632	0.039489
660.5938	0.031470
660.8245	0.027306
661.0552	0.025573
661.2859	0.025042
661.5166	0.023518
661.7474	0.021765
661.9781	0.023240
662.2088	0.023506
662.4396	0.022907
662.6704	0.023264
662.9011	0.023772
663.1319	0.022581
663.3627	0.021126
663.5935	0.021787
663.8243	0.021620
664.0552	0.022141
664.2860	0.021708
664.5168	0.023681
664.7477	0.022623
664.9786	0.022345
665.2094	0.025541
665.4403	0.025394
665.6712	0.023769
665.9021	0.023307
666.1330	0.022945
666.3640	0.021736
666.5949	0.022704
666.8259	0.019722
667.0568	0.021688
667.2878	0.020872
667.5188	0.021926
667.7497	0.020638
667.9807	0.021492
668.2117	0.022022
668.4428	0.020596
668.6738	0.022095
668.9048	0.023995
669.1359	0.021989
669.3669	0.021673
669.5980	0.019709
669.8291	0.021187
670.0602	0.021377
670.2913	0.020659
670.5224	0.021440
670.7535	0.021166
670.9846	0.021461
671.2157	0.024501
671.4469	0.026844
671.6781	0.028343
671.9092	0.029441
672.1404	0.030349
672.3716	0.032692
672.6028	0.034571
672.8340	0.034655
673.0652	0.033557
673.2964	0.031425
673.5277	0.031130
673.7589	0.028892
673.9902	0.030306
674.2214	0.028934
674.4527	0.027942
674.6840	0.026866
674.9153	0.027963
675.1466	0.026042
675.3779	0.027330
675.6093	0.026929
675.8406	0.026929
676.0719	0.024121
676.3033	0.027436
676.5347	0.025219
676.7661	0.026380
676.9974	0.022791
677.2288	0.024227
677.4602	0.026085
677.6917	0.028111
677.9231	0.028090
678.1545	0.027710
678.3860	0.026148
678.6174	0.030306
678.8489	0.030180
679.0804	0.030581
679.3119	0.030982
679.5434	0.034296
679.7749	0.035858
680.0064	0.035288
680.2379	0.036618
680.4694	0.033262
680.7010	0.036069
680.9325	0.034275
681.1641	0.030982
681.3957	0.035141
681.6273	0.035521
681.8589	0.035753
682.0905	0.033135
682.3221	0.033494
682.5537	0.031890
682.7854	0.028343
683.0170	0.030180
683.2487	0.029546
683.4803	0.031784
683.7120	0.033072
683.9437	0.033874
684.1754	0.032439
684.4071	0.035246
684.6388	0.036660
684.8705	0.037948
685.1023	0.041706
685.3340	0.044281
685.5658	0.045970
685.7975	0.044914
686.0293	0.044640
686.2611	0.044471
686.4929	0.043796
686.7247	0.044007
686.9565	0.041642
687.1883	0.045252
687.4202	0.043500
687.6520	0.042951
687.8838	0.043120
688.1157	0.040249
688.3476	0.038835
688.5795	0.038054
688.8114	0.035901
689.0433	0.039742
689.2752	0.036597
689.5071	0.036027
689.7390	0.036998
689.9710	0.034929
690.2029	0.036259
690.4349	0.032882
690.6669	0.033621
690.8988	0.034697
691.1308	0.036470
691.3628	0.039552
691.5948	0.040165
691.8269	0.037821
692.0589	0.035858
692.2909	0.037336
692.5230	0.037716
692.7550	0.038370
692.9871	0.039109
693.2192	0.039215
693.4513	0.040144
693.6834	0.038687
693.9155	0.036196
694.1476	0.035816
694.3797	0.034824
694.6119	0.033114
694.8440	0.034676
695.0762	0.034465
695.3083	0.036682
695.5405	0.032185
695.7727	0.030750
696.0049	0.029800
696.2371	0.029758
696.4693	0.031700
696.7016	0.034908
696.9338	0.039785
697.1660	0.039426
697.3983	0.039616
697.6306	0.037484
697.8628	0.039004
698.0951	0.038054
698.3274	0.037758
698.5597	0.037631
698.7920	0.038180
699.0243	0.038138
699.2567	0.036323
699.4890	0.033452
699.7214	0.034106
699.9537	0.032903
700.1861	0.030306
700.4185	0.030454
700.6509	0.033642
700.8833	0.030053
701.1157	0.029905
701.3481	0.028808
701.5806	0.028449
701.8130	0.028660
702.0454	0.030898
702.2779	0.029948
702.5104	0.033114
702.7429	0.031995
702.9753	0.029314
703.2078	0.030095
703.4403	0.029842
703.6729	0.029019
703.9054	0.028512
704.1379	0.027963
704.3705	0.027267
704.6030	0.025557
704.8356	0.025810
705.0682	0.023995
705.3008	0.023995
705.5334	0.023974
705.7660	0.024586
705.9986	0.026127
706.2312	0.028048
706.4638	0.029230
706.6965	0.032396
706.9291	0.036048
707.1618	0.037399
707.3945	0.038518
707.6272	0.038180
707.8599	0.039236
708.0926	0.039785
708.3253	0.034803
708.5580	0.036470
708.7907	0.035711
709.0235	0.034254
709.2562	0.034127
709.4890	0.032924
709.7217	0.035014
709.9545	0.034549
710.1873	0.034887
710.4201	0.032734
710.6529	0.034929
710.8857	0.036344
711.1186	0.034381
711.3514	0.031362
711.5842	0.032312
711.8171	0.031805
712.0500	0.029610
712.2828	0.026781
712.5157	0.026950
712.7486	0.030285
712.9815	0.028533
713.2144	0.029314
713.4474	0.030792
713.6803	0.032354
713.9132	0.032818
714.1462	0.035858
714.3791	0.033410
714.6121	0.035141
714.8451	0.034444
715.0781	0.035204
715.3111	0.034613
715.5441	0.037526
715.7771	0.032734
716.0102	0.033916
716.2432	0.028850
716.4762	0.030919
716.7093	0.029568
716.9424	0.029462
717.1754	0.027583
717.4085	0.027626
717.6416	0.025029
717.8747	0.028259
718.1078	0.029525
718.3410	0.032016
718.5741	0.028280
718.8072	0.029124
719.0404	0.027583
719.2736	0.031087
719.5067	0.029145
719.7399	0.028765
719.9731	0.029736
720.2063	0.029568
720.4395	0.028913
720.6727	0.028512
720.9060	0.028280
721.1392	0.028639
721.3725	0.028913
721.6057	0.029103
721.8390	0.028723
722.0723	0.029779
722.3055	0.027710
722.5388	0.027626
722.7721	0.027816
723.0055	0.026887
723.2388	0.026697
723.4721	0.029272
723.7055	0.027942
723.9388	0.028385
724.1722	0.026866
724.4056	0.026971
724.6389	0.028850
724.8723	0.028871
725.1057	0.030138
725.3391	0.032249
725.5726	0.032439
725.8060	0.032861
726.0394	0.035204
726.2729	0.033621
726.5063	0.032481
726.7398	0.032185
726.9733	0.033536
727.2068	0.032249
727.4403	0.033177
727.6738	0.032502
727.9073	0.033093
728.1408	0.033494
728.3743	0.034951
728.6079	0.035098
728.8414	0.034001
729.0750	0.033072
729.3086	0.035879
729.5421	0.036829
729.7757	0.036386
730.0093	0.039616
730.2429	0.037927
730.4766	0.037948
730.7102	0.041537
730.9438	0.042634
731.1775	0.043289
731.4111	0.043204
731.6448	0.043669
731.8785	0.043036
732.1122	0.039954
732.3458	0.040207
732.5795	0.043943
732.8133	0.044513
733.0470	0.043268
733.2807	0.042149
733.5145	0.042930
733.7482	0.045315
733.9820	0.048714
734.2157	0.052999
734.4495	0.052683
734.6833	0.049960
734.9171	0.047975
735.1509	0.047258
735.3847	0.048820
735.6185	0.049601
735.8524	0.045991
736.0862	0.049263
736.3201	0.048524
736.5539	0.047785
736.7878	0.047236
737.0217	0.049727
737.2556	0.051036
737.4895	0.048313
737.7234	0.043732
737.9573	0.043880
738.1912	0.040312
738.4252	0.042444
738.6591	0.041980
738.8931	0.042634
739.1271	0.045315
739.3610	0.045379
739.5950	0.049263
739.8290	0.046054
740.0630	0.044935
740.2970	0.043120
740.5310	0.041473
740.7651	0.038413
740.9991	0.037378
741.2332	0.036956
741.4672	0.033768
741.7013	0.033600
741.9354	0.033367
742.1695	0.034972
742.4036	0.034908
742.6377	0.034887
742.8718	0.035647
743.1059	0.034254
743.3400	0.030264
743.5742	0.031383
743.8083	0.031383
744.0425	0.031130
744.2767	0.028449
744.5108	0.030180
744.7450	0.029990
744.9792	0.030961
745.2134	0.028428
745.4477	0.030159
745.6819	0.030116
745.9161	0.028829
746.1504	0.028005
746.3846	0.029019
746.6189	0.030285
746.8532	0.028428
747.0874	0.030201
747.3217	0.033937
747.5560	0.029736
747.7903	0.030708
748.0247	0.030264
748.2590	0.028301
748.4933	0.029631
748.7277	0.029546
748.9620	0.029905
749.1964	0.030771
749.4308	0.032502
749.6652	0.033346
749.8995	0.037188
750.1339	0.036724
750.3684	0.041199
750.6028	0.042128
750.8372	0.039278
751.0717	0.040122
751.3061	0.038814
751.5406	0.037758
751.7750	0.037505
752.0095	0.039975
752.2440	0.040798
752.4785	0.038729
752.7130	0.036449
752.9475	0.036808
753.1820	0.035014
753.4166	0.037505
753.6511	0.039046
753.8856	0.042592
754.1202	0.039806
754.3548	0.040629
754.5894	0.040629
754.8239	0.038856
755.0585	0.041832
755.2931	0.041051
755.5278	0.042212
755.7624	0.043458
755.9970	0.042867
756.2317	0.045505
756.4663	0.048777
756.7010	0.047849
756.9356	0.051859
757.1703	0.051564
757.4050	0.056588
757.6397	0.058467
757.8744	0.058952
758.1091	0.058572
758.3438	0.057833
758.5786	0.055216
758.8133	0.055786
759.0481	0.052640
759.2828	0.059206
759.5176	0.057749
759.7524	0.061507
759.9872	0.060641
760.2220	0.061232
760.4568	0.063026
760.6916	0.062625
760.9264	0.060345
761.1613	0.061823
761.3961	0.058509
761.6310	0.052535
761.8658	0.051036
762.1007	0.050445
762.3356	0.050213
762.5705	0.050128
762.8054	0.048503
763.0403	0.047891
763.2752	0.049390
763.5101	0.050867
763.7450	0.049200
763.9800	0.050952
764.2149	0.050487
764.4499	0.054751
764.6849	0.057855
764.9198	0.058509
765.1548	0.060662
765.3898	0.058741
765.6248	0.055997
765.8599	0.053295
766.0949	0.048735
766.3299	0.046139
766.5650	0.045041
766.8000	0.041368
767.0351	0.039848
767.2701	0.039299
767.5052	0.037589
767.7403	0.041220
767.9754	0.042444
768.2105	0.043563
768.4456	0.045590
768.6808	0.049305
768.9159	0.049812
769.1510	0.049917
769.3862	0.045970
769.6214	0.047680
769.8565	0.045252
770.0917	0.044598
770.3269	0.044387
770.5621	0.046350
770.7973	0.049221
771.0325	0.047574
771.2677	0.047954
771.5030	0.047996
771.7382	0.046688
771.9735	0.042444
772.2087	0.042255
772.4440	0.040946
772.6793	0.037990
772.9146	0.040291
773.1499	0.040376
773.3852	0.038307
773.6205	0.039552
773.8558	0.036386
774.0911	0.036829
774.3265	0.036069
774.5618	0.032692
774.7972	0.031172
775.0326	0.030370
775.2679	0.032460
775.5033	0.028871
775.7387	0.026739
775.9741	0.028153
776.2095	0.028850
776.4450	0.025219
776.6804	0.025747
776.9158	0.025113
777.1513	0.027647
777.3868	0.026760
777.6222	0.024121
777.8577	0.025789
778.0932	0.024375
778.3287	0.025177
778.5642	0.028259
778.7997	0.028195
779.0352	0.028660
779.2707	0.031467
779.5063	0.031657
779.7418	0.031045
779.9774	0.030180
780.2130	0.029188
780.4485	0.028259
780.6841	0.028174
780.9197	0.030032
781.1553	0.032333
781.3909	0.035373
781.6265	0.034444
781.8622	0.035162
782.0978	0.033980
782.3335	0.036048
782.5691	0.036006
782.8048	0.034170
783.0405	0.032354
783.2761	0.033283
783.5118	0.033600
783.7475	0.034655
783.9832	0.032671
784.2190	0.032607
784.4547	0.031256
784.6904	0.030729
784.9262	0.030961
785.1619	0.029715
785.3977	0.028850
785.6335	0.028385
785.8692	0.030053
786.1050	0.030306
786.3408	0.029357
786.5766	0.028259
786.8124	0.028090
787.0483	0.025430
787.2841	0.027837
787.5199	0.030032
787.7558	0.029948
787.9917	0.030855
788.2275	0.030243
788.4634	0.030433
788.6993	0.030180
788.9352	0.031594
789.1711	0.031066
789.4070	0.030306
789.6429	0.026844
789.8789	0.027731
790.1148	0.024121
790.3507	0.025831
790.5867	0.026422
790.8227	0.026042
791.0586	0.022939
791.2946	0.024290
791.5306	0.024691
791.7666	0.024881
792.0026	0.023171
792.2387	0.021905
792.4747	0.022644
792.7107	0.021736
792.9468	0.021335
793.1828	0.022010
793.4189	0.021166
793.6550	0.024501
793.8910	0.026612
794.1271	0.029969
794.3632	0.031636
794.5993	0.032312
794.8355	0.030074
795.0716	0.031235
795.3077	0.030792
795.5439	0.030813
795.7800	0.030180
796.0162	0.026380
796.2523	0.025620
796.4885	0.024628
796.7247	0.020089
796.9609	0.019942
797.1971	0.023192
797.4333	0.025409
797.6695	0.023214
797.9058	0.024248
798.1420	0.023298
798.3783	0.022454
798.6145	0.023171
798.8508	0.022053
799.0871	0.023889
799.3233	0.025156
799.5596	0.023256
799.7959	0.022031
800.0322	0.021504
800.2686	0.019984
800.5049	0.019920
800.7412	0.021609
800.9776	0.019519
801.2139	0.019266
801.4503	0.018548
801.6867	0.019498
801.9230	0.017725
802.1594	0.017788
802.3958	0.017366
802.6322	0.015466
802.8686	0.016501
803.1051	0.016860
803.3415	0.016142
803.5779	0.020385
803.8144	0.019477
804.0508	0.017324
804.2873	0.017430
804.5238	0.018168
804.7603	0.017303
804.9968	0.016902
805.2333	0.017894
805.4698	0.018105
805.7063	0.018021
805.9428	0.019266
806.1794	0.021630
806.4159	0.023446
806.6525	0.023699
806.8890	0.023636
807.1256	0.023235
807.3622	0.023995
807.5988	0.020744
807.8354	0.023382
808.0720	0.023425
808.3086	0.023762
808.5452	0.021504
808.7818	0.023256
809.0185	0.021884
809.2551	0.023594
809.4918	0.020237
809.7284	0.019773
809.9651	0.021588
810.2018	0.019730
810.4385	0.019773
810.6752	0.018844
810.9119	0.018971
811.1486	0.017852
811.3853	0.018126
811.6221	0.019435
811.8588	0.019287
812.0956	0.016290
812.3323	0.016691
812.5691	0.016860
812.8059	0.012659
813.0427	0.013250
813.2795	0.013735
813.5163	0.015509
813.7531	0.016501
813.9899	0.017704
814.2267	0.018992
814.4636	0.019329
814.7004	0.018569
814.9373	0.018042
815.1742	0.015530
815.4110	0.015487
815.6479	0.015171
815.8848	0.014094
816.1217	0.013841
816.3586	0.013376
816.5955	0.013588
816.8324	0.013672
817.0694	0.013820
817.3063	0.014158
817.5433	0.015804
817.7802	0.015593
818.0172	0.014538
818.2542	0.015509
818.4912	0.013566
818.7282	0.014179
818.9652	0.013419
819.2022	0.012131
819.4392	0.013187
819.6762	0.012258
819.9133	0.012068
820.1503	0.011793
820.3874	0.013440
820.6244	0.016163
820.8615	0.016775
821.0986	0.015213
821.3357	0.015319
821.5727	0.015466
821.8099	0.013630
822.0470	0.013292
822.2841	0.012785
822.5212	0.013524
822.7584	0.014305
822.9955	0.013376
823.2327	0.012764
823.4698	0.010780
823.7070	0.011667
823.9442	0.010104
824.1814	0.010653
824.4186	0.009070
824.6558	0.011244
824.8930	0.011456
825.1302	0.012279
825.3675	0.012363
825.6047	0.013756
825.8419	0.013630
826.0792	0.013271
826.3165	0.012997
826.5537	0.012638
826.7910	0.013144
827.0283	0.011645
827.2656	0.013271
827.5029	0.012891
827.7402	0.013503
827.9776	0.014200
828.2149	0.013018
828.4522	0.012047
828.6896	0.012954
828.9270	0.013208
829.1643	0.012638
829.4017	0.013566
829.6391	0.011899
829.8765	0.011477
830.1139	0.011371
830.3513	0.011730
830.5887	0.008458
830.8261	0.009872
831.0636	0.007761
831.3010	0.009703
831.5385	0.007339
831.7759	0.009492
832.0134	0.007529
832.2509	0.010083
832.4884	0.008880
832.7259	0.008986
832.9634	0.009091
833.2009	0.008247
833.4384	0.009408
833.6759	0.009345
833.9135	0.010548
834.1510	0.010062
834.3886	0.010358
834.6261	0.010506
834.8637	0.010928
835.1013	0.011076
835.3389	0.010400
835.5765	0.009598
835.8141	0.010337
836.0517	0.009513
836.2893	0.008753
836.5269	0.009999
836.7646	0.007635
837.0022	0.008289
837.2399	0.007339
837.4775	0.007212
837.7152	0.006959
837.9529	0.007086
838.1906	0.006854
838.4283	0.006157
838.6660	0.007719
838.9037	0.006284
839.1414	0.007339
839.3791	0.008585
839.6169	0.007424
839.8546	0.008669
840.0924	0.005967
840.3302	0.007487
840.5679	0.005777
840.8057	0.007001
841.0435	0.005777
841.2813	0.007318
841.5191	0.005650
841.7569	0.005883
841.9947	0.006938
842.2326	0.007360
842.4704	0.005313
842.7082	0.005123
842.9461	0.005566
843.1840	0.005439
843.4218	0.004700
843.6597	0.006073
843.8976	0.004912
844.1355	0.005017
844.3734	0.005693
844.6113	0.006009
844.8492	0.005334
845.0872	0.005587
845.3251	0.007234
845.5631	0.005418
845.8010	0.006009
846.0390	0.005967
846.2770	0.004827
846.5149	0.005460
846.7529	0.004447
846.9909	0.005756
847.2289	0.006431
847.4669	0.006220
847.7050	0.004827
847.9430	0.007318
848.1810	0.004320
848.4191	0.004912
848.6571	0.003772
848.8952	0.004595
849.1333	0.005376
849.3713	0.006305
849.6094	0.004299
849.8475	0.004342
850.0856	0.003898
850.3237	0.005587
850.5619	0.005798
850.8000	0.005080
851.0381	0.004848
851.2763	0.005207
851.5144	0.003603
851.7526	0.005988
851.9908	0.005249
852.2289	0.006051
852.4671	0.006938
852.7053	0.007339
852.9435	0.011223
853.1817	0.012954
853.4200	0.013799
853.6582	0.015150
853.8964	0.012975
854.1347	0.014896
854.3729	0.013208
854.6112	0.014474
854.8495	0.013419
855.0877	0.015361
855.3260	0.012427
855.5643	0.013250
855.8026	0.013039
856.0409	0.012701
856.2792	0.013081
856.5176	0.012638
856.7559	0.011582
856.9942	0.010358
857.2326	0.010970
857.4710	0.011160
857.7093	0.009197
857.9477	0.011456
858.1861	0.008922
858.4245	0.009028
858.6629	0.009450
858.9013	0.009851
859.1397	0.008648
859.3781	0.008732
859.6166	0.007614
859.8550	0.008162
860.0935	0.008732
860.3319	0.007846
860.5704	0.008205
860.8089	0.007994
861.0473	0.006178
861.2858	0.007128
861.5243	0.006558
861.7628	0.007065
862.0013	0.005439
862.2399	0.007022
862.4784	0.005165
862.7169	0.004848
862.9555	0.004553
863.1940	0.007022
863.4326	0.006263
863.6712	0.005355
863.9098	0.005988
864.1483	0.006579
864.3869	0.006664
864.6255	0.006453
864.8642	0.005819
865.1028	0.005925
865.3414	0.005756
865.5800	0.004595
865.8187	0.006115
866.0573	0.005629
866.2960	0.005418
866.5347	0.005397
866.7733	0.004299
867.0120	0.005629
867.2507	0.005228
867.4894	0.005165
867.7281	0.004912
867.9669	0.006009
868.2056	0.004574
868.4443	0.006558
868.6831	0.005735
868.9218	0.005840
869.1606	0.004616
869.3993	0.005355
869.6381	0.005249
869.8769	0.004954
870.1157	0.004890
870.3545	0.002547
870.5933	0.004194
870.8321	0.006073
871.0709	0.005819
871.3097	0.006030
871.5486	0.005102
871.7874	0.004912
872.0263	0.005629
872.2651	0.005376
872.5040	0.006220
872.7429	0.003772
872.9818	0.004996
873.2207	0.005629
873.4596	0.004996
873.6985	0.006241
873.9374	0.003624
874.1763	0.006938
874.4153	0.003898
874.6542	0.004785
874.8932	0.005123
875.1321	0.005355
875.3711	0.006431
875.6101	0.006241
875.8491	0.006094
876.0880	0.004468
876.3270	0.004109
876.5661	0.004848
876.8051	0.007128
877.0441	0.005144
877.2831	0.005566
877.5222	0.004532
877.7612	0.005693
878.0003	0.006199
878.2393	0.006875
878.4784	0.006917
878.7175	0.007044
878.9566	0.006347
879.1957	0.007149
879.4348	0.006706
879.6739	0.006769
879.9130	0.007825
880.1521	0.008669
880.3913	0.008015
880.6304	0.009112
880.8696	0.009197
881.1087	0.007677
881.3479	0.006368
881.5871	0.008585
881.8262	0.007804
882.0654	0.006178
882.3046	0.006727
882.5438	0.007529
882.7831	0.005967
883.0223	0.004975
883.2615	0.007128
883.5007	0.005925
883.7400	0.006875
883.9792	0.007614
884.2185	0.005144
884.4578	0.006284
884.6971	0.005988
884.9363	0.007804
885.1756	0.006094
885.4149	0.008563
885.6542	0.005883
885.8936	0.006284
886.1329	0.005988
886.3722	0.008120
886.6116	0.005861
886.8509	0.006389
887.0903	0.005650
887.3296	0.006579
887.5690	0.004954
887.8084	0.006643
888.0478	0.005123
888.2872	0.005376
888.5266	0.005059
888.7660	0.005376
889.0054	0.006136
889.2448	0.005946
889.4843	0.004954
889.7237	0.005102
889.9632	0.004088
890.2026	0.004869
890.4421	0.004532
890.6816	0.004679
890.9211	0.004299
891.1606	0.003750
891.4001	0.003708
891.6396	0.004679
891.8791	0.006263
892.1186	0.003708
892.3581	0.004363
892.5977	0.003940
892.8372	0.003434
893.0768	0.004384
893.3163	0.004088
893.5559	0.005249
893.7955	0.004046
894.0351	0.005102
894.2747	0.004700
894.5143	0.004553
894.7539	0.006051
894.9935	0.004088
895.2331	0.005904
895.4727	0.005334
895.7124	0.004700
895.9520	0.005481
896.1917	0.005228
896.4314	0.003560
896.6710	0.005840
896.9107	0.004426
897.1504	0.002758
897.3901	0.005165
897.6298	0.003750
897.8695	0.005861
898.1092	0.004743
898.3489	0.006199
898.5887	0.005397
898.8284	0.005671
899.0682	0.004616
899.3079	0.005017
899.5477	0.004004
899.7875	0.003898
900.0272	0.004363
900.2670	0.004363
900.5068	0.004278
900.7466	0.005460
900.9864	0.003708
901.2263	0.003919
901.4661	0.004785
901.7059	0.003286
901.9458	0.004194
902.1856	0.004785
902.4255	0.005503
902.6654	0.004510
902.9052	0.005123
903.1451	0.003645
903.3850	0.003223
903.6249	0.004827
903.8648	0.003096
904.1047	0.004954
904.3446	0.004890
904.5846	0.005207
904.8245	0.004890
905.0644	0.004722
905.3044	0.003940
905.5444	0.005735
905.7843	0.004215
906.0243	0.003371
906.2643	0.005503
906.5043	0.005988
906.7443	0.002822
906.9843	0.003940
907.2243	0.004785
907.4643	0.003666
907.7043	0.004278
907.9444	0.003371
908.1844	0.002336
908.4245	0.004004
908.6645	0.003455
908.9046	0.004848
909.1447	0.003708
909.3847	0.003075
909.6248	0.003666
909.8649	0.003307
910.1050	0.005207
910.3452	0.002948
910.5853	0.002357
910.8254	0.004299
911.0655	0.003603
911.3057	0.004363
911.5458	0.004574
911.7860	0.004025
912.0262	0.003202
912.2663	0.004130
912.5065	0.003413
912.7467	0.004320
912.9869	0.003012
913.2271	0.005228
913.4673	0.002779
913.7075	0.004215
913.9478	0.002674
914.1880	0.003371
914.4283	0.001618
914.6685	0.002589
914.9088	0.002484
915.1490	0.002252
915.3893	0.003603
915.6296	0.003328
915.8699	0.003413
916.1102	0.003096
916.3505	0.003181
916.5908	0.003434
916.8311	0.003518
917.0714	0.003877
917.3118	0.004215
917.5521	0.003708
917.7925	0.003413
918.0328	0.004152
918.2732	0.002758
918.5136	0.002885
918.7539	0.004426
918.9943	0.004785
919.2347	0.003940
919.4751	0.004173
919.7155	0.002864
919.9560	0.002948
920.1964	0.004320
920.4368	0.003687
920.6773	0.004553
920.9177	0.003054
921.1582	0.003349
921.3986	0.003012
921.6391	0.002695
921.8796	0.003286
922.1201	0.002737
922.3606	0.004637
922.6011	0.002843
922.8416	0.002442
923.0821	0.001597
923.3226	0.003286
923.5631	0.002526
923.8037	0.003265
924.0442	0.003033
924.2848	0.003687
924.5254	0.003856
924.7659	0.002611
925.0065	0.003033
925.2471	0.003075
925.4877	0.002484
925.7283	0.001534
925.9689	0.003560
926.2095	0.002801
926.4501	0.001893
926.6908	0.002378
926.9314	0.002611
927.1720	0.003012
927.4127	0.001745
927.6533	0.001703
927.8940	0.002589
928.1347	0.003138
928.3754	0.001260
928.6161	0.001808
928.8568	0.002463
929.0975	0.002547
929.3382	0.002188
929.5789	0.002231
929.8196	0.001175
930.0604	0.003096
930.3011	0.002062
930.5419	0.003349
930.7826	0.002252
931.0234	0.002505
931.2642	0.002632
931.5049	0.004088
931.7457	0.002611
931.9865	0.003476
932.2273	0.001766
932.4681	0.003054
932.7089	0.002378
932.9498	0.004257
933.1906	0.003835
933.4314	0.003138
933.6723	0.003286
933.9131	0.002716
934.1540	0.002019
934.3949	0.003033
934.6358	0.001133
934.8766	0.002209
935.1175	0.001618
935.3584	0.003033
935.5993	0.002758
935.8403	0.001661
936.0812	0.001682
936.3221	0.002357
936.5630	0.001407
936.8040	0.001534
937.0449	0.001260
937.2859	0.002209
937.5269	0.000816
937.7678	0.002969
938.0088	0.002885
938.2498	0.000943
938.4908	0.000352
938.7318	0.000985
938.9728	0.001787
939.2138	0.001281
939.4549	0.002188
939.6959	0.001703
939.9369	0.002167
940.1780	0.000352
940.4190	0.001323
940.6601	0.000035
940.9012	0.001745
941.1422	0.001471
941.3833	0.002167
941.6244	0.000542
941.8655	0.000099
942.1066	0.000310
942.3477	0.002146
942.5889	0.000563
942.8300	0.001133
943.0711	0.001238
943.3123	0.000563
943.5534	0.001323
943.7946	0.001238
944.0357	0.000394
944.2769	-0.000049
944.5181	0.000584
944.7593	0.001935
945.0005	0.000035
945.2417	0.001344
945.4829	0.000563
945.7241	0.001154
945.9653	0.002104
946.2066	-0.000260
946.4478	0.000331
946.6891	0.003856
946.9303	0.001070
947.1716	0.000584
947.4128	-0.000746
947.6541	0.001217
947.8954	0.001344
948.1367	0.001407
948.3780	0.001618
948.6193	-0.000366
948.8606	0.001154
949.1019	0.001935
949.3433	0.000774
949.5846	0.001977
949.8259	0.002104
950.0673	0.000985
950.3086	0.001830
950.5500	0.001618
950.7914	0.001618
951.0327	0.000816
951.2741	0.000120
951.5155	0.001112
951.7569	0.001576
951.9983	0.000795
952.2398	0.001534
952.4812	0.001260
952.7226	0.001112
952.9640	0.001555
953.2055	0.001724
953.4469	0.001407
953.6884	0.001133
953.9299	0.002083
954.1713	0.002146
954.4128	0.000394
954.6543	-0.000535
954.8958	0.001196
955.1373	0.000415
955.3788	0.001386
955.6203	0.000521
955.8618	0.000901
956.1034	0.000880
956.3449	0.001175
956.5865	0.002125
956.8280	0.001534
957.0696	0.000246
957.3111	0.000922
957.5527	0.000204
957.7943	0.000943
958.0359	0.001365
958.2775	0.002357
958.5191	0.000225
958.7607	0.001344
959.0023	0.000647
959.2439	0.000521
959.4856	0.000964
959.7272	0.001133
959.9688	0.001027
960.2105	0.001175
960.4522	0.000858
960.6938	-0.000028
960.9355	0.000837
961.1772	-0.000535
961.4189	0.002357
961.6606	0.000943
961.9023	-0.000450
962.1440	0.002294
962.3857	0.001618
962.6274	0.000035
962.8692	0.000922
963.1109	0.000605
963.3527	0.000478
963.5944	0.000858
963.8362	0.001006
964.0779	0.000099
964.3197	-0.000535
964.5615	0.000394
964.8033	0.001851
965.0451	0.000605
965.2869	0.000626
965.5287	-0.000239
965.7705	0.000056
966.0123	0.000732
966.2542	-0.000260
966.4960	0.002357
966.7379	0.000267
966.9797	0.000521
967.2216	0.000690
967.4634	0.001914
967.7053	0.000310
967.9472	0.000816
968.1891	0.001281
968.4310	0.001872
968.6729	0.000816
968.9148	0.001112
969.1567	0.000035
969.3987	-0.000028
969.6406	0.000584
969.8825	0.000605
970.1245	-0.000070
970.3664	0.001006
970.6084	0.000457
970.8504	0.001450
971.0923	-0.000155
971.3343	0.000141
971.5763	0.000099
971.8183	0.001618
972.0603	-0.000640
972.3023	0.001133
972.5443	0.000183
972.7864	0.000922
973.0284	-0.000049
973.2704	0.001703
973.5125	0.000014
973.7545	0.000099
973.9966	0.000605
974.2387	0.001027
974.4807	0.000732
974.7228	0.001703
974.9649	-0.000809
975.2070	0.001851
975.4491	0.002083
975.6912	0.000415
975.9333	-0.000851
976.1755	0.000394
976.4176	0.000352
976.6597	0.001766
976.9019	0.000478
977.1440	0.001048
977.3862	0.000310
977.6283	0.000753
977.8705	0.001344
978.1127	0.000858
978.3549	0.001154
978.5971	0.002758
978.8393	0.000204
979.0815	0.001386
979.3237	-0.000155
979.5659	-0.000556
979.8082	0.001260
980.0504	-0.000345
980.2926	0.000647
980.5349	0.000310
980.7771	0.000204
981.0194	0.000668
981.2617	0.001091
981.5040	0.002547
981.7462	0.001175
981.9885	-0.000091
982.2308	-0.000345
982.4731	0.000415
982.7155	0.000035
982.9578	-0.000007
983.2001	0.001154
983.4424	0.002083
983.6848	-0.000070
983.9271	0.000436
984.1695	0.000837
984.4118	-0.000598
984.6542	0.001091
984.8966	0.001154
985.1390	-0.000260
985.3814	0.000584
985.6238	0.000225
985.8662	0.000310
986.1086	0.000647
986.3510	0.000141
986.5934	-0.000239
986.8358	0.000795
987.0783	-0.000661
987.3207	0.000901
987.5632	-0.000091
987.8056	0.002104
988.0481	-0.000324
988.2906	0.000753
988.5331	0.000647
988.7756	0.000584
989.0180	0.000331
989.2605	-0.000091
989.5031	0.000394
989.7456	0.000711
989.9881	-0.000387
990.2306	0.000605
990.4732	-0.000767
990.7157	0.000647
990.9582	0.000183
991.2008	0.000837
991.4434	-0.000091
991.6859	0.001661
991.9285	0.000774
992.1711	0.000183
992.4137	-0.000239
992.6563	0.000014
992.8989	0.000373
993.1415	0.000373
993.3841	-0.000661
993.6267	0.001070
993.8694	-0.000915
994.1120	-0.000260
994.3547	-0.000640
994.5973	0.001428
994.8400	0.000563
995.0826	0.000901
995.3253	-0.000113
995.5680	0.001787
995.8107	-0.000091
996.0534	0.001281
996.2961	0.000331
996.5388	0.002041
996.7815	-0.000978
997.0242	0.001703
997.2670	0.000099
997.5097	0.000985
997.7524	0.000225
997.9952	0.000795
998.2379	0.000711
998.4807	0.001260
998.7235	-0.000260
998.9662	-0.000619
999.2090	-0.001400
999.4518	0.001386
999.6946	0.001618
999.9374	0.000310
1000.1802	-0.000113
1000.4230	0.000901
1000.6659	-0.000070
1000.9087	0.000056
1001.1515	-0.000281
1001.3944	0.000732
1001.6372	0.000246
1001.8801	0.000099
1002.1230	0.000647
1002.3658	0.000922
1002.6087	0.001070
1002.8516	-0.000788
1003.0945	0.002252
1003.3374	0.000310
1003.5803	0.001428
1003.8232	0.000267
1004.0661	0.000352
1004.3091	-0.001485
1004.5520	-0.000957
1004.7949	-0.000007
1005.0379	0.001344
1005.2808	0.000415
1005.5238	0.001070
1005.7667	0.000690
1006.0097	0.000584
1006.2527	-0.000260
1006.4957	0.000858
1006.7387	0.000056
1006.9817	-0.000387
1007.2247	0.000120
1007.4677	0.001006
1007.7107	0.000668
1007.9538	-0.000387
1008.1968	0.001048
1008.4398	0.000690
1008.6829	-0.000661
1008.9259	0.000415
1009.1690	-0.000281
1009.4121	0.001133
1009.6551	-0.000429
1009.8982	0.000014
1010.1413	0.000035
1010.3844	0.000183
1010.6275	-0.000556
1010.8706	0.000985
1011.1137	0.000753
1011.3568	0.001006
1011.6000	0.001175
1011.8431	0.000647
1012.0863	0.000331
1012.3294	0.001027
1012.5726	0.001534
1012.8157	-0.000471
1013.0589	-0.000619
1013.3021	0.000521
1013.5452	-0.000619
1013.7884	0.001386
1014.0316	0.000415
1014.2748	0.001091
1014.5180	-0.000830
1014.7613	-0.000577
1015.0045	-0.000619
1015.2477	-0.000007
1015.4909	-0.001126
1015.7342	0.000964
1015.9774	0.000141
1016.2207	0.001133
1016.4640	-0.000746
1016.7072	0.000711
1016.9505	0.000141
1017.1938	0.000711
1017.4371	-0.000851
1017.6804	0.000563
1017.9237	0.000288
1018.1670	0.001112
1018.4103	0.000563
1018.6536	0.000099
1018.8969	-0.001337
1019.1403	0.000837
1019.3836	-0.000281
1019.6270	0.000542
1019.8703	-0.000070
1020.1137	0.000858
1020.3571	-0.000704
1020.6004	0.000415
1020.8438	0.000605
1021.0872	-0.000746
1021.3306	0.000858
1021.5740	0.000162
1021.8174	-0.000134
1022.0608	-0.000366
1022.3042	-0.000028
1022.5477	-0.000619
1022.7911	0.000246
1023.0345	-0.000598
