# Wavelength (nm)	Intensity (a.u.)
197.7802	0.000519
197.9842	-0.000410
198.1882	0.000793
198.3922	0.000434
198.5963	-0.000515
198.8003	-0.000557
199.0044	0.001088
199.2085	-0.001422
199.4126	0.000624
199.6168	-0.000916
199.8209	-0.000536
200.0251	0.000624
200.2292	0.000434
200.4334	0.000793
200.6376	0.000308
200.8418	-0.000199
201.0461	-0.000557
201.2503	0.000434
201.4546	-0.000220
201.6589	-0.000536
201.8631	0.000160
202.0674	-0.000726
202.2718	0.002080
202.4761	-0.000536
202.6805	-0.000114
202.8848	0.001637
203.0892	0.001046
203.2936	0.000202
203.4980	-0.000663
203.7024	0.000076
203.9069	0.001067
204.1113	0.001130
204.3158	-0.000199
204.5203	-0.000557
204.7248	0.000708
204.9293	-0.000241
205.1338	0.000940
205.3384	0.001721
205.5430	-0.000557
205.7475	-0.000051
205.9521	-0.000515
206.1567	0.000603
206.3614	-0.000578
206.5660	0.000160
206.7706	-0.000599
206.9753	-0.000473
207.1800	-0.001464
207.3847	0.000265
207.5894	-0.001148
207.7941	-0.000304
207.9989	0.000434
208.2036	-0.000241
208.4084	0.000392
208.6132	0.001004
208.8180	0.000772
209.0228	-0.000621
209.2276	0.000708
209.4325	0.000687
209.6373	0.001109
209.8422	-0.000009
210.0471	-0.000093
210.2520	0.000561
210.4569	-0.000621
210.6618	0.000139
210.8668	0.000202
211.0718	0.000730
211.2767	0.000519
211.4817	0.000139
211.6867	0.000434
211.8918	-0.000178
212.0968	0.000624
212.3018	0.000730
212.5069	0.002143
212.7120	0.000624
212.9171	0.000160
213.1222	0.000329
213.3273	0.001025
213.5325	0.000160
213.7376	-0.000009
213.9428	0.000898
214.1480	-0.000452
214.3532	-0.000684
214.5584	0.001362
214.7636	-0.000726
214.9689	-0.000853
215.1741	-0.001380
215.3794	0.000540
215.5847	-0.000030
215.7900	0.000624
215.9953	0.000624
216.2007	0.000645
216.4060	-0.000621
216.6114	0.000519
216.8168	-0.001190
217.0222	-0.000473
217.2276	-0.000093
217.4330	0.001004
217.6384	-0.000135
217.8439	-0.000051
218.0494	-0.001717
218.2548	0.000497
218.4603	0.000371
218.6659	0.000666
218.8714	-0.000747
219.0769	-0.001085
219.2825	-0.000599
219.4881	0.001869
219.6936	0.000097
219.8992	0.000308
220.1049	0.001573
220.3105	-0.000494
220.5161	0.001510
220.7218	0.001615
220.9275	-0.000093
221.1332	-0.000156
221.3389	0.000329
221.5446	0.000540
221.7503	0.000898
221.9561	-0.000262
222.1618	0.000287
222.3676	-0.000642
222.5734	0.000160
222.7792	0.000202
222.9850	0.000223
223.1909	0.000244
223.3967	0.000202
223.6026	0.000687
223.8085	-0.000642
224.0144	0.002185
224.2203	0.000898
224.4262	-0.000051
224.6322	0.001257
224.8381	0.000350
225.0441	-0.000304
225.2501	0.000223
225.4561	-0.000494
225.6621	0.000772
225.8681	-0.000789
226.0742	-0.000241
226.2802	0.000540
226.4863	0.000561
226.6924	-0.001148
226.8985	0.001278
227.1046	-0.001106
227.3107	0.001763
227.5169	-0.001317
227.7230	-0.000684
227.9292	-0.000346
228.1354	-0.000114
228.3416	0.000287
228.5478	0.001046
228.7541	-0.000979
228.9603	-0.000051
229.1666	0.000118
229.3729	-0.000241
229.5791	0.000687
229.7855	0.000097
229.9918	-0.000009
230.1981	0.000772
230.4045	-0.000346
230.6108	0.000329
230.8172	0.000181
231.0236	0.000624
231.2300	-0.000895
231.4364	0.000371
231.6429	-0.001422
231.8493	-0.000262
232.0558	0.000329
232.2623	0.000751
232.4688	0.000265
232.6753	-0.000831
232.8818	0.000392
233.0884	0.001637
233.2949	-0.000262
233.5015	0.001151
233.7081	0.001004
233.9147	0.000223
234.1213	0.001025
234.3279	0.000919
234.5346	-0.000051
234.7413	0.000455
234.9479	0.000476
235.1546	0.001362
235.3613	-0.001042
235.5680	-0.000199
235.7748	0.001405
235.9815	-0.000135
236.1883	0.000012
236.3951	0.000814
236.6018	0.000519
236.8087	0.001447
237.0155	0.000054
237.2223	0.000054
237.4292	-0.000199
237.6360	-0.000009
237.8429	-0.000831
238.0498	0.000666
238.2567	-0.000536
238.4636	-0.000030
238.6706	0.001215
238.8775	0.001151
239.0845	-0.001401
239.2915	0.000730
239.4985	0.001468
239.7055	0.001383
239.9125	-0.001464
240.1195	0.002185
240.3266	-0.000747
240.5337	0.001341
240.7407	0.001405
240.9478	-0.000642
241.1549	-0.000283
241.3621	0.001932
241.5692	0.000076
241.7764	0.000751
241.9835	0.000540
242.1907	0.001573
242.3979	0.000540
242.6051	0.000814
242.8124	-0.000831
243.0196	0.000118
243.2269	0.000856
243.4341	-0.000663
243.6414	-0.001021
243.8487	0.000455
244.0560	-0.000093
244.2634	0.002058
244.4707	0.001531
244.6781	0.000497
244.8854	-0.000452
245.0928	0.000392
245.3002	0.001088
245.5076	0.001130
245.7151	-0.001148
245.9225	0.000223
246.1300	-0.000178
246.3375	0.000898
246.5449	-0.000663
246.7524	0.001067
246.9600	-0.000030
247.1675	0.000962
247.3750	-0.000283
247.5826	0.000033
247.7902	-0.000241
247.9978	0.000666
248.2054	-0.001232
248.4130	0.001362
248.6206	0.000645
248.8283	0.000835
249.0359	0.001320
249.2436	-0.000156
249.4513	0.000519
249.6590	0.000118
249.8667	0.000687
250.0745	0.000202
250.2822	-0.000030
250.4900	-0.000515
250.6978	-0.001021
250.9056	0.001468
251.1134	-0.000178
251.3212	-0.000093
251.5290	0.000139
251.7369	0.001046
251.9447	0.000645
252.1526	-0.000283
252.3605	0.000582
252.5684	0.000371
252.7763	-0.000663
252.9843	0.001088
253.1922	0.000371
253.4002	0.000497
253.6082	0.000730
253.8162	0.000160
254.0242	-0.001380
254.2322	0.000118
254.4402	0.000287
254.6483	-0.000536
254.8564	-0.000367
255.0644	0.000983
255.2725	-0.000874
255.4806	-0.000283
255.6888	0.000012
255.8969	0.001067
256.1051	0.000519
256.3132	0.000371
256.5214	0.000265
256.7296	-0.000789
256.9378	0.001742
257.1460	0.000455
257.3543	-0.001000
257.5625	-0.000156
257.7708	-0.000325
257.9791	-0.000072
258.1874	0.000814
258.3957	0.000097
258.6040	-0.000621
258.8124	-0.000642
259.0207	0.000898
259.2291	0.000561
259.4375	0.000139
259.6459	0.001784
259.8543	0.000392
260.0627	0.001489
260.2711	-0.000452
260.4796	0.000139
260.6881	-0.000030
260.8965	0.001236
261.1050	-0.000494
261.3135	0.000434
261.5221	0.000455
261.7306	-0.000388
261.9392	-0.000473
262.1477	0.001573
262.3563	0.000160
262.5649	0.001299
262.7735	0.000540
262.9822	0.000244
263.1908	-0.000135
263.3995	0.001615
263.6081	0.001362
263.8168	0.000054
264.0255	-0.001317
264.2342	0.001236
264.4429	-0.000178
264.6517	-0.000473
264.8604	0.000772
265.0692	0.000265
265.2780	0.000265
265.4868	-0.000726
265.6956	0.000244
265.9044	-0.000452
266.1133	-0.000241
266.3221	0.000519
266.5310	0.001004
266.7399	0.000561
266.9488	0.000223
267.1577	0.000202
267.3666	-0.000135
267.5755	0.000772
267.7845	0.000940
267.9935	-0.001169
268.2024	-0.000536
268.4114	0.000983
268.6205	-0.001401
268.8295	0.000097
269.0385	-0.001422
269.2476	0.001615
269.4566	0.001278
269.6657	0.000666
269.8748	0.000202
270.0839	-0.000473
270.2931	-0.001401
270.5022	0.000540
270.7114	-0.000621
270.9205	0.000033
271.1297	0.000076
271.3389	0.001194
271.5481	-0.000726
271.7573	0.001890
271.9666	0.000708
272.1758	0.001257
272.3851	0.000434
272.5944	0.000666
272.8037	0.000497
273.0130	0.000054
273.2223	-0.000726
273.4316	0.000772
273.6410	-0.000705
273.8504	0.002037
274.0597	0.000097
274.2691	0.001953
274.4785	0.000097
274.6880	0.000708
274.8974	-0.001781
275.1069	0.000708
275.3163	0.000076
275.5258	0.001194
275.7353	0.000814
275.9448	0.000329
276.1543	-0.000114
276.3639	0.000856
276.5734	-0.001907
276.7830	-0.000241
276.9926	-0.001971
277.2022	0.000076
277.4118	0.000624
277.6214	0.001721
277.8310	-0.000030
278.0407	-0.000747
278.2503	0.000603
278.4600	-0.000346
278.6697	0.000497
278.8794	0.000624
279.0891	0.000097
279.2989	0.000392
279.5086	-0.000410
279.7184	0.001278
279.9281	0.000708
280.1379	0.000244
280.3477	0.000582
280.5576	0.000223
280.7674	-0.000304
280.9772	-0.000178
281.1871	0.000392
281.3970	0.001151
281.6069	0.001194
281.8168	0.000687
282.0267	-0.001148
282.2366	0.000877
282.4466	0.000497
282.6565	0.000856
282.8665	-0.001675
283.0765	0.001236
283.2865	-0.000621
283.4965	0.001004
283.7065	-0.000072
283.9166	-0.000367
284.1266	0.000097
284.3367	0.001573
284.5468	-0.000452
284.7569	0.000940
284.9670	0.001046
285.1771	0.001151
285.3873	-0.000452
285.5974	-0.000621
285.8076	-0.000937
286.0178	-0.000262
286.2280	-0.000156
286.4382	0.001510
286.6484	-0.000410
286.8587	0.000940
287.0689	-0.001064
287.2792	0.001594
287.4895	0.000434
287.6998	0.000645
287.9101	-0.000072
288.1204	0.000540
288.3308	0.000392
288.5411	0.001215
288.7515	-0.000494
288.9619	-0.000156
289.1723	0.000730
289.3827	0.000856
289.5931	0.000497
289.8035	0.000898
290.0140	-0.000874
290.2245	0.000054
290.4349	-0.000325
290.6454	0.000265
290.8559	0.000413
291.0665	0.001067
291.2770	0.001784
291.4875	0.001236
291.6981	-0.001317
291.9087	0.000308
292.1193	-0.000599
292.3299	0.001594
292.5405	0.000434
292.7511	0.000730
292.9618	-0.001127
293.1724	-0.000199
293.3831	0.000392
293.5938	0.000561
293.8045	-0.000262
294.0152	0.000181
294.2260	0.000708
294.4367	-0.001127
294.6475	-0.001106
294.8582	0.000223
295.0690	0.001615
295.2798	-0.000831
295.4906	-0.000072
295.7015	-0.000304
295.9123	0.000624
296.1232	0.000540
296.3340	-0.000853
296.5449	0.001004
296.7558	-0.000009
296.9667	0.000054
297.1777	0.000287
297.3886	0.001194
297.5995	-0.000853
297.8105	0.001299
298.0215	0.000793
298.2325	0.000940
298.4435	-0.000557
298.6545	0.000181
298.8656	-0.000367
299.0766	-0.000178
299.2877	-0.000156
299.4988	0.000033
299.7099	0.000877
299.9210	0.000455
300.1321	0.000350
300.3432	0.000983
300.5544	-0.000452
300.7655	0.001510
300.9767	-0.001021
301.1879	-0.000199
301.3991	0.000751
301.6103	-0.000726
301.8215	-0.000494
302.0328	0.001594
302.2441	0.000540
302.4553	-0.000262
302.6666	-0.000325
302.8779	0.000476
303.0892	-0.001190
303.3006	-0.000241
303.5119	0.000181
303.7233	0.000497
303.9346	0.000265
304.1460	0.001151
304.3574	-0.001232
304.5688	0.000455
304.7803	0.000371
304.9917	-0.000304
305.2031	-0.000410
305.4146	0.000940
305.6261	-0.000367
305.8376	0.000371
306.0491	-0.000388
306.2606	0.000329
306.4722	0.000666
306.6837	0.000434
306.8953	-0.000557
307.1069	0.001004
307.3184	0.000223
307.5301	0.000645
307.7417	0.000540
307.9533	0.000940
308.1650	-0.000093
308.3766	0.000434
308.5883	0.002122
308.8000	0.000202
309.0117	-0.000621
309.2234	-0.000726
309.4351	0.000434
309.6469	0.000772
309.8586	0.000751
310.0704	-0.000135
310.2822	0.000160
310.4940	0.000561
310.7058	0.000139
310.9176	0.000455
311.1295	-0.000621
311.3413	0.001890
311.5532	-0.001422
311.7651	-0.000009
311.9770	0.001046
312.1889	0.001658
312.4008	0.000962
312.6127	0.001763
312.8247	-0.000199
313.0366	0.000160
313.2486	-0.000388
313.4606	0.000371
313.6726	-0.000199
313.8846	0.000308
314.0967	0.000139
314.3087	0.001046
314.5208	0.000012
314.7328	0.000033
314.9449	-0.000705
315.1570	0.000962
315.3692	-0.000810
315.5813	0.000097
315.7934	-0.000367
316.0056	0.000434
316.2177	0.000962
316.4299	0.001025
316.6421	-0.000747
316.8543	0.000076
317.0666	-0.001127
317.2788	-0.000030
317.4911	-0.000093
317.7033	0.001405
317.9156	0.001194
318.1279	0.000012
318.3402	0.000434
318.5525	0.000540
318.7649	0.000856
318.9772	-0.000325
319.1896	0.000392
319.4019	0.001573
319.6143	-0.000473
319.8267	0.000455
320.0392	0.000244
320.2516	0.000582
320.4640	0.000160
320.6765	0.000160
320.8890	0.000202
321.1014	0.000856
321.3139	-0.000093
321.5265	0.001468
321.7390	-0.000241
321.9515	0.001109
322.1641	-0.000536
322.3766	0.000898
322.5892	0.000940
322.8018	0.000265
323.0144	-0.000009
323.2270	0.001025
323.4397	0.000097
323.6523	0.000455
323.8650	-0.000346
324.0777	0.001088
324.2904	-0.000367
324.5031	0.001341
324.7158	-0.000283
324.9285	0.000413
325.1412	0.000392
325.3540	0.001046
325.5668	-0.000072
325.7796	0.000202
325.9924	0.000202
326.2052	0.001025
326.4180	0.000898
326.6308	-0.000388
326.8437	0.000413
327.0566	-0.000093
327.2694	-0.000072
327.4823	0.000012
327.6952	-0.001127
327.9082	-0.000220
328.1211	0.000519
328.3340	0.000181
328.5470	0.000455
328.7600	-0.000895
328.9730	-0.000578
329.1860	-0.000262
329.3990	0.001067
329.6120	0.000751
329.8251	0.001468
330.0381	-0.001781
330.2512	0.000054
330.4643	0.000708
330.6774	-0.001823
330.8905	0.000054
331.1036	0.001341
331.3167	0.000919
331.5299	-0.001422
331.7431	-0.000684
331.9562	-0.000346
332.1694	0.000476
332.3826	0.000033
332.5959	0.000308
332.8091	-0.000705
333.0223	-0.000156
333.2356	0.000814
333.4489	0.000940
333.6622	-0.000874
333.8755	0.000265
334.0888	0.002016
334.3021	-0.000199
334.5154	-0.000663
334.7288	-0.000156
334.9422	0.000012
335.1555	-0.000072
335.3689	-0.000051
335.5823	0.000455
335.7958	-0.000494
336.0092	-0.000199
336.2227	-0.000642
336.4361	-0.000220
336.6496	0.000033
336.8631	-0.000895
337.0766	0.000265
337.2901	-0.000325
337.5036	-0.001549
337.7172	0.000603
337.9307	-0.000030
338.1443	0.000772
338.3579	0.000202
338.5715	0.002291
338.7851	-0.001274
338.9987	-0.000388
339.2124	0.000329
339.4260	0.000603
339.6397	-0.000262
339.8533	0.000856
340.0670	0.000097
340.2807	0.001320
340.4945	0.000350
340.7082	0.000181
340.9219	-0.000494
341.1357	0.000645
341.3495	-0.000135
341.5633	-0.000178
341.7771	0.000624
341.9909	-0.000072
342.2047	-0.000093
342.4185	0.000856
342.6324	0.000160
342.8463	0.001151
343.0601	-0.001401
343.2740	0.000814
343.4879	0.000983
343.7019	0.000624
343.9158	0.000181
344.1297	-0.001021
344.3437	0.000012
344.5577	0.000244
344.7717	0.001299
344.9857	0.001510
345.1997	-0.000388
345.4137	-0.000958
345.6277	0.001004
345.8418	0.000519
346.0559	0.000371
346.2699	-0.000388
346.4840	0.000139
346.6981	-0.000135
346.9123	-0.000262
347.1264	0.001489
347.3406	-0.001317
347.5547	-0.000705
347.7689	0.000350
347.9831	-0.000621
348.1973	-0.000367
348.4115	0.000582
348.6257	-0.001528
348.8400	0.001278
349.0542	-0.000473
349.2685	0.000962
349.4828	0.001383
349.6971	0.000202
349.9114	-0.001021
350.1257	-0.000072
350.3400	0.000202
350.5544	0.000730
350.7687	0.000708
350.9831	0.000645
351.1975	0.000097
351.4119	-0.000072
351.6263	-0.000621
351.8407	0.000265
352.0552	-0.000431
352.2696	0.000265
352.4841	-0.000452
352.6986	0.000392
352.9131	-0.000916
353.1276	0.001426
353.3421	-0.000178
353.5566	0.000350
353.7712	-0.000072
353.9858	-0.001021
354.2003	0.000012
354.4149	-0.000051
354.6295	-0.000621
354.8441	0.000350
355.0588	0.000476
355.2734	-0.000789
355.4881	0.000392
355.7027	-0.000452
355.9174	-0.000156
356.1321	0.001658
356.3468	-0.000473
356.5615	0.000350
356.7763	-0.000979
356.9910	-0.000114
357.2058	0.000519
357.4206	0.001383
357.6353	-0.000747
357.8501	-0.001042
358.0650	0.000287
358.2798	0.000519
358.4946	-0.001591
358.7095	0.000582
358.9243	0.001278
359.1392	0.000012
359.3541	-0.000262
359.5690	0.000118
359.7839	-0.000663
359.9989	0.001489
360.2138	-0.000051
360.4288	0.000455
360.6438	-0.000178
360.8587	0.000624
361.0737	-0.000220
361.2888	0.001320
361.5038	-0.000199
361.7188	0.000455
361.9339	0.000223
362.1489	0.000097
362.3640	-0.000810
362.5791	0.000730
362.7942	0.000687
363.0093	0.001594
363.2245	0.000308
363.4396	0.000940
363.6548	-0.000388
363.8699	-0.000030
364.0851	-0.000009
364.3003	-0.000051
364.5155	-0.000515
364.7308	0.000118
364.9460	0.000497
365.1612	-0.000199
365.3765	0.000392
365.5918	-0.000072
365.8071	-0.000051
366.0224	0.000561
366.2377	0.001615
366.4530	0.000371
366.6684	-0.000093
366.8837	0.000835
367.0991	-0.000030
367.3145	0.000898
367.5299	-0.000093
367.7453	0.000160
367.9607	0.000371
368.1761	0.000434
368.3916	0.001405
368.6070	0.000223
368.8225	0.000308
369.0380	0.001848
369.2535	-0.001000
369.4690	0.001700
369.6845	0.000202
369.9001	0.000476
370.1156	-0.000325
370.3312	0.000666
370.5468	0.001383
370.7624	0.000392
370.9780	-0.001148
371.1936	0.001362
371.4092	0.001215
371.6249	0.000202
371.8405	-0.000388
372.0562	-0.000325
372.2719	0.000012
372.4876	0.000033
372.7033	-0.000241
372.9190	-0.000410
373.1348	-0.000705
373.3505	0.000898
373.5663	-0.000895
373.7820	0.001763
373.9978	-0.000093
374.2136	-0.000853
374.4294	0.000434
374.6453	0.000244
374.8611	-0.000578
375.0770	0.000455
375.2928	-0.000578
375.5087	0.000919
375.7246	0.001046
375.9405	0.000814
376.1564	0.000054
376.3724	0.001025
376.5883	-0.000030
376.8043	0.000983
377.0203	0.000287
377.2362	0.001067
377.4522	-0.000642
377.6682	0.001299
377.8843	0.000012
378.1003	0.000118
378.3164	-0.001190
378.5324	0.000265
378.7485	-0.000621
378.9646	0.000497
379.1807	0.000877
379.3968	-0.000599
379.6129	-0.000410
379.8291	-0.000030
380.0452	0.000603
380.2614	-0.000768
380.4776	-0.000346
380.6938	0.001299
380.9100	-0.000346
381.1262	0.001046
381.3424	-0.000346
381.5587	0.000582
381.7749	-0.000599
381.9912	0.000329
382.2075	0.000160
382.4238	-0.000452
382.6401	-0.000072
382.8564	0.001848
383.0728	-0.000705
383.2891	-0.000726
383.5055	-0.000262
383.7219	-0.000431
383.9382	-0.000410
384.1546	0.000054
384.3711	0.000835
384.5875	-0.000114
384.8039	0.000160
385.0204	0.000962
385.2368	0.001362
385.4533	-0.000220
385.6698	-0.000831
385.8863	0.000181
386.1028	0.000645
386.3194	0.001046
386.5359	0.001236
386.7525	0.001615
386.9690	0.000856
387.1856	0.001299
387.4022	0.001299
387.6188	0.001995
387.8355	0.000940
388.0521	0.001510
388.2687	0.001405
388.4854	0.002058
388.7021	0.001236
388.9188	0.001383
389.1355	0.001447
389.3522	0.001932
389.5689	0.001362
389.7856	0.003472
390.0024	0.000835
390.2192	0.004020
390.4359	0.001489
390.6527	0.003936
390.8695	0.003662
391.0863	0.003999
391.3032	0.002734
391.5200	0.002417
391.7369	0.005539
391.9537	0.004147
392.1706	0.003134
392.3875	0.003641
392.6044	0.004674
392.8213	0.004991
393.0383	0.005159
393.2552	0.005602
393.4722	0.005623
393.6891	0.006172
393.9061	0.006066
394.1231	0.005434
394.3401	0.005476
394.5572	0.006720
394.7742	0.006003
394.9912	0.007649
395.2083	0.005771
395.4254	0.007311
395.6425	0.007754
395.8596	0.006974
396.0767	0.008281
396.2938	0.007691
396.5109	0.007754
396.7281	0.008893
396.9453	0.010074
397.1624	0.008450
397.3796	0.009568
397.5968	0.010728
397.8140	0.012247
398.0313	0.010538
398.2485	0.010370
398.4658	0.011994
398.6830	0.011382
398.9003	0.012437
399.1176	0.012078
399.3349	0.014462
399.5522	0.012437
399.7696	0.013007
399.9869	0.012226
400.2043	0.014357
400.4216	0.013998
400.6390	0.013175
400.8564	0.013133
401.0738	0.013682
401.2912	0.015390
401.5087	0.014736
401.7261	0.012880
401.9436	0.015643
402.1610	0.014314
402.3785	0.015643
402.5960	0.015221
402.8135	0.016508
403.0310	0.014989
403.2486	0.016002
403.4661	0.015770
403.6837	0.015960
403.9013	0.016234
404.1189	0.017036
404.3365	0.016804
404.5541	0.016635
404.7717	0.017078
404.9893	0.018154
405.2070	0.018997
405.4246	0.018681
405.6423	0.017479
405.8600	0.019588
406.0777	0.019103
406.2954	0.019883
406.5131	0.018786
406.7309	0.019124
406.9486	0.016656
407.1664	0.018259
407.3842	0.018829
407.6020	0.017711
407.8198	0.017711
408.0376	0.017900
408.2554	0.018639
408.4733	0.019736
408.6911	0.019356
408.9090	0.020073
409.1269	0.019778
409.3448	0.020200
409.5627	0.020537
409.7806	0.020812
409.9985	0.020137
410.2165	0.018618
410.4344	0.019968
410.6524	0.020200
410.8704	0.020833
411.0884	0.019736
411.3064	0.021086
411.5244	0.020980
411.7424	0.021149
411.9605	0.020812
412.1785	0.022499
412.3966	0.021782
412.6147	0.021592
412.8328	0.021022
413.0509	0.021297
413.2690	0.023343
413.4871	0.021761
413.7053	0.020200
413.9234	0.020833
414.1416	0.021297
414.3598	0.021719
414.5780	0.020875
414.7962	0.022731
415.0144	0.022858
415.2326	0.021550
415.4509	0.023216
415.6692	0.022035
415.8874	0.023069
416.1057	0.022668
416.3240	0.021782
416.5423	0.021824
416.7606	0.022267
416.9790	0.021634
417.1973	0.021044
417.4157	0.021086
417.6341	0.023554
417.8524	0.020622
418.0708	0.023069
418.2893	0.022900
418.5077	0.021465
418.7261	0.024461
418.9446	0.021972
419.1630	0.023301
419.3815	0.022583
419.6000	0.023786
419.8185	0.025178
420.0370	0.025537
420.2555	0.024123
420.4741	0.024587
420.6926	0.022900
420.9112	0.023111
421.1298	0.025769
421.3483	0.025663
421.5669	0.027773
421.7856	0.028595
422.0042	0.026802
422.2228	0.028026
422.4415	0.030135
422.6601	0.025600
422.8788	0.027562
423.0975	0.026887
423.3162	0.025769
423.5349	0.028384
423.7536	0.026929
423.9724	0.025284
424.1911	0.025916
424.4099	0.024841
424.6287	0.024313
424.8475	0.024250
425.0663	0.023723
425.2851	0.024440
425.5039	0.024883
425.7228	0.023512
425.9416	0.023849
426.1605	0.023723
426.3793	0.022330
426.5982	0.022520
426.8171	0.022520
427.0361	0.023491
427.2550	0.021613
427.4739	0.024672
427.6929	0.025073
427.9118	0.025516
428.1308	0.025157
428.3498	0.023891
428.5688	0.022035
428.7878	0.024566
429.0068	0.023132
429.2259	0.025748
429.4449	0.025663
429.6640	0.027182
429.8831	0.026465
430.1022	0.029249
430.3213	0.027456
430.5404	0.028237
430.7595	0.027034
430.9787	0.028638
431.1978	0.027266
431.4170	0.026634
431.6362	0.024355
431.8553	0.023723
432.0745	0.020200
432.2938	0.020748
432.5130	0.022583
432.7322	0.021676
432.9515	0.023680
433.1707	0.023427
433.3900	0.022583
433.6093	0.026528
433.8286	0.027098
434.0479	0.027604
434.2673	0.025389
434.4866	0.023976
434.7059	0.022373
434.9253	0.023216
435.1447	0.024566
435.3641	0.024398
435.5835	0.021972
435.8029	0.023491
436.0223	0.023575
436.2418	0.023701
436.4612	0.024566
436.6807	0.025938
436.9001	0.023849
437.1196	0.025009
437.3391	0.021993
437.5586	0.024672
437.7782	0.022668
437.9977	0.023554
438.2173	0.022816
438.4368	0.023638
438.6564	0.022816
438.8760	0.024229
439.0956	0.023934
439.3152	0.024060
439.5348	0.025452
439.7545	0.024123
439.9741	0.021592
440.1938	0.022562
440.4135	0.021866
440.6331	0.022246
440.8528	0.023807
441.0725	0.026402
441.2923	0.027541
441.5120	0.027625
441.7318	0.026402
441.9515	0.027077
442.1713	0.026823
442.3911	0.027752
442.6109	0.023976
442.8307	0.025073
443.0505	0.023512
443.2703	0.025874
443.4902	0.025748
443.7101	0.027098
443.9299	0.024777
444.1498	0.025284
444.3697	0.027878
444.5896	0.024988
444.8095	0.025895
445.0295	0.026402
445.2494	0.025537
445.4694	0.025642
445.6894	0.024292
445.9093	0.024229
446.1293	0.023891
446.3493	0.025030
446.5694	0.023934
446.7894	0.024777
447.0094	0.023596
447.2295	0.024587
447.4496	0.023596
447.6696	0.025558
447.8897	0.021191
448.1098	0.021613
448.3300	0.021360
448.5501	0.022330
448.7702	0.024524
448.9904	0.022183
449.2106	0.022668
449.4307	0.022858
449.6509	0.021719
449.8711	0.022963
450.0914	0.021044
450.3116	0.020263
450.5318	0.019609
450.7521	0.022225
450.9724	0.019820
451.1926	0.020179
451.4129	0.018744
451.6332	0.019651
451.8535	0.019947
452.0739	0.019314
452.2942	0.017964
452.5146	0.019145
452.7349	0.019778
452.9553	0.019103
453.1757	0.018913
453.3961	0.017479
453.6165	0.018386
453.8369	0.018533
454.0574	0.016635
454.2778	0.019757
454.4983	0.018744
454.7188	0.017099
454.9393	0.017964
455.1597	0.017858
455.3803	0.017015
455.6008	0.017690
455.8213	0.018386
456.0419	0.017837
456.2624	0.016318
456.4830	0.015601
456.7036	0.015960
456.9242	0.016888
457.1448	0.016192
457.3654	0.016635
457.5860	0.015559
457.8067	0.018196
458.0274	0.015496
458.2480	0.017225
458.4687	0.016403
458.6894	0.017331
458.9101	0.018027
459.1308	0.016318
459.3516	0.019040
459.5723	0.016698
459.7931	0.016002
460.0138	0.015390
460.2346	0.015960
460.4554	0.016529
460.6762	0.013724
460.8970	0.015686
461.1178	0.015369
461.3387	0.015622
461.5595	0.013829
461.7804	0.014420
462.0013	0.013534
462.2222	0.012606
462.4431	0.013682
462.6640	0.013218
462.8849	0.011403
463.1059	0.014040
463.3268	0.012964
463.5478	0.013386
463.7687	0.013703
463.9897	0.013745
464.2107	0.014293
464.4317	0.013091
464.6528	0.014757
464.8738	0.011825
465.0948	0.014293
465.3159	0.013428
465.5370	0.014378
465.7581	0.013724
465.9792	0.014694
466.2003	0.013281
466.4214	0.013260
466.6425	0.013323
466.8637	0.011340
467.0848	0.010602
467.3060	0.008830
467.5272	0.009041
467.7484	0.012796
467.9696	0.011150
468.1908	0.010264
468.4120	0.008956
468.6333	0.009948
468.8545	0.011804
469.0758	0.011087
469.2970	0.008366
469.5183	0.010201
469.7396	0.007142
469.9610	0.007121
470.1823	0.009062
470.4036	0.008028
470.6250	0.007416
470.8463	0.009357
471.0677	0.007775
471.2891	0.007121
471.5105	0.008345
471.7319	0.006741
471.9533	0.006868
472.1748	0.008492
472.3962	0.007691
472.6177	0.007206
472.8391	0.007986
473.0606	0.007817
473.2821	0.008113
473.5036	0.008619
473.7251	0.007923
473.9467	0.008281
474.1682	0.007248
474.3898	0.009442
474.6113	0.009505
474.8329	0.008661
475.0545	0.007585
475.2761	0.008703
475.4977	0.007627
475.7193	0.007902
475.9410	0.007606
476.1626	0.008450
476.3843	0.007290
476.6060	0.008218
476.8277	0.006467
477.0494	0.006172
477.2711	0.006383
477.4928	0.006045
477.7145	0.006172
477.9363	0.006657
478.1580	0.005286
478.3798	0.007522
478.6016	0.005792
478.8234	0.005518
479.0452	0.005265
479.2670	0.005898
479.4888	0.006952
479.7107	0.006045
479.9325	0.006531
480.1544	0.007459
480.3763	0.005792
480.5982	0.008429
480.8201	0.005328
481.0420	0.006509
481.2639	0.006172
481.4859	0.006003
481.7078	0.005771
481.9298	0.006594
482.1517	0.005623
482.3737	0.007649
482.5957	0.005982
482.8177	0.004632
483.0398	0.006109
483.2618	0.005750
483.4838	0.004527
483.7059	0.005476
483.9280	0.005792
484.1501	0.005623
484.3721	0.005265
484.5943	0.005159
484.8164	0.005645
485.0385	0.005476
485.2606	0.006425
485.4828	0.008028
485.7050	0.011762
485.9271	0.016909
486.1493	0.015981
486.3715	0.014631
486.5937	0.012859
486.8160	0.009252
487.0382	0.009863
487.2605	0.008092
487.4827	0.006826
487.7050	0.005497
487.9273	0.005518
488.1496	0.004442
488.3719	0.005286
488.5942	0.004484
488.8165	0.005265
489.0389	0.004147
489.2612	0.003134
489.4836	0.004168
489.7060	0.004210
489.9284	0.003514
490.1508	0.003324
490.3732	0.003978
490.5956	0.003409
490.8180	0.003788
491.0405	0.003852
491.2630	0.004885
491.4854	0.004864
491.7079	0.003535
491.9304	0.003366
492.1529	0.003767
492.3755	0.003662
492.5980	0.002375
492.8205	0.004737
493.0431	0.002396
493.2657	0.002860
493.4882	0.003324
493.7108	0.003282
493.9334	0.003809
494.1561	0.004105
494.3787	0.001805
494.6013	0.003788
494.8240	0.004991
495.0466	0.002544
495.2693	0.002438
495.4920	0.001151
495.7147	0.002269
495.9374	0.003662
496.1601	0.003809
496.3829	0.001658
496.6056	0.002122
496.8284	0.004252
497.0511	0.004927
497.2739	0.002269
497.4967	0.002312
497.7195	0.001826
497.9423	0.003725
498.1652	0.001320
498.3880	0.002881
498.6109	0.001911
498.8337	0.002881
499.0566	0.003050
499.2795	0.003788
499.5024	0.002586
499.7253	0.003387
499.9482	0.003345
500.1712	0.002797
500.3941	0.003261
500.6171	0.002565
500.8400	0.001637
501.0630	0.002755
501.2860	0.001700
501.5090	0.001890
501.7320	0.003556
501.9551	0.002712
502.1781	0.002185
502.4012	0.002839
502.6242	0.002586
502.8473	0.003409
503.0704	0.002712
503.2935	0.002143
503.5166	0.003176
503.7397	0.003746
503.9628	0.002712
504.1860	0.002206
504.4092	0.003303
504.6323	0.002459
504.8555	0.003155
505.0787	0.002649
505.3019	0.003767
505.5251	0.003788
505.7483	0.003282
505.9716	0.002607
506.1948	0.003366
506.4181	0.002058
506.6414	0.002966
506.8647	0.003493
507.0880	0.002501
507.3113	0.003641
507.5346	0.002734
507.7579	0.001953
507.9813	0.002923
508.2046	0.003430
508.4280	0.001489
508.6514	0.002396
508.8748	0.002375
509.0982	0.002839
509.3216	0.001700
509.5450	0.003598
509.7685	0.002312
509.9919	0.002712
510.2154	0.001848
510.4388	0.001637
510.6623	0.002248
510.8858	0.002333
511.1093	0.001869
511.3329	0.002480
511.5564	0.002966
511.7799	0.002881
512.0035	0.002544
512.2270	0.002523
512.4506	0.001510
512.6742	0.002438
512.8978	0.001594
513.1214	0.002607
513.3451	0.003050
513.5687	0.003535
513.7923	0.002037
514.0160	0.002902
514.2397	0.001637
514.4634	0.001236
514.6871	0.001826
514.9108	0.002923
515.1345	0.001784
515.3582	0.003345
515.5819	0.001974
515.8057	0.002607
516.0295	0.002966
516.2532	0.000793
516.4770	0.003683
516.7008	0.002396
516.9246	0.002776
517.1485	0.002312
517.3723	0.003303
517.5961	0.002438
517.8200	0.001383
518.0439	0.001067
518.2677	0.001784
518.4916	0.002291
518.7155	0.002122
518.9395	0.002966
519.1634	0.002417
519.3873	0.002396
519.6113	0.001848
519.8352	0.003472
520.0592	0.003134
520.2832	0.002607
520.5072	0.001383
520.7312	0.002375
520.9552	0.004084
521.1792	0.002058
521.4033	0.003409
521.6273	0.000708
521.8514	0.003029
522.0755	0.003113
522.2996	0.003134
522.5237	0.002944
522.7478	0.001911
522.9719	0.002734
523.1960	0.003472
523.4202	0.003155
523.6443	0.003809
523.8685	0.003113
524.0927	0.003155
524.3169	0.002860
524.5411	0.002438
524.7653	0.002312
524.9895	0.004948
525.2138	0.004041
525.4380	0.004295
525.6623	0.002649
525.8865	0.003683
526.1108	0.003978
526.3351	0.003303
526.5594	0.003050
526.7837	0.003219
527.0081	0.003809
527.2324	0.004252
527.4568	0.003430
527.6811	0.004168
527.9055	0.003493
528.1299	0.003240
528.3543	0.001974
528.5787	0.003725
528.8031	0.004442
529.0276	0.003303
529.2520	0.004421
529.4765	0.003176
529.7009	0.002734
529.9254	0.004927
530.1499	0.003957
530.3744	0.004991
530.5989	0.003198
530.8234	0.003598
531.0480	0.003978
531.2725	0.004421
531.4971	0.003303
531.7217	0.003978
531.9462	0.006277
532.1708	0.004337
532.3954	0.003767
532.6200	0.003050
532.8447	0.005855
533.0693	0.006214
533.2940	0.006277
533.5186	0.005180
533.7433	0.004843
533.9680	0.005434
534.1927	0.005096
534.4174	0.006868
534.6421	0.006172
534.8668	0.006699
535.0916	0.006235
535.3163	0.005202
535.5411	0.006467
535.7659	0.006045
535.9907	0.006531
536.2155	0.007438
536.4403	0.007585
536.6651	0.005560
536.8899	0.006784
537.1148	0.007184
537.3396	0.007501
537.5645	0.008134
537.7894	0.007290
538.0143	0.008218
538.2392	0.006235
538.4641	0.007163
538.6890	0.008324
538.9139	0.007965
539.1389	0.007986
539.3638	0.009674
539.5888	0.007733
539.8138	0.007859
540.0388	0.009653
540.2638	0.009294
540.4888	0.008745
540.7138	0.007944
540.9389	0.009231
541.1639	0.009779
541.3890	0.010159
541.6140	0.010328
541.8391	0.006045
542.0642	0.009336
542.2893	0.009969
542.5144	0.010834
542.7396	0.010728
542.9647	0.011003
543.1899	0.011509
543.4150	0.011235
543.6402	0.010349
543.8654	0.012289
544.0906	0.011867
544.3158	0.011509
544.5410	0.010918
544.7662	0.013407
544.9915	0.013597
545.2167	0.014821
545.4420	0.012985
545.6673	0.011720
545.8926	0.013133
546.1179	0.012690
546.3432	0.011931
546.5685	0.012817
546.7938	0.012775
547.0192	0.012627
547.2445	0.011403
547.4699	0.015348
547.6953	0.014610
547.9206	0.017352
548.1460	0.016550
548.3715	0.017352
548.5969	0.015517
548.8223	0.017183
549.0478	0.016044
549.2732	0.015454
549.4987	0.014905
549.7242	0.014652
549.9496	0.015728
550.1751	0.015791
550.4007	0.013428
550.6262	0.016129
550.8517	0.014821
551.0773	0.017120
551.3028	0.014146
551.5284	0.014631
551.7540	0.015243
551.9796	0.018111
552.2052	0.018597
552.4308	0.018322
552.6564	0.019672
552.8820	0.018723
553.1077	0.018850
553.3333	0.020242
553.5590	0.017900
553.7847	0.020685
554.0104	0.020284
554.2361	0.023069
554.4618	0.018786
554.6875	0.019251
554.9132	0.017479
555.1390	0.020073
555.3648	0.021381
555.5905	0.020643
555.8163	0.020305
556.0421	0.022710
556.2679	0.023237
556.4937	0.023259
556.7195	0.022056
556.9454	0.021951
557.1712	0.021529
557.3971	0.020769
557.6230	0.020073
557.8488	0.022351
558.0747	0.023385
558.3006	0.021297
558.5266	0.022710
558.7525	0.020875
558.9784	0.018365
559.2044	0.022035
559.4303	0.021297
559.6563	0.021761
559.8823	0.022204
560.1083	0.025326
560.3343	0.025009
560.5603	0.027330
560.7863	0.027309
561.0124	0.028933
561.2384	0.028722
561.4645	0.029418
561.6905	0.029629
561.9166	0.031253
562.1427	0.027878
562.3688	0.026655
562.5949	0.026676
562.8211	0.026845
563.0472	0.028005
563.2733	0.029418
563.4995	0.027562
563.7257	0.030388
563.9519	0.030684
564.1781	0.032582
564.4043	0.030578
564.6305	0.031844
564.8567	0.032688
565.0829	0.033257
565.3092	0.036021
565.5355	0.036443
565.7617	0.033405
565.9880	0.033384
566.2143	0.035050
566.4406	0.036379
566.6669	0.033827
566.8932	0.037307
567.1196	0.037708
567.3459	0.043277
567.5723	0.044416
567.7987	0.044944
568.0250	0.046125
568.2514	0.048656
568.4778	0.049732
568.7043	0.054795
568.9307	0.056124
569.1571	0.059183
569.3836	0.068169
569.6100	0.073337
569.8365	0.082429
570.0630	0.086500
570.2895	0.087407
570.5160	0.090002
570.7425	0.086964
570.9690	0.091394
571.1956	0.102954
571.4221	0.106139
571.6487	0.107341
571.8752	0.111624
572.1018	0.120040
572.3284	0.112489
572.5550	0.109556
572.7816	0.097132
573.0082	0.098482
573.2349	0.102152
573.4615	0.113585
573.6882	0.124175
573.9149	0.127888
574.1415	0.132254
574.3682	0.140671
574.5949	0.141937
574.8216	0.144088
575.0484	0.148265
575.2751	0.152357
575.5018	0.146240
575.7286	0.137064
575.9554	0.132254
576.1821	0.129069
576.4089	0.138625
576.6357	0.145944
576.8626	0.148476
577.0894	0.153749
577.3162	0.156745
577.5431	0.160837
577.7699	0.178388
577.9968	0.210135
578.2237	0.202604
578.4505	0.188429
578.6774	0.183261
578.9044	0.169739
579.1313	0.160331
579.3582	0.161217
579.5851	0.166237
579.8121	0.170393
580.0391	0.171131
580.2660	0.172081
580.4930	0.171553
580.7200	0.167250
580.9470	0.170857
581.1741	0.207034
581.4011	0.245722
581.6281	0.268314
581.8552	0.270149
582.0822	0.269242
582.3093	0.255320
582.5364	0.239963
582.7635	0.216506
582.9906	0.198639
583.2177	0.182691
583.4449	0.173114
583.6720	0.161597
583.8991	0.151872
584.1263	0.158875
584.3535	0.160605
584.5807	0.165478
584.8079	0.174760
585.0351	0.190602
585.2623	0.197331
585.4895	0.196424
585.7167	0.198280
585.9440	0.190074
586.1713	0.182860
586.3985	0.168030
586.6258	0.162989
586.8531	0.167545
587.0804	0.177101
587.3077	0.191931
587.5350	0.190665
587.7624	0.188534
587.9897	0.178008
588.2171	0.173768
588.4445	0.165394
588.6718	0.166027
588.8992	0.157167
589.1266	0.147337
589.3540	0.136832
589.5815	0.134764
589.8089	0.134195
590.0363	0.133625
590.2638	0.129976
590.4913	0.121897
590.7187	0.117720
590.9462	0.115653
591.1737	0.107573
591.4012	0.106329
591.6288	0.110611
591.8563	0.110463
592.0838	0.109092
592.3114	0.112615
592.5389	0.127445
592.7665	0.151092
592.9941	0.167292
593.2217	0.167419
593.4493	0.166132
593.6769	0.166617
593.9046	0.164086
594.1322	0.150121
594.3598	0.143434
594.5875	0.141325
594.8152	0.151724
595.0429	0.158200
595.2705	0.160837
595.4983	0.157589
595.7260	0.153138
595.9537	0.143624
596.1814	0.135545
596.4092	0.125356
596.6369	0.119534
596.8647	0.119555
597.0925	0.119070
597.3203	0.125757
597.5481	0.120779
597.7759	0.121390
598.0037	0.120083
598.2315	0.111645
598.4594	0.114999
598.6872	0.128584
598.9151	0.146050
599.1430	0.151682
599.3709	0.149467
599.5988	0.147970
599.8267	0.146556
600.0546	0.153749
600.2825	0.152758
600.5105	0.151513
600.7384	0.150142
600.9664	0.155627
601.1944	0.156175
601.4223	0.151767
601.6503	0.146092
601.8783	0.139110
602.1064	0.136536
602.3344	0.137675
602.5624	0.137570
602.7905	0.140755
603.0185	0.143202
603.2466	0.151303
603.4747	0.155732
603.7028	0.158411
603.9309	0.152294
604.1590	0.143730
604.3871	0.138013
604.6152	0.133625
604.8434	0.130482
605.0715	0.126432
605.2997	0.128098
605.5279	0.135397
605.7561	0.141008
605.9843	0.143561
606.2125	0.140840
606.4407	0.135503
606.6689	0.129385
606.8972	0.131917
607.1254	0.130651
607.3537	0.132465
607.5819	0.130904
607.8102	0.130419
608.0385	0.129659
608.2668	0.122530
608.4951	0.118205
608.7235	0.117762
608.9518	0.117319
609.1801	0.115315
609.4085	0.109472
609.6369	0.107806
609.8653	0.116032
610.0936	0.125862
610.3220	0.122740
610.5505	0.121011
610.7789	0.116581
611.0073	0.114303
611.2357	0.112003
611.4642	0.114514
611.6927	0.115611
611.9211	0.113374
612.1496	0.112341
612.3781	0.105591
612.6066	0.103945
612.8351	0.104156
613.0637	0.106160
613.2922	0.107510
613.5208	0.104198
613.7493	0.105886
613.9779	0.105591
614.2065	0.105823
614.4351	0.102701
614.6637	0.103566
614.8923	0.104346
615.1209	0.102279
615.3495	0.107067
615.5782	0.112826
615.8068	0.110695
616.0355	0.107426
616.2642	0.101815
616.4929	0.094853
616.7216	0.093335
616.9503	0.091837
617.1790	0.092807
617.4077	0.090845
617.6365	0.091246
617.8652	0.091415
618.0940	0.092069
618.3227	0.087871
618.5515	0.083294
618.7803	0.079771
619.0091	0.073738
619.2379	0.073843
619.4667	0.074455
619.6956	0.073653
619.9244	0.077640
620.1533	0.080551
620.3821	0.078147
620.6110	0.076396
620.8399	0.070004
621.0688	0.066080
621.2977	0.060385
621.5266	0.060638
621.7556	0.062009
621.9845	0.065616
622.2135	0.068612
622.4424	0.069435
622.6714	0.067388
622.9004	0.071649
623.1294	0.074012
623.3584	0.073759
623.5874	0.070510
623.8164	0.073253
624.0454	0.072177
624.2745	0.070953
624.5035	0.075046
624.7326	0.076417
624.9617	0.075193
625.1908	0.072388
625.4199	0.068654
625.6490	0.066566
625.8781	0.066460
626.1072	0.064098
626.3364	0.061102
626.5655	0.058318
626.7947	0.059372
627.0238	0.059393
627.2530	0.058951
627.4822	0.060237
627.7114	0.059815
627.9406	0.056968
628.1698	0.052875
628.3991	0.051399
628.6283	0.048403
628.8576	0.049268
629.0868	0.048382
629.3161	0.051251
629.5454	0.051905
629.7747	0.053825
630.0040	0.049057
630.2333	0.050681
630.4626	0.047939
630.6920	0.049859
630.9213	0.046336
631.1507	0.043573
631.3801	0.043931
631.6094	0.042286
631.8388	0.046463
632.0682	0.042813
632.2976	0.042328
632.5271	0.039016
632.7565	0.041252
632.9859	0.036000
633.2154	0.036506
633.4448	0.034987
633.6743	0.037244
633.9038	0.036527
634.1333	0.035810
634.3628	0.035514
634.5923	0.036738
634.8218	0.033764
635.0514	0.033574
635.2809	0.035683
635.5105	0.034692
635.7400	0.033848
635.9696	0.038215
636.1992	0.032350
636.4288	0.038257
636.6584	0.040008
636.8880	0.036632
637.1177	0.035029
637.3473	0.033574
637.5770	0.035915
637.8066	0.035282
638.0363	0.036232
638.2660	0.033363
638.4957	0.034607
638.7254	0.036042
638.9551	0.034755
639.1848	0.034017
639.4145	0.032182
639.6443	0.030802
639.8740	0.031496
640.1038	0.031072
640.3336	0.032243
640.5633	0.031674
640.7931	0.031331
641.0229	0.029066
641.2528	0.028662
641.4826	0.027483
641.7124	0.027976
641.9423	0.026491
642.1721	0.025725
642.4020	0.026164
642.6319	0.023678
642.8617	0.024856
643.0916	0.023339
643.3216	0.023834
643.5515	0.025152
643.7814	0.023653
644.0113	0.024109
644.2413	0.024888
644.4712	0.023643
644.7012	0.020867
644.9312	0.020654
645.1612	0.023301
645.3912	0.022684
645.6212	0.021758
645.8512	0.021862
646.0812	0.022507
646.3113	0.022377
646.5413	0.021774
646.7714	0.019578
647.0015	0.021255
647.2316	0.021894
647.4616	0.020285
647.6918	0.020301
647.9219	0.022501
648.1520	0.022526
648.3821	0.025401
648.6123	0.025603
648.8424	0.025733
649.0726	0.028135
649.3028	0.028720
649.5329	0.026980
649.7631	0.026075
649.9933	0.025639
650.2236	0.024172
650.4538	0.023668
650.6840	0.024366
650.9143	0.024898
651.1445	0.024212
651.3748	0.021437
651.6051	0.024398
651.8354	0.025670
652.0657	0.024614
652.2960	0.023990
652.5263	0.026094
652.7566	0.027592
652.9870	0.025248
653.2173	0.026652
653.4477	0.026042
653.6780	0.028210
653.9084	0.025278
654.1388	0.026824
654.3692	0.029111
654.5996	0.029332
654.8300	0.033416
655.0605	0.046615
655.2909	0.130643
655.5213	0.399402
655.7518	0.807530
655.9823	1.000000
656.2128	1.000000
656.4433	1.000000
656.6738	1.000000
656.9043	0.910476
657.1348	0.723526
657.3653	0.591274
657.5959	0.500303
657.8264	0.436783
658.0570	0.395292
658.2875	0.359992
658.5181	0.327940
658.7487	0.309709
658.9793	0.284406
659.2099	0.234862
659.4406	0.159645
659.6712	0.100432
659.9018	0.057796
660.1325	0.036357
660.3632	0.027354
660.5938	0.023756
660.8245	0.021356
661.0552	0.020871
661.2859	0.020286
661.5166	0.020069
661.7474	0.018005
661.9781	0.016599
662.2088	0.018982
662.4396	0.020092
662.6704	0.016583
662.9011	0.019390
663.1319	0.016883
663.3627	0.020519
663.5935	0.017042
663.8243	0.016535
664.0552	0.017050
664.2860	0.015618
664.5168	0.018899
664.7477	0.018955
664.9786	0.017983
665.2094	0.017123
665.4403	0.019935
665.6712	0.021406
665.9021	0.019832
666.1330	0.019654
666.3640	0.018206
666.5949	0.017075
666.8259	0.017097
667.0568	0.017648
667.2878	0.016557
667.5188	0.018284
667.7497	0.016660
667.9807	0.017353
668.2117	0.018991
668.4428	0.017268
668.6738	0.017542
668.9048	0.016972
669.1359	0.016804
669.3669	0.017668
669.5980	0.017521
669.8291	0.017500
670.0602	0.018069
670.2913	0.018512
670.5224	0.017964
670.7535	0.019968
670.9846	0.017584
671.2157	0.019272
671.4469	0.021276
671.6781	0.023638
671.9092	0.022710
672.1404	0.026950
672.3716	0.028427
672.6028	0.028954
672.8340	0.028574
673.0652	0.028933
673.2964	0.027034
673.5277	0.025115
673.7589	0.025178
673.9902	0.023174
674.2214	0.022541
674.4527	0.023111
674.6840	0.022794
674.9153	0.022077
675.1466	0.023069
675.3779	0.019820
675.6093	0.023026
675.8406	0.020664
676.0719	0.020622
676.3033	0.019841
676.5347	0.020453
676.7661	0.020516
676.9974	0.019440
677.2288	0.018111
677.4602	0.019778
677.6917	0.021803
677.9231	0.023870
678.1545	0.023216
678.3860	0.023891
678.6174	0.023997
678.8489	0.024630
679.0804	0.025684
679.3119	0.026338
679.5434	0.027372
679.7749	0.027709
680.0064	0.030663
680.2379	0.030009
680.4694	0.030114
680.7010	0.027372
680.9325	0.028089
681.1641	0.028005
681.3957	0.029081
681.6273	0.028174
681.8589	0.026781
682.0905	0.027393
682.3221	0.024988
682.5537	0.024946
682.7854	0.025938
683.0170	0.024693
683.2487	0.025094
683.4803	0.023237
683.7120	0.027752
683.9437	0.026127
684.1754	0.027288
684.4071	0.028427
684.6388	0.030557
684.8705	0.031169
685.1023	0.034839
685.3340	0.034396
685.5658	0.036548
685.7975	0.034924
686.0293	0.035240
686.2611	0.035367
686.4929	0.036168
686.7247	0.038510
686.9565	0.035662
687.1883	0.036991
687.4202	0.036400
687.6520	0.035957
687.8838	0.034502
688.1157	0.032857
688.3476	0.033510
688.5795	0.032182
688.8114	0.031633
689.0433	0.030810
689.2752	0.031654
689.5071	0.030262
689.7390	0.028827
689.9710	0.027857
690.2029	0.029861
690.4349	0.028131
690.6669	0.027456
690.8988	0.028490
691.1308	0.031063
691.3628	0.031148
691.5948	0.033806
691.8269	0.030768
692.0589	0.031675
692.2909	0.031464
692.5230	0.029861
692.7550	0.031591
692.9871	0.030895
693.2192	0.031359
693.4513	0.032667
693.6834	0.031696
693.9155	0.028975
694.1476	0.029460
694.3797	0.028806
694.6119	0.028026
694.8440	0.027309
695.0762	0.026971
695.3083	0.028933
695.5405	0.026929
695.7727	0.026570
696.0049	0.025284
696.2371	0.024693
696.4693	0.024862
696.7016	0.030325
696.9338	0.032414
697.1660	0.031823
697.3983	0.032371
697.6306	0.031612
697.8628	0.031675
698.0951	0.033785
698.3274	0.033046
698.5597	0.031949
698.7920	0.031274
699.0243	0.031063
699.2567	0.030156
699.4890	0.027372
699.7214	0.028047
699.9537	0.027731
700.1861	0.027245
700.4185	0.026212
700.6509	0.025368
700.8833	0.025284
701.1157	0.022879
701.3481	0.022394
701.5806	0.023934
701.8130	0.024292
702.0454	0.026781
702.2779	0.024482
702.5104	0.025727
702.7429	0.025495
702.9753	0.026507
703.2078	0.024271
703.4403	0.023364
703.6729	0.024313
703.9054	0.024925
704.1379	0.021318
704.3705	0.022816
704.6030	0.022267
704.8356	0.020601
705.0682	0.018808
705.3008	0.020137
705.5334	0.020158
705.7660	0.019103
705.9986	0.019841
706.2312	0.024609
706.4638	0.025832
706.6965	0.027963
706.9291	0.029060
707.1618	0.031000
707.3945	0.030557
707.6272	0.033595
707.8599	0.030515
708.0926	0.032055
708.3253	0.031760
708.5580	0.032329
708.7907	0.030747
709.0235	0.030810
709.2562	0.028785
709.4890	0.027456
709.7217	0.027541
709.9545	0.028110
710.1873	0.029270
710.4201	0.029777
710.6529	0.029313
710.8857	0.028300
711.1186	0.025326
711.3514	0.025748
711.5842	0.027857
711.8171	0.024630
712.0500	0.022752
712.2828	0.023575
712.5157	0.025073
712.7486	0.025157
712.9815	0.023364
713.2144	0.025262
713.4474	0.027435
713.6803	0.028279
713.9132	0.026613
714.1462	0.028617
714.3791	0.029460
714.6121	0.029671
714.8451	0.028384
715.0781	0.028152
715.3111	0.027477
715.5441	0.029924
715.7771	0.028891
716.0102	0.028026
716.2432	0.025558
716.4762	0.025241
716.7093	0.022731
716.9424	0.023533
717.1754	0.020790
717.4085	0.022963
717.6416	0.021233
717.8747	0.022457
718.1078	0.021993
718.3410	0.024398
718.5741	0.024440
718.8072	0.023259
719.0404	0.025579
719.2736	0.025368
719.5067	0.026085
719.7399	0.024208
719.9731	0.023849
720.2063	0.024060
720.4395	0.024250
720.6727	0.023976
720.9060	0.024630
721.1392	0.025009
721.3725	0.025199
721.6057	0.024419
721.8390	0.023680
722.0723	0.024651
722.3055	0.024946
722.5388	0.022351
722.7721	0.024144
723.0055	0.021487
723.2388	0.022647
723.4721	0.022520
723.7055	0.023090
723.9388	0.023976
724.1722	0.022436
724.4056	0.021719
724.6389	0.020474
724.8723	0.023638
725.1057	0.024883
725.3391	0.025684
725.5726	0.026823
725.8060	0.026507
726.0394	0.028532
726.2729	0.027034
726.5063	0.028384
726.7398	0.026191
726.9733	0.026908
727.2068	0.026950
727.4403	0.025389
727.6738	0.027224
727.9073	0.025874
728.1408	0.026887
728.3743	0.029207
728.6079	0.029313
728.8414	0.025832
729.0750	0.029123
729.3086	0.027182
729.5421	0.030557
729.7757	0.030051
730.0093	0.031085
730.2429	0.030642
730.4766	0.032097
730.7102	0.033932
730.9438	0.035599
731.1775	0.037244
731.4111	0.035367
731.6448	0.034291
731.8785	0.035704
732.1122	0.034418
732.3458	0.034439
732.5795	0.033616
732.8133	0.034671
733.0470	0.033785
733.2807	0.037139
733.5145	0.035873
733.7482	0.037750
733.9820	0.038721
734.2157	0.040155
734.4495	0.043277
734.6833	0.042391
734.9171	0.040978
735.1509	0.038510
735.3847	0.039691
735.6185	0.040936
735.8524	0.040451
736.0862	0.042012
736.3201	0.037793
736.5539	0.038257
736.7878	0.037624
737.0217	0.040683
737.2556	0.039269
737.4895	0.040261
737.7234	0.037286
737.9573	0.034797
738.1912	0.034122
738.4252	0.031654
738.6591	0.033321
738.8931	0.036400
739.1271	0.035620
739.3610	0.038679
739.5950	0.038109
739.8290	0.037687
740.0630	0.035135
740.2970	0.035177
740.5310	0.033616
740.7651	0.031549
740.9991	0.033932
741.2332	0.030178
741.4672	0.028321
741.7013	0.026549
741.9354	0.029798
742.1695	0.029144
742.4036	0.028574
742.6377	0.027456
742.8718	0.026845
743.1059	0.026992
743.3400	0.024166
743.5742	0.026866
743.8083	0.023912
744.0425	0.025094
744.2767	0.024355
744.5108	0.023723
744.7450	0.022162
744.9792	0.024461
745.2134	0.023659
745.4477	0.024250
745.6819	0.023807
745.9161	0.024672
746.1504	0.022794
746.3846	0.022014
746.6189	0.023596
746.8532	0.024187
747.0874	0.023301
747.3217	0.026064
747.5560	0.024925
747.7903	0.026549
748.0247	0.022963
748.2590	0.023406
748.4933	0.023976
748.7277	0.023237
748.9620	0.024714
749.1964	0.026802
749.4308	0.026148
749.6652	0.028933
749.8995	0.031148
750.1339	0.028996
750.3684	0.033510
750.6028	0.033932
750.8372	0.033278
751.0717	0.028743
751.3061	0.031000
751.5406	0.033321
751.7750	0.031443
752.0095	0.034185
752.2440	0.031528
752.4785	0.034291
752.7130	0.028131
752.9475	0.028743
753.1820	0.029481
753.4166	0.030262
753.6511	0.032941
753.8856	0.034776
754.1202	0.035093
754.3548	0.033004
754.5894	0.033637
754.8239	0.034291
755.0585	0.033300
755.2931	0.034270
755.5278	0.035514
755.7624	0.034797
755.9970	0.037139
756.2317	0.039754
756.4663	0.039311
756.7010	0.041126
756.9356	0.041442
757.1703	0.043720
757.4050	0.047074
757.6397	0.051378
757.8744	0.049943
758.1091	0.048867
758.3438	0.048403
758.5786	0.045450
758.8133	0.047306
759.0481	0.045387
759.2828	0.047074
759.5176	0.050217
759.7524	0.050808
759.9872	0.049542
760.2220	0.049374
760.4568	0.052074
760.6916	0.052685
760.9264	0.051799
761.1613	0.049458
761.3961	0.047349
761.6310	0.047180
761.8658	0.043594
762.1007	0.043256
762.3356	0.041948
762.5705	0.039754
762.8054	0.039079
763.0403	0.039691
763.2752	0.041379
763.5101	0.042919
763.7450	0.041737
763.9800	0.040894
764.2149	0.041041
764.4499	0.045471
764.6849	0.048066
764.9198	0.047349
765.1548	0.046948
765.3898	0.047707
765.6248	0.045450
765.8599	0.044248
766.0949	0.041421
766.3299	0.040155
766.5650	0.037244
766.8000	0.033300
767.0351	0.032857
767.2701	0.031865
767.5052	0.030621
767.7403	0.031232
767.9754	0.033236
768.2105	0.034945
768.4456	0.038510
768.6808	0.039776
768.9159	0.041358
769.1510	0.041843
769.3862	0.039122
769.6214	0.037582
769.8565	0.038953
770.0917	0.035536
770.3269	0.037919
770.5621	0.039691
770.7973	0.038953
771.0325	0.040957
771.2677	0.038151
771.5030	0.039923
771.7382	0.037898
771.9735	0.035578
772.2087	0.035177
772.4440	0.033363
772.6793	0.031401
772.9146	0.033911
773.1499	0.033447
773.3852	0.032667
773.6205	0.030874
773.8558	0.031274
774.0911	0.029313
774.3265	0.027477
774.5618	0.026317
774.7972	0.025705
775.0326	0.026507
775.2679	0.023301
775.5033	0.023786
775.7387	0.023237
775.9741	0.021149
776.2095	0.021930
776.4450	0.021444
776.6804	0.020284
776.9158	0.020137
777.1513	0.022942
777.3868	0.019630
777.6222	0.019588
777.8577	0.020369
778.0932	0.020263
778.3287	0.021022
778.5642	0.022879
778.7997	0.022710
779.0352	0.023174
779.2707	0.025705
779.5063	0.025642
779.7418	0.024820
779.9774	0.024587
780.2130	0.023343
780.4485	0.023427
780.6841	0.023469
780.9197	0.024904
781.1553	0.028722
781.3909	0.029355
781.6265	0.029270
781.8622	0.028174
782.0978	0.029503
782.3335	0.028954
782.5691	0.029144
782.8048	0.029988
783.0405	0.027266
783.2761	0.025452
783.5118	0.028785
783.7475	0.028068
783.9832	0.027330
784.2190	0.027203
784.4547	0.025178
784.6904	0.024524
784.9262	0.023849
785.1619	0.024229
785.3977	0.025284
785.6335	0.023406
785.8692	0.024334
786.1050	0.024398
786.3408	0.023638
786.5766	0.022457
786.8124	0.021423
787.0483	0.023026
787.2841	0.020812
787.5199	0.025094
787.7558	0.025431
787.9917	0.024208
788.2275	0.023786
788.4634	0.023997
788.6993	0.026528
788.9352	0.024398
789.1711	0.027857
789.4070	0.023701
789.6429	0.023723
789.8789	0.024060
790.1148	0.023216
790.3507	0.022077
790.5867	0.021887
790.8227	0.019504
791.0586	0.019103
791.2946	0.020158
791.5306	0.020685
791.7666	0.020495
792.0026	0.018322
792.2387	0.018850
792.4747	0.019841
792.7107	0.016593
792.9468	0.019377
793.1828	0.017563
793.4189	0.018133
793.6550	0.019736
793.8910	0.020833
794.1271	0.025874
794.3632	0.026170
794.5993	0.026655
794.8355	0.025473
795.0716	0.026338
795.3077	0.028406
795.5439	0.022858
795.7800	0.023069
796.0162	0.020748
796.2523	0.021022
796.4885	0.018365
796.7247	0.018196
796.9609	0.018533
797.1971	0.018702
797.4333	0.018850
797.6695	0.020305
797.9058	0.018597
798.1420	0.019504
798.3783	0.019229
798.6145	0.018365
798.8508	0.018470
799.0871	0.017943
799.3233	0.018702
799.5596	0.018702
799.7959	0.018618
800.0322	0.016867
800.2686	0.016572
800.5049	0.016677
800.7412	0.016825
800.9776	0.016297
801.2139	0.015454
801.4503	0.015580
801.6867	0.014863
801.9230	0.013703
802.1594	0.014040
802.3958	0.014399
802.6322	0.014652
802.8686	0.013239
803.1051	0.012606
803.3415	0.014525
803.5779	0.014947
803.8144	0.013133
804.0508	0.015812
804.2873	0.014336
804.5238	0.014694
804.7603	0.013893
804.9968	0.014230
805.2333	0.013618
805.4698	0.014420
805.7063	0.014546
805.9428	0.016909
806.1794	0.018702
806.4159	0.019314
806.6525	0.020474
806.8890	0.019630
807.1256	0.020115
807.3622	0.018892
807.5988	0.018407
807.8354	0.018639
808.0720	0.020537
808.3086	0.020474
808.5452	0.018765
808.7818	0.020305
809.0185	0.018955
809.2551	0.018976
809.4918	0.017900
809.7284	0.018280
809.9651	0.016508
810.2018	0.016487
810.4385	0.015749
810.6752	0.016065
810.9119	0.015897
811.1486	0.017753
811.3853	0.016234
811.6221	0.014420
811.8588	0.015981
812.0956	0.012078
812.3323	0.011846
812.5691	0.011509
812.8059	0.014209
813.0427	0.013450
813.2795	0.011593
813.5163	0.014314
813.7531	0.014378
813.9899	0.015833
814.2267	0.014546
814.4636	0.014525
814.7004	0.014589
814.9373	0.012479
815.1742	0.012163
815.4110	0.012669
815.6479	0.012416
815.8848	0.010855
816.1217	0.011678
816.3586	0.011150
816.5955	0.012521
816.8324	0.010011
817.0694	0.012585
817.3063	0.010918
817.5433	0.013007
817.7802	0.011994
818.0172	0.011572
818.2542	0.012542
818.4912	0.009146
818.7282	0.010623
818.9652	0.009653
819.2022	0.009842
819.4392	0.010032
819.6762	0.008218
819.9133	0.010096
820.1503	0.009758
820.3874	0.011530
820.6244	0.012732
820.8615	0.013133
821.0986	0.012078
821.3357	0.013513
821.5727	0.012078
821.8099	0.012289
822.0470	0.010475
822.2841	0.010644
822.5212	0.009927
822.7584	0.008745
822.9955	0.010560
823.2327	0.009906
823.4698	0.008956
823.7070	0.010264
823.9442	0.008935
824.1814	0.009568
824.4186	0.009020
824.6558	0.008935
824.8930	0.008872
825.1302	0.008450
825.3675	0.009210
825.6047	0.010433
825.8419	0.012859
826.0792	0.009842
826.3165	0.010665
826.5537	0.010391
826.7910	0.009273
827.0283	0.010623
827.2656	0.010412
827.5029	0.010496
827.7402	0.011003
827.9776	0.011551
828.2149	0.009758
828.4522	0.011593
828.6896	0.008914
828.9270	0.009716
829.1643	0.010180
829.4017	0.010918
829.6391	0.009674
829.8765	0.010053
830.1139	0.009821
830.3513	0.009969
830.5887	0.005877
830.8261	0.007902
831.0636	0.007564
831.3010	0.008577
831.5385	0.005645
831.7759	0.006214
832.0134	0.005687
832.2509	0.006910
832.4884	0.006763
832.7259	0.006720
832.9634	0.006552
833.2009	0.007037
833.4384	0.007585
833.6759	0.007100
833.9135	0.009146
834.1510	0.007269
834.3886	0.009969
834.6261	0.007859
834.8637	0.006847
835.1013	0.010117
835.3389	0.006931
835.5765	0.008260
835.8141	0.008577
836.0517	0.007817
836.2893	0.008429
836.5269	0.007058
836.7646	0.006172
837.0022	0.006615
837.2399	0.004970
837.4775	0.006910
837.7152	0.005940
837.9529	0.004927
838.1906	0.004716
838.4283	0.004927
838.6660	0.005159
838.9037	0.005138
839.1414	0.006594
839.3791	0.004695
839.6169	0.007311
839.8546	0.007142
840.0924	0.004822
840.3302	0.005708
840.5679	0.005834
840.8057	0.006531
841.0435	0.004759
841.2813	0.004906
841.5191	0.005244
841.7569	0.006763
841.9947	0.004885
842.2326	0.004611
842.4704	0.005223
842.7082	0.003809
842.9461	0.002966
843.1840	0.004864
843.4218	0.003451
843.6597	0.004463
843.8976	0.005244
844.1355	0.004759
844.3734	0.003535
844.6113	0.004801
844.8492	0.003134
845.0872	0.003936
845.3251	0.004948
845.5631	0.005265
845.8010	0.003978
846.0390	0.004189
846.2770	0.004400
846.5149	0.003050
846.7529	0.003176
846.9909	0.004210
847.2289	0.003683
847.4669	0.004062
847.7050	0.004084
847.9430	0.004822
848.1810	0.004442
848.4191	0.003852
848.6571	0.004062
848.8952	0.004062
849.1333	0.004189
849.3713	0.003725
849.6094	0.005223
849.8475	0.004843
850.0856	0.004358
850.3237	0.003999
850.5619	0.003852
850.8000	0.004168
851.0381	0.003662
851.2763	0.003936
851.5144	0.003430
851.7526	0.005159
851.9908	0.004316
852.2289	0.006383
852.4671	0.006298
852.7053	0.008471
852.9435	0.008977
853.1817	0.009653
853.4200	0.010032
853.6582	0.011340
853.8964	0.011066
854.1347	0.010475
854.3729	0.011129
854.6112	0.012690
854.8495	0.011129
855.0877	0.011467
855.3260	0.010011
855.5643	0.011066
855.8026	0.010517
856.0409	0.009526
856.2792	0.011720
856.5176	0.010011
856.7559	0.011003
856.9942	0.009842
857.2326	0.009842
857.4710	0.008745
857.7093	0.008598
857.9477	0.008556
858.1861	0.007923
858.4245	0.007374
858.6629	0.008239
858.9013	0.007016
859.1397	0.008556
859.3781	0.009589
859.6166	0.006826
859.8550	0.006931
860.0935	0.005666
860.3319	0.005413
860.5704	0.006720
860.8089	0.006573
861.0473	0.004885
861.2858	0.006573
861.5243	0.005687
861.7628	0.006235
862.0013	0.005602
862.2399	0.006109
862.4784	0.003598
862.7169	0.005476
862.9555	0.004737
863.1940	0.004126
863.4326	0.004358
863.6712	0.007269
863.9098	0.006214
864.1483	0.005708
864.3869	0.004527
864.6255	0.004885
864.8642	0.004147
865.1028	0.005940
865.3414	0.004569
865.5800	0.004822
865.8187	0.002649
866.0573	0.004674
866.2960	0.003493
866.5347	0.002101
866.7733	0.005075
867.0120	0.003409
867.2507	0.005117
867.4894	0.004822
867.7281	0.004906
867.9669	0.005877
868.2056	0.005096
868.4443	0.003978
868.6831	0.005349
868.9218	0.004864
869.1606	0.003725
869.3993	0.003366
869.6381	0.004843
869.8769	0.004273
870.1157	0.004210
870.3545	0.002417
870.5933	0.003662
870.8321	0.004927
871.0709	0.003936
871.3097	0.004991
871.5486	0.004695
871.7874	0.002712
872.0263	0.005054
872.2651	0.004885
872.5040	0.005286
872.7429	0.004105
872.9818	0.004168
873.2207	0.003852
873.4596	0.003999
873.6985	0.004590
873.9374	0.003873
874.1763	0.004442
874.4153	0.005012
874.6542	0.003134
874.8932	0.005834
875.1321	0.004864
875.3711	0.004822
875.6101	0.004674
875.8491	0.003134
876.0880	0.004948
876.3270	0.004780
876.5661	0.005054
876.8051	0.003767
877.0441	0.004674
877.2831	0.003704
877.5222	0.004252
877.7612	0.005033
878.0003	0.004400
878.2393	0.006130
878.4784	0.005391
878.7175	0.005054
878.9566	0.006763
879.1957	0.005539
879.4348	0.006298
879.6739	0.007206
879.9130	0.005623
880.1521	0.005602
880.3913	0.005771
880.6304	0.008007
880.8696	0.005855
881.1087	0.006594
881.3479	0.007416
881.5871	0.007311
881.8262	0.005497
882.0654	0.005602
882.3046	0.005054
882.5438	0.005180
882.7831	0.004864
883.0223	0.004632
883.2615	0.005898
883.5007	0.006003
883.7400	0.004632
883.9792	0.005138
884.2185	0.004147
884.4578	0.005708
884.6971	0.005877
884.9363	0.006805
885.1756	0.004527
885.4149	0.005117
885.6542	0.005265
885.8936	0.004927
886.1329	0.005771
886.3722	0.005581
886.6116	0.004927
886.8509	0.004442
887.0903	0.005687
887.3296	0.005434
887.5690	0.003387
887.8084	0.004716
888.0478	0.003493
888.2872	0.004822
888.5266	0.003535
888.7660	0.005391
889.0054	0.004168
889.2448	0.004379
889.4843	0.002565
889.7237	0.003493
889.9632	0.003176
890.2026	0.003240
890.4421	0.004737
890.6816	0.001721
890.9211	0.003240
891.1606	0.003662
891.4001	0.003387
891.6396	0.004105
891.8791	0.004843
892.1186	0.005138
892.3581	0.004569
892.5977	0.002712
892.8372	0.002523
893.0768	0.004737
893.3163	0.002734
893.5559	0.003767
893.7955	0.002755
894.0351	0.003662
894.2747	0.003282
894.5143	0.004084
894.7539	0.003746
894.9935	0.003261
895.2331	0.003303
895.4727	0.002902
895.7124	0.003493
895.9520	0.003767
896.1917	0.002122
896.4314	0.004569
896.6710	0.004927
896.9107	0.003619
897.1504	0.003999
897.3901	0.002565
897.6298	0.004780
897.8695	0.005117
898.1092	0.002649
898.3489	0.003767
898.5887	0.003915
898.8284	0.004991
899.0682	0.002396
899.3079	0.003598
899.5477	0.002818
899.7875	0.003176
900.0272	0.003092
900.2670	0.004948
900.5068	0.001278
900.7466	0.005518
900.9864	0.003704
901.2263	0.002966
901.4661	0.004484
901.7059	0.003957
901.9458	0.003113
902.1856	0.003957
902.4255	0.003577
902.6654	0.004337
902.9052	0.002734
903.1451	0.004168
903.3850	0.003999
903.6249	0.002438
903.8648	0.004653
904.1047	0.002839
904.3446	0.003598
904.5846	0.003936
904.8245	0.002860
905.0644	0.004527
905.3044	0.004041
905.5444	0.003598
905.7843	0.004801
906.0243	0.005581
906.2643	0.003029
906.5043	0.005898
906.7443	0.004906
906.9843	0.003556
907.2243	0.002628
907.4643	0.003767
907.7043	0.003387
907.9444	0.003936
908.1844	0.003261
908.4245	0.003577
908.6645	0.002565
908.9046	0.004569
909.1447	0.002987
909.3847	0.003662
909.6248	0.002607
909.8649	0.002291
910.1050	0.003324
910.3452	0.002438
910.5853	0.002291
910.8254	0.002839
911.0655	0.002776
911.3057	0.003155
911.5458	0.002058
911.7860	0.003303
912.0262	0.003472
912.2663	0.004210
912.5065	0.002459
912.7467	0.003176
912.9869	0.004484
913.2271	0.002607
913.4673	0.002607
913.7075	0.001383
913.9478	0.001151
914.1880	0.002459
914.4283	0.003472
914.6685	0.001531
914.9088	0.002058
915.1490	0.002101
915.3893	0.000497
915.6296	0.002333
915.8699	0.002375
916.1102	0.002691
916.3505	0.001025
916.5908	0.002691
916.8311	0.001531
917.0714	0.002143
917.3118	0.002291
917.5521	0.004548
917.7925	0.004906
918.0328	0.003282
918.2732	0.002227
918.5136	0.002544
918.7539	0.002143
918.9943	0.002291
919.2347	0.002164
919.4751	0.003387
919.7155	0.002860
919.9560	0.003704
920.1964	0.001953
920.4368	0.003261
920.6773	0.002206
920.9177	0.003409
921.1582	0.003050
921.3986	0.003704
921.6391	0.001531
921.8796	0.003493
922.1201	0.001869
922.3606	0.003788
922.6011	0.003176
922.8416	0.003514
923.0821	0.002544
923.3226	0.001826
923.5631	0.003261
923.8037	0.002755
924.0442	0.002016
924.2848	0.001805
924.5254	0.002375
924.7659	0.001826
925.0065	0.002544
925.2471	0.003219
925.4877	0.002291
925.7283	0.002755
925.9689	0.003324
926.2095	0.002185
926.4501	0.002438
926.6908	0.002818
926.9314	0.001088
927.1720	0.002417
927.4127	-0.000241
927.6533	0.002501
927.8940	0.000940
928.1347	0.002902
928.3754	0.002354
928.6161	0.003113
928.8568	0.002544
929.0975	0.002734
929.3382	0.001151
929.5789	-0.000199
929.8196	0.000835
930.0604	0.002438
930.3011	0.002248
930.5419	0.002860
930.7826	0.001784
931.0234	0.001869
931.2642	0.000962
931.5049	0.001679
931.7457	0.000983
931.9865	0.003155
932.2273	0.002333
932.4681	0.002269
932.7089	0.002755
932.9498	0.002080
933.1906	0.000603
933.4314	0.002565
933.6723	0.001552
933.9131	0.001700
934.1540	0.002966
934.3949	0.001953
934.6358	0.001995
934.8766	0.001805
935.1175	0.001995
935.3584	0.002122
935.5993	0.002269
935.8403	0.000877
936.0812	0.002206
936.3221	0.000856
936.5630	-0.000199
936.8040	0.002544
937.0449	0.001594
937.2859	0.001721
937.5269	-0.000030
937.7678	0.002417
938.0088	0.000118
938.2498	0.000898
938.4908	0.001615
938.7318	0.001362
938.9728	0.001109
939.2138	0.001911
939.4549	0.002227
939.6959	0.002417
939.9369	0.002333
940.1780	0.001130
940.4190	0.000287
940.6601	0.000413
940.9012	0.001679
941.1422	0.000561
941.3833	0.000434
941.6244	0.000962
941.8655	0.001784
942.1066	0.001405
942.3477	0.001278
942.5889	0.000582
942.8300	0.000624
943.0711	0.000476
943.3123	0.001953
943.5534	0.000835
943.7946	0.001278
944.0357	0.001173
944.2769	0.001953
944.5181	0.000793
944.7593	0.001594
945.0005	0.001130
945.2417	0.002016
945.4829	0.000877
945.7241	0.000033
945.9653	0.000582
946.2066	0.001932
946.4478	0.000603
946.6891	0.001383
946.9303	-0.000009
947.1716	-0.000388
947.4128	0.000540
947.6541	0.000434
947.8954	0.000329
948.1367	0.002143
948.3780	0.000097
948.6193	0.000772
948.8606	0.001615
949.1019	0.000772
949.3433	-0.000156
949.5846	0.001088
949.8259	-0.000220
950.0673	0.001974
950.3086	0.000476
950.5500	-0.000072
950.7914	0.000097
951.0327	0.001763
951.2741	0.001320
951.5155	0.001679
951.7569	0.000350
951.9983	0.001109
952.2398	0.000919
952.4812	0.000350
952.7226	0.000540
952.9640	0.000898
953.2055	0.000898
953.4469	0.000772
953.6884	0.001890
953.9299	0.001299
954.1713	0.000097
954.4128	0.000856
954.6543	0.000392
954.8958	0.000033
955.1373	0.000118
955.3788	0.002185
955.6203	0.001362
955.8618	0.001700
956.1034	0.001173
956.3449	0.000730
956.5865	0.000772
956.8280	0.000350
957.0696	0.000097
957.3111	0.000540
957.5527	0.000582
957.7943	0.001130
958.0359	-0.001274
958.2775	0.001784
958.5191	-0.001085
958.7607	0.001257
959.0023	-0.000199
959.2439	0.001468
959.4856	0.000118
959.7272	-0.000072
959.9688	-0.000199
960.2105	0.000898
960.4522	0.000455
960.6938	0.000919
960.9355	0.001299
961.1772	0.000962
961.4189	0.001658
961.6606	-0.000494
961.9023	-0.000789
962.1440	0.001468
962.3857	0.000329
962.6274	-0.000789
962.8692	-0.000283
963.1109	0.000308
963.3527	0.000392
963.5944	-0.000030
963.8362	-0.001464
964.0779	0.001658
964.3197	0.000940
964.5615	0.001130
964.8033	0.000476
965.0451	-0.000199
965.2869	0.001911
965.5287	0.001025
965.7705	0.000708
966.0123	-0.000367
966.2542	0.001046
966.4960	0.001679
966.7379	0.001341
966.9797	0.001531
967.2216	0.001805
967.4634	-0.000325
967.7053	0.000434
967.9472	0.000202
968.1891	0.000835
968.4310	-0.000072
968.6729	0.000793
968.9148	0.000329
969.1567	-0.001232
969.3987	0.000730
969.6406	0.000118
969.8825	0.001194
970.1245	0.000751
970.3664	0.000265
970.6084	0.000287
970.8504	0.000983
971.0923	-0.000367
971.3343	0.000054
971.5763	0.000118
971.8183	0.001911
972.0603	-0.000114
972.3023	0.000012
972.5443	0.000434
972.7864	0.001510
973.0284	0.000814
973.2704	-0.000178
973.5125	-0.000789
973.7545	0.000392
973.9966	0.001025
974.2387	0.000139
974.4807	0.001510
974.7228	-0.000346
974.9649	0.002016
975.2070	-0.000346
975.4491	-0.000431
975.6912	0.000919
975.9333	0.000371
976.1755	-0.000072
976.4176	-0.001042
976.6597	0.000582
976.9019	-0.000030
977.1440	0.000202
977.3862	0.001594
977.6283	-0.000536
977.8705	0.001004
978.1127	0.000835
978.3549	-0.000346
978.5971	0.001194
978.8393	0.000350
979.0815	0.000350
979.3237	-0.000072
979.5659	0.000708
979.8082	0.000265
980.0504	0.001025
980.2926	-0.000473
980.5349	0.001658
980.7771	0.001278
981.0194	0.000455
981.2617	0.000983
981.5040	0.000223
981.7462	0.000645
981.9885	0.001151
982.2308	0.000877
982.4731	0.000223
982.7155	-0.000536
982.9578	0.001130
983.2001	-0.000030
983.4424	0.001531
983.6848	0.000835
983.9271	0.001067
984.1695	0.000392
984.4118	0.001341
984.6542	0.000160
984.8966	0.000708
985.1390	-0.000831
985.3814	0.000919
985.6238	0.000033
985.8662	0.000540
986.1086	-0.000262
986.3510	0.000012
986.5934	0.000561
986.8358	0.000223
987.0783	0.000413
987.3207	-0.000388
987.5632	-0.000388
987.8056	0.001383
988.0481	-0.000178
988.2906	0.001130
988.5331	-0.000030
988.7756	-0.000009
989.0180	0.000730
989.2605	0.001088
989.5031	0.000856
989.7456	0.000772
989.9881	0.000287
990.2306	-0.000346
990.4732	0.000687
990.7157	0.001383
990.9582	0.000708
991.2008	0.000687
991.4434	-0.000599
991.6859	0.001257
991.9285	-0.000156
992.1711	0.000076
992.4137	0.001004
992.6563	0.000012
992.8989	-0.000494
993.1415	0.000519
993.3841	-0.000093
993.6267	0.001194
993.8694	-0.001591
994.1120	0.000561
994.3547	0.001510
994.5973	0.001109
994.8400	-0.000747
995.0826	0.000540
995.3253	0.000624
995.5680	-0.000156
995.8107	0.000603
996.0534	0.000751
996.2961	-0.000536
996.5388	-0.000030
996.7815	-0.000431
997.0242	0.000054
997.2670	0.000687
997.5097	0.000160
997.7524	-0.001085
997.9952	0.000160
998.2379	-0.000051
998.4807	-0.000030
998.7235	-0.000452
998.9662	0.001278
999.2090	-0.000705
999.4518	0.000835
999.6946	0.000160
999.9374	0.000265
1000.1802	-0.000093
1000.4230	-0.000304
1000.6659	0.001362
1000.9087	-0.000726
1001.1515	0.000561
1001.3944	0.000308
1001.6372	-0.000220
1001.8801	0.000434
1002.1230	0.000962
1002.3658	0.001468
1002.6087	0.000202
1002.8516	0.000139
1003.0945	-0.000156
1003.3374	-0.000325
1003.5803	0.000350
1003.8232	0.001721
1004.0661	0.001405
1004.3091	-0.000958
1004.5520	0.001046
1004.7949	-0.000853
1005.0379	0.000160
1005.2808	-0.000093
1005.5238	0.001341
1005.7667	0.001151
1006.0097	0.000434
1006.2527	0.001067
1006.4957	0.000413
1006.7387	-0.001570
1006.9817	0.000540
1007.2247	0.001004
1007.4677	0.000919
1007.7107	0.000202
1007.9538	-0.000431
1008.1968	-0.000431
1008.4398	0.001004
1008.6829	-0.000705
1008.9259	0.000751
1009.1690	0.000751
1009.4121	0.000287
1009.6551	0.000181
1009.8982	0.000603
1010.1413	-0.000093
1010.3844	-0.000220
1010.6275	0.000835
1010.8706	0.000772
1011.1137	0.001067
1011.3568	-0.000199
1011.6000	-0.000241
1011.8431	0.000645
1012.0863	0.000181
1012.3294	0.000413
1012.5726	-0.000621
1012.8157	0.001721
1013.0589	-0.001338
1013.3021	0.000287
1013.5452	0.000519
1013.7884	0.002122
1014.0316	0.000265
1014.2748	0.000392
1014.5180	-0.000810
1014.7613	0.000265
1015.0045	-0.000030
1015.2477	0.001615
1015.4909	0.000118
1015.7342	-0.000030
1015.9774	0.000455
1016.2207	-0.000009
1016.4640	0.000476
1016.7072	0.000033
1016.9505	0.000287
1017.1938	0.000603
1017.4371	0.001637
1017.6804	0.000434
1017.9237	-0.000494
1018.1670	0.000751
1018.4103	-0.000747
1018.6536	0.000962
1018.8969	0.000033
1019.1403	0.001278
1019.3836	0.000434
1019.6270	0.001109
1019.8703	0.000835
1020.1137	0.000519
1020.3571	-0.000431
1020.6004	0.001573
1020.8438	-0.000346
1021.0872	0.001025
1021.3306	-0.000072
1021.5740	-0.000156
1021.8174	-0.001274
1022.0608	0.000118
1022.3042	0.000413
1022.5477	0.001151
1022.7911	0.000645
1023.0345	-0.000895
