# Wavelength (nm)	Intensity (a.u.)
197.7802	0.001322
197.9842	-0.000450
198.1882	0.000710
198.3922	0.000457
198.5963	0.000014
198.8003	0.000837
199.0044	0.001933
199.2085	-0.000724
199.4126	0.000330
199.6168	-0.000766
199.8209	0.000035
200.0251	0.001195
200.2292	0.000541
200.4334	-0.000471
200.6376	0.001090
200.8418	-0.000218
201.0461	0.000816
201.2503	0.001490
201.4546	0.000794
201.6589	-0.000070
201.8631	0.001490
202.0674	0.000225
202.2718	0.001132
202.4761	0.000120
202.6805	0.000267
202.8848	-0.000155
203.0892	-0.000703
203.2936	0.001195
203.4980	0.000794
203.7024	0.000352
203.9069	0.000183
204.1113	0.000415
204.3158	-0.000260
204.5203	-0.001146
204.7248	0.002334
204.9293	0.000710
205.1338	0.001153
205.3384	0.001216
205.5430	0.000647
205.7475	-0.000344
205.9521	0.000204
206.1567	0.000541
206.3614	0.001701
206.5660	0.000330
206.7706	0.001511
206.9753	0.000668
207.1800	0.001090
207.3847	0.001722
207.5894	0.001322
207.7941	-0.001378
207.9989	0.001047
208.2036	-0.001062
208.4084	0.000541
208.6132	-0.000724
208.8180	0.000309
209.0228	0.001216
209.2276	0.000077
209.4325	0.000794
209.6373	0.001912
209.8422	-0.000070
210.0471	0.001701
210.2520	-0.000661
210.4569	0.001722
210.6618	0.000562
210.8668	-0.000724
211.0718	-0.002053
211.2767	0.001174
211.4817	0.000162
211.6867	-0.000682
211.8918	0.000963
212.0968	0.000436
212.3018	0.000562
212.5069	0.000879
212.7120	0.000921
212.9171	0.002018
213.1222	-0.000323
213.3273	-0.000281
213.5325	0.000710
213.7376	0.001343
213.9428	0.001090
214.1480	0.001153
214.3532	0.001090
214.5584	0.000794
214.7636	0.001575
214.9689	0.002039
215.1741	-0.001104
215.3794	0.000288
215.5847	0.000309
215.7900	0.000731
215.9953	-0.000682
216.2007	0.001596
216.4060	0.001891
216.6114	0.000288
216.8168	0.000921
217.0222	0.000858
217.2276	0.000710
217.4330	-0.000070
217.6384	-0.000260
217.8439	0.000204
218.0494	-0.000808
218.2548	0.001807
218.4603	-0.000492
218.6659	0.001069
218.8714	0.000056
219.0769	0.001533
219.2825	-0.000661
219.4881	0.000562
219.6936	0.000394
219.8992	0.000942
220.1049	0.001343
220.3105	0.000309
220.5161	-0.001188
220.7218	-0.000661
220.9275	-0.000429
221.1332	0.000373
221.3389	0.000162
221.5446	0.001596
221.7503	-0.000450
221.9561	0.000309
222.1618	-0.000661
222.3676	0.000710
222.5734	-0.000408
222.7792	0.001153
222.9850	-0.000091
223.1909	0.000436
223.3967	-0.000640
223.6026	0.000141
223.8085	0.000541
224.0144	0.000352
224.2203	-0.000112
224.4262	0.000098
224.6322	0.000921
224.8381	0.000984
225.0441	0.000309
225.2501	0.002207
225.4561	-0.001294
225.6621	0.000752
225.8681	-0.000344
226.0742	0.001090
226.2802	0.001174
226.4863	-0.000366
226.6924	0.001933
226.8985	-0.000091
227.1046	-0.000007
227.3107	0.000352
227.5169	-0.000471
227.7230	-0.000323
227.9292	-0.000007
228.1354	0.001448
228.3416	-0.001167
228.5478	0.000816
228.7541	0.000499
228.9603	0.001469
229.1666	-0.000724
229.3729	0.001195
229.5791	0.000183
229.7855	0.000246
229.9918	0.000098
230.1981	0.000478
230.4045	-0.000576
230.6108	0.001786
230.8172	0.000373
231.0236	0.000077
231.2300	0.000816
231.4364	0.001132
231.6429	-0.000366
231.8493	0.000246
232.0558	-0.000260
232.2623	0.001680
232.4688	0.000077
232.6753	0.000120
232.8818	-0.000091
233.0884	0.000120
233.2949	0.001765
233.5015	-0.000766
233.7081	-0.000513
233.9147	0.001743
234.1213	0.001743
234.3279	0.000162
234.5346	-0.000070
234.7413	-0.000998
234.9479	-0.000091
235.1546	0.000562
235.3613	-0.000387
235.5680	0.000162
235.7748	-0.000724
235.9815	-0.001336
236.1883	-0.000808
236.3951	0.000394
236.6018	0.001005
236.8087	-0.000134
237.0155	0.001743
237.2223	0.000858
237.4292	-0.000387
237.6360	0.001090
237.8429	0.000373
238.0498	0.000626
238.2567	-0.000155
238.4636	0.001026
238.6706	0.000457
238.8775	0.000373
239.0845	0.001132
239.2915	0.000246
239.4985	0.000415
239.7055	0.000035
239.9125	0.000288
240.1195	0.000436
240.3266	0.001216
240.5337	0.001153
240.7407	-0.000429
240.9478	0.000415
241.1549	0.001047
241.3621	0.001258
241.5692	-0.000513
241.7764	0.000584
241.9835	0.001743
242.1907	0.000794
242.3979	0.001153
242.6051	0.000942
242.8124	0.000584
243.0196	-0.000808
243.2269	0.000120
243.4341	-0.000429
243.6414	-0.000091
243.8487	0.000183
244.0560	0.000415
244.2634	-0.000492
244.4707	0.000415
244.6781	0.001174
244.8854	-0.000492
245.0928	0.000816
245.3002	0.000162
245.5076	0.000710
245.7151	0.000647
245.9225	-0.000808
246.1300	0.000562
246.3375	0.000457
246.5449	-0.000619
246.7524	-0.000112
246.9600	-0.000724
247.1675	-0.000134
247.3750	0.001005
247.5826	-0.000935
247.7902	0.000394
247.9978	0.000984
248.2054	0.000900
248.4130	-0.000091
248.6206	0.000415
248.8283	0.000120
249.0359	-0.000112
249.2436	0.001026
249.4513	0.001448
249.6590	-0.000007
249.8667	0.000900
250.0745	0.000457
250.2822	0.000921
250.4900	0.000752
250.6978	0.000457
250.9056	0.002292
251.1134	-0.000914
251.3212	0.000921
251.5290	0.000373
251.7369	0.000373
251.9447	-0.000323
252.1526	-0.000344
252.3605	-0.000429
252.5684	0.000731
252.7763	-0.000366
252.9843	0.000098
253.1922	0.000689
253.4002	0.001427
253.6082	-0.000914
253.8162	0.000330
254.0242	0.000246
254.2322	0.001047
254.4402	0.001174
254.6483	0.000689
254.8564	0.001638
255.0644	0.000478
255.2725	0.000352
255.4806	-0.000851
255.6888	0.000183
255.8969	-0.000323
256.1051	0.000056
256.3132	0.000731
256.5214	0.001132
256.7296	-0.000513
256.9378	0.000816
257.1460	-0.000260
257.3543	-0.000619
257.5625	0.000984
257.7708	0.000626
257.9791	0.000457
258.1874	-0.000197
258.3957	0.000141
258.6040	0.000731
258.8124	0.001617
259.0207	0.001533
259.2291	0.000626
259.4375	-0.000049
259.6459	0.001933
259.8543	0.000921
260.0627	0.000162
260.2711	0.000752
260.4796	0.001258
260.6881	0.000457
260.8965	0.001786
261.1050	-0.000977
261.3135	0.000837
261.5221	-0.000049
261.7306	0.000626
261.9392	0.001132
262.1477	0.000330
262.3563	-0.000830
262.5649	0.001069
262.7735	0.000352
262.9822	0.000731
263.1908	-0.000070
263.3995	-0.000366
263.6081	-0.000471
263.8168	0.000077
264.0255	0.000710
264.2342	0.000373
264.4429	0.000647
264.6517	0.000879
264.8604	0.000394
265.0692	-0.000134
265.2780	0.000794
265.4868	0.000120
265.6956	0.000415
265.9044	0.001933
266.1133	-0.000366
266.3221	0.001237
266.5310	-0.000134
266.7399	0.002186
266.9488	-0.000091
267.1577	-0.000429
267.3666	0.000794
267.5755	0.000541
267.7845	-0.000049
267.9935	0.000837
268.2024	0.000183
268.4114	0.001891
268.6205	0.001279
268.8295	0.000773
269.0385	0.000183
269.2476	0.001153
269.4566	0.000837
269.6657	0.001174
269.8748	0.000183
270.0839	0.000415
270.2931	0.000352
270.5022	0.000499
270.7114	0.000415
270.9205	0.000668
271.1297	0.000647
271.3389	0.000921
271.5481	0.001322
271.7573	0.000077
271.9666	0.000879
272.1758	-0.000429
272.3851	0.001174
272.5944	0.001005
272.8037	-0.000851
273.0130	0.000288
273.2223	-0.000134
273.4316	-0.000218
273.6410	-0.001040
273.8504	0.001237
274.0597	0.000710
274.2691	0.000562
274.4785	-0.000070
274.6880	0.001406
274.8974	-0.000450
275.1069	0.001237
275.3163	0.000499
275.5258	0.000816
275.7353	-0.000197
275.9448	0.001111
276.1543	0.000794
276.3639	0.000457
276.5734	-0.001378
276.7830	0.001322
276.9926	0.000267
277.2022	0.001216
277.4118	0.001554
277.6214	0.002355
277.8310	-0.000429
278.0407	0.000816
278.2503	0.001659
278.4600	0.001132
278.6697	-0.001104
278.8794	0.000204
279.0891	0.001469
279.2989	0.001427
279.5086	0.000794
279.7184	0.001216
279.9281	0.000309
280.1379	0.000731
280.3477	-0.000260
280.5576	0.001195
280.7674	0.000963
280.9772	0.000752
281.1871	-0.000028
281.3970	0.000288
281.6069	0.000014
281.8168	0.000900
282.0267	0.000373
282.2366	0.002693
282.4466	0.003304
282.6565	0.001111
282.8665	-0.000387
283.0765	0.001069
283.2865	0.000520
283.4965	0.000942
283.7065	-0.000007
283.9166	-0.000766
284.1266	0.000120
284.3367	-0.000112
284.5468	0.000794
284.7569	0.000562
284.9670	0.000204
285.1771	-0.000197
285.3873	-0.000513
285.5974	0.001279
285.8076	0.000900
286.0178	0.001111
286.2280	0.000204
286.4382	0.000605
286.6484	0.000288
286.8587	0.002566
287.0689	-0.000302
287.2792	0.001047
287.4895	-0.000492
287.6998	-0.000387
287.9101	0.000373
288.1204	0.001469
288.3308	0.000900
288.5411	0.000605
288.7515	0.001490
288.9619	0.000626
289.1723	-0.000661
289.3827	0.000056
289.5931	-0.001336
289.8035	0.000141
290.0140	0.000942
290.2245	0.000098
290.4349	-0.000914
290.6454	0.000731
290.8559	0.001680
291.0665	-0.000787
291.2770	-0.000619
291.4875	-0.000703
291.6981	-0.000070
291.9087	0.001026
292.1193	-0.000091
292.3299	0.001047
292.5405	0.000352
292.7511	0.000394
292.9618	-0.000134
293.1724	0.001153
293.3831	0.000394
293.5938	0.000436
293.8045	-0.000134
294.0152	-0.000366
294.2260	-0.000998
294.4367	0.001701
294.6475	0.000478
294.8582	0.000816
295.0690	0.001111
295.2798	0.000014
295.4906	0.000352
295.7015	0.000288
295.9123	-0.000408
296.1232	0.001322
296.3340	0.001279
296.5449	0.000267
296.7558	-0.000134
296.9667	-0.000471
297.1777	0.000879
297.3886	0.001153
297.5995	0.000457
297.8105	-0.000703
298.0215	0.000984
298.2325	0.000984
298.4435	-0.000640
298.6545	0.000942
298.8656	0.000056
299.0766	0.001132
299.2877	0.000267
299.4988	0.001511
299.7099	-0.000302
299.9210	0.000373
300.1321	-0.001188
300.3432	0.001279
300.5544	0.000626
300.7655	-0.000429
300.9767	0.000816
301.1879	-0.000197
301.3991	-0.000408
301.6103	0.000647
301.8215	0.000478
302.0328	0.001237
302.2441	-0.000070
302.4553	0.001743
302.6666	0.001090
302.8779	0.001047
303.0892	-0.000534
303.3006	-0.000387
303.5119	0.000330
303.7233	0.000267
303.9346	0.000457
304.1460	0.000309
304.3574	0.000352
304.5688	0.001638
304.7803	0.000373
304.9917	-0.000471
305.2031	0.000499
305.4146	-0.000387
305.6261	0.000499
305.8376	-0.000260
306.0491	-0.000576
306.2606	-0.000661
306.4722	-0.000766
306.6837	0.000225
306.8953	-0.002032
307.1069	-0.000555
307.3184	0.000794
307.5301	0.000689
307.7417	-0.000808
307.9533	0.001111
308.1650	0.000647
308.3766	0.001132
308.5883	0.000162
308.8000	0.002292
309.0117	-0.000682
309.2234	0.000415
309.4351	0.001258
309.6469	0.000162
309.8586	-0.000091
310.0704	0.000330
310.2822	0.000098
310.4940	0.000478
310.7058	-0.000091
310.9176	-0.000302
311.1295	-0.000344
311.3413	-0.000598
311.5532	0.001849
311.7651	0.001132
311.9770	0.001258
312.1889	0.000120
312.4008	0.001828
312.6127	-0.000366
312.8247	0.001069
313.0366	0.001638
313.2486	0.001554
313.4606	0.001617
313.6726	0.000098
313.8846	-0.000134
314.0967	0.002271
314.3087	0.000225
314.5208	0.000288
314.7328	0.000562
314.9449	0.000562
315.1570	0.001912
315.3692	0.000141
315.5813	0.001195
315.7934	0.000731
316.0056	-0.000492
316.2177	-0.000598
316.4299	0.002587
316.6421	0.000773
316.8543	0.000837
317.0666	0.001490
317.2788	0.000837
317.4911	0.000267
317.7033	0.001659
317.9156	0.000014
318.1279	0.000963
318.3402	0.000162
318.5525	0.001111
318.7649	0.000035
318.9772	0.001026
319.1896	-0.000049
319.4019	0.000837
319.6143	0.000120
319.8267	0.000204
320.0392	-0.000302
320.2516	-0.000070
320.4640	0.001406
320.6765	0.000204
320.8890	0.000436
321.1014	0.000204
321.3139	-0.000808
321.5265	0.001174
321.7390	0.000520
321.9515	0.000330
322.1641	-0.000091
322.3766	-0.001715
322.5892	0.000162
322.8018	0.001469
323.0144	0.000162
323.2270	0.000120
323.4397	-0.000281
323.6523	0.000668
323.8650	-0.000492
324.0777	0.000436
324.2904	-0.000576
324.5031	0.000288
324.7158	0.001701
324.9285	0.000520
325.1412	0.000014
325.3540	0.000056
325.5668	0.000035
325.7796	0.000225
325.9924	-0.000007
326.2052	0.001807
326.4180	0.001216
326.6308	0.000837
326.8437	0.000415
327.0566	0.000141
327.2694	0.001511
327.4823	0.001891
327.6952	-0.000091
327.9082	0.000394
328.1211	0.000373
328.3340	0.000499
328.5470	0.000731
328.7600	0.001533
328.9730	0.000752
329.1860	0.001343
329.3990	0.001448
329.6120	0.000963
329.8251	-0.000555
330.0381	-0.000091
330.2512	-0.000555
330.4643	0.001849
330.6774	0.000098
330.8905	0.000731
331.1036	-0.001062
331.3167	0.000330
331.5299	0.000035
331.7431	0.000499
331.9562	0.001427
332.1694	0.001258
332.3826	-0.000471
332.5959	0.001343
332.8091	-0.000471
333.0223	-0.000260
333.2356	-0.000134
333.4489	0.001047
333.6622	0.000900
333.8755	-0.000555
334.0888	-0.000366
334.3021	0.000584
334.5154	0.000562
334.7288	0.000837
334.9422	-0.000007
335.1555	0.000162
335.3689	-0.000260
335.5823	0.001153
335.7958	-0.000513
336.0092	-0.001125
336.2227	0.001026
336.4361	-0.000176
336.6496	0.000520
336.8631	0.000963
337.0766	-0.000007
337.2901	0.000415
337.5036	-0.000112
337.7172	0.000267
337.9307	0.000288
338.1443	-0.000197
338.3579	0.001533
338.5715	0.000415
338.7851	0.000330
338.9987	0.000879
339.2124	0.000541
339.4260	0.001511
339.6397	-0.000302
339.8533	-0.000112
340.0670	0.000056
340.2807	0.001448
340.4945	0.000858
340.7082	0.000373
340.9219	0.000077
341.1357	0.000921
341.3495	-0.000028
341.5633	0.001279
341.7771	-0.000387
341.9909	-0.000176
342.2047	0.000014
342.4185	0.000541
342.6324	0.001765
342.8463	0.000668
343.0601	-0.001272
343.2740	-0.000513
343.4879	-0.000218
343.7019	0.000014
343.9158	-0.001209
344.1297	0.000246
344.3437	0.001216
344.5577	-0.000323
344.7717	0.000183
344.9857	-0.000155
345.1997	-0.000851
345.4137	0.000288
345.6277	-0.000872
345.8418	0.000309
346.0559	0.000415
346.2699	0.000626
346.4840	0.000626
346.6981	0.000035
346.9123	0.001659
347.1264	0.000921
347.3406	0.001005
347.5547	0.000984
347.7689	0.000963
347.9831	0.000731
348.1973	-0.000049
348.4115	0.000520
348.6257	0.001701
348.8400	0.000963
349.0542	-0.000513
349.2685	0.001005
349.4828	-0.000787
349.6971	0.000710
349.9114	0.000352
350.1257	0.000415
350.3400	-0.000619
350.5544	0.001216
350.7687	0.000225
350.9831	-0.000007
351.1975	0.000541
351.4119	0.000499
351.6263	-0.000387
351.8407	0.001596
352.0552	0.001807
352.2696	0.000626
352.4841	0.000246
352.6986	0.000689
352.9131	-0.000429
353.1276	0.001575
353.3421	0.001237
353.5566	0.001322
353.7712	0.001554
353.9858	0.001301
354.2003	-0.000640
354.4149	0.000288
354.6295	0.000394
354.8441	0.001406
355.0588	0.001786
355.2734	0.001765
355.4881	0.000562
355.7027	0.001237
355.9174	0.000900
356.1321	0.001279
356.3468	0.000837
356.5615	0.000626
356.7763	0.000794
356.9910	0.000668
357.2058	-0.000197
357.4206	0.002439
357.6353	-0.000112
357.8501	0.000309
358.0650	0.000562
358.2798	-0.000302
358.4946	0.000457
358.7095	0.002018
358.9243	-0.000049
359.1392	0.000014
359.3541	0.000605
359.5690	0.000752
359.7839	0.000162
359.9989	0.000626
360.2138	0.000668
360.4288	0.000120
360.6438	-0.000808
360.8587	0.000879
361.0737	-0.000387
361.2888	0.001490
361.5038	0.001997
361.7188	0.000246
361.9339	0.000162
362.1489	-0.000619
362.3640	0.000330
362.5791	0.001870
362.7942	0.000710
363.0093	0.000689
363.2245	0.000035
363.4396	0.000921
363.6548	0.000415
363.8699	0.000584
364.0851	0.000752
364.3003	0.001849
364.5155	-0.000387
364.7308	0.001786
364.9460	0.000014
365.1612	0.000204
365.3765	0.000478
365.5918	0.000267
365.8071	-0.000007
366.0224	0.000394
366.2377	-0.000344
366.4530	0.001659
366.6684	0.000415
366.8837	0.000984
367.0991	0.000984
367.3145	0.000731
367.5299	0.000689
367.7453	0.000710
367.9607	0.000077
368.1761	0.001828
368.3916	-0.000935
368.6070	-0.000450
368.8225	0.000900
369.0380	0.002165
369.2535	0.000520
369.4690	0.001575
369.6845	0.001216
369.9001	0.000689
370.1156	0.000541
370.3312	0.000035
370.5468	0.001828
370.7624	0.000288
370.9780	-0.000302
371.1936	0.000478
371.4092	-0.001209
371.6249	0.001765
371.8405	0.000541
372.0562	0.000689
372.2719	0.000731
372.4876	-0.000049
372.7033	0.000204
372.9190	0.000077
373.1348	0.000478
373.3505	0.001090
373.5663	-0.000344
373.7820	0.000541
373.9978	-0.000239
374.2136	-0.000724
374.4294	0.000647
374.6453	0.000710
374.8611	-0.000091
375.0770	0.001786
375.2928	0.001765
375.5087	0.000204
375.7246	0.000752
375.9405	-0.000176
376.1564	0.000647
376.3724	0.002967
376.5883	0.001005
376.8043	0.000077
377.0203	-0.000344
377.2362	-0.001821
377.4522	-0.000724
377.6682	0.001153
377.8843	0.000499
378.1003	0.000984
378.3164	0.001343
378.5324	0.000309
378.7485	0.000499
378.9646	0.000647
379.1807	0.000900
379.3968	0.001047
379.6129	-0.000808
379.8291	0.001912
380.0452	-0.000576
380.2614	0.000288
380.4776	-0.000682
380.6938	0.001870
380.9100	0.001069
381.1262	0.000394
381.3424	-0.000134
381.5587	0.000309
381.7749	-0.000808
381.9912	0.000710
382.2075	-0.000387
382.4238	-0.000091
382.6401	0.000098
382.8564	0.000984
383.0728	-0.001104
383.2891	0.000035
383.5055	0.000120
383.7219	0.000984
383.9382	0.000330
384.1546	0.000478
384.3711	0.000394
384.5875	0.000204
384.8039	-0.000049
385.0204	0.001322
385.2368	-0.000155
385.4533	0.000225
385.6698	0.001322
385.8863	0.001322
386.1028	0.000752
386.3194	0.001765
386.5359	0.001090
386.7525	0.001870
386.9690	0.000921
387.1856	0.002439
387.4022	0.001575
387.6188	0.002735
387.8355	0.002482
388.0521	0.001807
388.2687	0.001301
388.4854	0.002165
388.7021	0.002461
388.9188	0.002988
389.1355	0.002186
389.3522	0.001343
389.5689	0.001659
389.7856	0.003494
390.0024	0.001828
390.2192	0.002566
390.4359	0.001575
390.6527	0.002207
390.8695	0.003283
391.0863	0.002735
391.3032	0.003663
391.5200	0.003684
391.7369	0.003367
391.9537	0.004127
392.1706	0.003325
392.3875	0.005097
392.6044	0.004591
392.8213	0.004401
393.0383	0.006067
393.2552	0.004759
393.4722	0.006172
393.6891	0.007396
393.9061	0.005751
394.1231	0.007712
394.3401	0.007332
394.5572	0.005582
394.7742	0.006636
394.9912	0.007248
395.2083	0.006489
395.4254	0.007227
395.6425	0.008218
395.8596	0.007986
396.0767	0.007122
396.2938	0.009041
396.5109	0.007396
396.7281	0.009420
396.9453	0.007564
397.1624	0.010412
397.3796	0.010580
397.5968	0.009020
397.8140	0.010201
398.0313	0.010264
398.2485	0.010517
398.4658	0.013470
398.6830	0.011677
398.9003	0.012225
399.1176	0.011698
399.3349	0.012563
399.5522	0.013027
399.7696	0.013849
399.9869	0.012837
400.2043	0.012415
400.4216	0.012289
400.6390	0.013006
400.8564	0.014609
401.0738	0.014925
401.2912	0.014588
401.5087	0.013786
401.7261	0.013913
401.9436	0.015199
402.1610	0.015073
402.3785	0.013955
402.5960	0.015073
402.8135	0.015748
403.0310	0.014377
403.2486	0.016001
403.4661	0.016296
403.6837	0.014714
403.9013	0.015811
404.1189	0.016380
404.3365	0.017983
404.5541	0.017709
404.7717	0.015600
404.9893	0.018848
405.2070	0.016043
405.4246	0.019228
405.6423	0.018679
405.8600	0.020493
406.0777	0.019924
406.2954	0.018321
406.5131	0.017814
406.7309	0.018637
406.9486	0.017751
407.1664	0.017709
407.3842	0.017161
407.6020	0.016739
407.8198	0.018869
408.0376	0.018173
408.2554	0.020388
408.4733	0.019185
408.6911	0.018974
408.9090	0.020050
409.1269	0.020767
409.3448	0.019038
409.5627	0.019354
409.7806	0.020809
409.9985	0.020556
410.2165	0.018595
410.4344	0.020514
410.6524	0.019818
410.8704	0.019354
411.0884	0.020767
411.3064	0.019797
411.5244	0.020451
411.7424	0.019649
411.9605	0.019523
412.1785	0.020978
412.3966	0.020345
412.6147	0.020683
412.8328	0.021779
413.0509	0.021653
413.2690	0.021632
413.4871	0.022433
413.7053	0.022096
413.9234	0.022180
414.1416	0.020261
414.3598	0.020957
414.5780	0.022180
414.7962	0.021674
415.0144	0.020999
415.2326	0.022412
415.4509	0.020177
415.6692	0.020809
415.8874	0.020936
416.1057	0.021948
416.3240	0.021906
416.5423	0.022349
416.7606	0.021020
416.9790	0.022982
417.1973	0.020535
417.4157	0.023910
417.6341	0.023340
417.8524	0.021210
418.0708	0.021210
418.2893	0.023720
418.5077	0.022686
418.7261	0.022961
418.9446	0.022539
419.1630	0.022792
419.3815	0.022813
419.6000	0.022707
419.8185	0.022623
420.0370	0.024795
420.2555	0.024099
420.4741	0.025850
420.6926	0.026166
420.9112	0.024711
421.1298	0.025955
421.3483	0.026356
421.5669	0.027453
421.7856	0.026757
422.0042	0.028444
422.2228	0.029625
422.4415	0.027052
422.6601	0.026715
422.8788	0.025998
423.0975	0.026926
423.3162	0.025597
423.5349	0.027115
423.7536	0.026166
423.9724	0.025259
424.1911	0.024669
424.4099	0.024500
424.6287	0.026019
424.8475	0.024943
425.0663	0.026293
425.2851	0.025049
425.5039	0.025217
425.7228	0.025196
425.9416	0.023488
426.1605	0.021758
426.3793	0.022665
426.5982	0.023762
426.8171	0.022054
427.0361	0.024479
427.2550	0.025428
427.4739	0.025534
427.6929	0.023973
427.9118	0.022918
428.1308	0.024521
428.3498	0.026019
428.5688	0.024563
428.7878	0.024268
429.0068	0.024542
429.2259	0.025702
429.4449	0.024458
429.6640	0.028465
429.8831	0.026757
430.1022	0.028908
430.3213	0.027010
430.5404	0.027052
430.7595	0.028528
430.9787	0.027875
431.1978	0.026398
431.4170	0.027200
431.6362	0.024395
431.8553	0.024458
432.0745	0.023572
432.2938	0.024099
432.5130	0.022686
432.7322	0.025217
432.9515	0.023024
433.1707	0.021231
433.3900	0.022750
433.6093	0.027158
433.8286	0.026715
434.0479	0.025829
434.2673	0.026272
434.4866	0.023762
434.7059	0.024521
434.9253	0.025196
435.1447	0.024078
435.3641	0.023867
435.5835	0.025196
435.8029	0.022897
436.0223	0.023952
436.2418	0.024353
436.4612	0.025070
436.6807	0.024901
436.9001	0.026947
437.1196	0.022539
437.3391	0.021822
437.5586	0.022433
437.7782	0.023804
437.9977	0.024732
438.2173	0.023867
438.4368	0.023994
438.6564	0.024964
438.8760	0.023699
439.0956	0.025534
439.3152	0.024859
439.5348	0.023045
439.7545	0.022876
439.9741	0.024753
440.1938	0.023825
440.4135	0.023657
440.6331	0.022518
440.8528	0.023045
441.0725	0.024943
441.2923	0.026820
441.5120	0.027579
441.7318	0.026904
441.9515	0.028718
442.1713	0.024774
442.3911	0.025955
442.6109	0.024606
442.8307	0.026630
443.0505	0.027136
443.2703	0.026377
443.4902	0.026187
443.7101	0.025470
443.9299	0.027031
444.1498	0.024732
444.3697	0.026103
444.5896	0.024795
444.8095	0.027706
445.0295	0.025555
445.2494	0.025618
445.4694	0.024374
445.6894	0.023087
445.9093	0.024226
446.1293	0.024015
446.3493	0.023298
446.5694	0.024606
446.7894	0.023825
447.0094	0.023994
447.2295	0.022011
447.4496	0.024753
447.6696	0.024500
447.8897	0.023214
448.1098	0.021400
448.3300	0.021885
448.5501	0.020388
448.7702	0.021822
448.9904	0.022075
449.2106	0.022665
449.4307	0.023277
449.6509	0.021421
449.8711	0.020746
450.0914	0.021463
450.3116	0.021885
450.5318	0.019649
450.7521	0.020851
450.9724	0.020134
451.1926	0.020619
451.4129	0.020366
451.6332	0.021737
451.8535	0.018194
452.0739	0.019565
452.2942	0.020261
452.5146	0.019692
452.7349	0.021041
452.9553	0.018405
453.1757	0.018553
453.3961	0.017013
453.6165	0.017393
453.8369	0.017983
454.0574	0.018953
454.2778	0.016886
454.4983	0.017118
454.7188	0.016275
454.9393	0.016338
455.1597	0.018194
455.3803	0.018004
455.6008	0.018342
455.8213	0.016591
456.0419	0.019607
456.2624	0.017878
456.4830	0.016697
456.7036	0.016127
456.9242	0.015326
457.1448	0.016992
457.3654	0.016950
457.5860	0.017751
457.8067	0.018953
458.0274	0.019164
458.2480	0.017055
458.4687	0.016233
458.6894	0.017203
458.9101	0.016760
459.1308	0.015516
459.3516	0.016106
459.5723	0.016401
459.7931	0.017730
460.0138	0.017393
460.2346	0.014756
460.4554	0.015663
460.6762	0.016275
460.8970	0.015600
461.1178	0.014166
461.3387	0.014356
461.5595	0.015516
461.7804	0.013723
462.0013	0.014503
462.2222	0.012563
462.4431	0.012816
462.6640	0.013512
462.8849	0.012225
463.1059	0.012753
463.3268	0.012078
463.5478	0.013976
463.7687	0.013765
463.9897	0.014081
464.2107	0.012711
464.4317	0.014039
464.6528	0.015431
464.8738	0.013976
465.0948	0.014166
465.3159	0.013322
465.5370	0.015009
465.7581	0.012373
465.9792	0.014292
466.2003	0.014482
466.4214	0.013449
466.6425	0.013470
466.8637	0.010939
467.0848	0.013090
467.3060	0.012732
467.5272	0.010264
467.7484	0.011424
467.9696	0.011867
468.1908	0.012837
468.4120	0.011445
468.6333	0.010201
468.8545	0.011087
469.0758	0.008746
469.2970	0.009294
469.5183	0.009631
469.7396	0.008514
469.9610	0.008830
470.1823	0.008809
470.4036	0.008282
470.6250	0.008345
470.8463	0.007417
471.0677	0.007564
471.2891	0.008092
471.5105	0.007818
471.7319	0.008239
471.9533	0.007607
472.1748	0.008788
472.3962	0.009231
472.6177	0.007881
472.8391	0.008134
473.0606	0.007227
473.2821	0.009125
473.5036	0.007543
473.7251	0.008661
473.9467	0.007670
474.1682	0.007206
474.3898	0.008556
474.6113	0.008092
474.8329	0.006847
475.0545	0.008408
475.2761	0.008239
475.4977	0.006046
475.7193	0.008746
475.9410	0.006552
476.1626	0.007311
476.3843	0.007818
476.6060	0.008492
476.8277	0.008155
477.0494	0.007775
477.2711	0.005350
477.4928	0.005624
477.7145	0.006552
477.9363	0.007037
478.1580	0.006847
478.3798	0.005898
478.6016	0.005561
478.8234	0.006531
479.0452	0.007670
479.2670	0.006826
479.4888	0.006911
479.7107	0.006426
479.9325	0.006805
480.1544	0.007607
480.3763	0.006531
480.5982	0.006341
480.8201	0.006130
481.0420	0.005202
481.2639	0.005940
481.4859	0.005139
481.7078	0.005498
481.9298	0.006826
482.1517	0.006742
482.3737	0.006679
482.5957	0.005392
482.8177	0.007459
483.0398	0.004422
483.2618	0.007396
483.4838	0.005603
483.7059	0.005392
483.9280	0.005666
484.1501	0.005919
484.3721	0.006299
484.5943	0.005730
484.8164	0.006953
485.0385	0.005181
485.2606	0.005034
485.4828	0.007691
485.7050	0.012099
485.9271	0.019143
486.1493	0.018110
486.3715	0.013744
486.5937	0.010749
486.8160	0.010707
487.0382	0.008788
487.2605	0.008935
487.4827	0.006109
487.7050	0.006615
487.9273	0.004823
488.1496	0.005160
488.3719	0.002861
488.5942	0.006383
488.8165	0.005624
489.0389	0.006194
489.2612	0.003621
489.4836	0.004949
489.7060	0.004211
489.9284	0.003895
490.1508	0.004844
490.3732	0.003599
490.5956	0.003452
490.8180	0.004591
491.0405	0.002714
491.2630	0.005540
491.4854	0.003578
491.7079	0.004380
491.9304	0.001975
492.1529	0.003916
492.3755	0.004865
492.5980	0.003599
492.8205	0.003072
493.0431	0.004274
493.2657	0.002355
493.4882	0.003093
493.7108	0.002988
493.9334	0.004527
494.1561	0.003663
494.3787	0.003452
494.6013	0.004338
494.8240	0.002925
495.0466	0.000605
495.2693	0.003958
495.4920	0.003220
495.7147	0.003874
495.9374	0.004190
496.1601	0.002545
496.3829	0.002503
496.6056	0.003157
496.8284	0.003494
497.0511	0.003093
497.2739	0.003874
497.4967	0.003367
497.7195	0.002397
497.9423	0.003621
498.1652	0.003599
498.3880	0.004127
498.6109	0.002229
498.8337	0.005329
499.0566	0.002482
499.2795	0.002482
499.5024	0.003895
499.7253	0.004907
499.9482	0.002482
500.1712	0.003831
500.3941	0.002840
500.6171	0.002861
500.8400	0.002819
501.0630	0.002039
501.2860	0.002461
501.5090	0.003051
501.7320	0.003410
501.9551	0.002756
502.1781	0.002292
502.4012	0.003220
502.6242	0.001912
502.8473	0.002250
503.0704	0.002524
503.2935	0.004253
503.5166	0.001343
503.7397	0.004570
503.9628	0.003304
504.1860	0.002629
504.4092	0.002798
504.6323	0.002608
504.8555	0.004211
505.0787	0.002777
505.3019	0.002608
505.5251	0.002925
505.7483	0.002693
505.9716	0.003093
506.1948	0.003578
506.4181	0.001912
506.6414	0.001427
506.8647	0.002756
507.0880	0.001743
507.3113	0.003768
507.5346	0.001828
507.7579	0.001849
507.9813	0.000773
508.2046	0.004021
508.4280	0.002418
508.6514	0.002693
508.8748	0.002756
509.0982	0.002334
509.3216	0.001237
509.5450	0.002482
509.7685	0.001765
509.9919	0.003051
510.2154	0.002229
510.4388	0.003853
510.6623	0.001638
510.8858	0.002376
511.1093	0.003473
511.3329	0.001912
511.5564	0.001786
511.7799	0.001659
512.0035	0.002608
512.2270	0.000879
512.4506	0.002313
512.6742	0.003325
512.8978	0.002524
513.1214	0.002439
513.3451	0.002165
513.5687	0.000984
513.7923	0.002376
514.0160	0.003367
514.2397	0.002376
514.4634	0.003536
514.6871	0.002250
514.9108	0.003452
515.1345	0.002735
515.3582	0.003642
515.5819	0.001701
515.8057	0.002714
516.0295	0.002397
516.2532	0.003093
516.4770	0.002102
516.7008	0.002840
516.9246	0.002376
517.1485	0.002566
517.3723	0.002102
517.5961	0.004148
517.8200	0.002418
518.0439	0.002671
518.2677	0.003178
518.4916	0.003009
518.7155	0.003051
518.9395	0.003578
519.1634	0.002271
519.3873	0.002608
519.6113	0.002039
519.8352	0.002925
520.0592	0.002735
520.2832	0.003684
520.5072	0.002524
520.7312	0.003874
520.9552	0.001490
521.1792	0.002144
521.4033	0.002903
521.6273	0.000921
521.8514	0.003389
522.0755	0.002018
522.2996	0.003389
522.5237	0.002376
522.7478	0.002756
522.9719	0.002207
523.1960	0.003853
523.4202	0.002714
523.6443	0.003642
523.8685	0.002650
524.0927	0.002988
524.3169	0.003452
524.5411	0.004317
524.7653	0.003831
524.9895	0.003431
525.2138	0.003621
525.4380	0.004317
525.6623	0.003009
525.8865	0.004042
526.1108	0.003114
526.3351	0.004042
526.5594	0.003030
526.7837	0.004106
527.0081	0.002292
527.2324	0.002313
527.4568	0.004907
527.6811	0.004190
527.9055	0.002903
528.1299	0.004759
528.3543	0.002418
528.5787	0.004570
528.8031	0.003705
529.0276	0.003684
529.2520	0.005076
529.4765	0.005645
529.7009	0.004085
529.9254	0.005076
530.1499	0.004127
530.3744	0.002840
530.5989	0.004612
530.8234	0.005455
531.0480	0.003072
531.2725	0.003199
531.4971	0.004422
531.7217	0.006046
531.9462	0.004823
532.1708	0.006784
532.3954	0.005455
532.6200	0.005308
532.8447	0.005624
533.0693	0.007100
533.2940	0.005709
533.5186	0.005582
533.7433	0.006172
533.9680	0.005835
534.1927	0.006278
534.4174	0.005898
534.6421	0.006046
534.8668	0.007712
535.0916	0.006447
535.3163	0.007543
535.5411	0.007100
535.7659	0.009041
535.9907	0.006679
536.2155	0.007670
536.4403	0.006067
536.6651	0.007375
536.8899	0.005856
537.1148	0.005287
537.3396	0.006489
537.5645	0.007290
537.7894	0.007290
538.0143	0.008661
538.2392	0.008640
538.4641	0.008956
538.6890	0.008914
538.9139	0.009526
539.1389	0.006236
539.3638	0.008619
539.5888	0.008303
539.8138	0.008556
540.0388	0.008408
540.2638	0.008914
540.4888	0.008724
540.7138	0.009357
540.9389	0.008640
541.1639	0.007564
541.3890	0.010327
541.6140	0.009716
541.8391	0.009969
542.0642	0.008598
542.2893	0.011171
542.5144	0.011002
542.7396	0.010370
542.9647	0.011382
543.1899	0.011508
543.4150	0.011993
543.6402	0.012162
543.8654	0.011572
544.0906	0.013575
544.3158	0.012732
544.5410	0.012310
544.7662	0.012225
544.9915	0.013090
545.2167	0.012373
545.4420	0.013976
545.6673	0.013533
545.8926	0.013132
546.1179	0.010475
546.3432	0.011635
546.5685	0.013027
546.7938	0.013132
547.0192	0.013132
547.2445	0.013913
547.4699	0.013259
547.6953	0.015790
547.9206	0.015431
548.1460	0.016992
548.3715	0.019924
548.5969	0.017540
548.8223	0.018025
549.0478	0.015368
549.2732	0.015811
549.4987	0.015009
549.7242	0.016950
549.9496	0.015305
550.1751	0.015811
550.4007	0.015537
550.6262	0.015811
550.8517	0.015199
551.0773	0.016148
551.3028	0.014904
551.5284	0.014377
551.7540	0.016865
551.9796	0.016486
552.2052	0.019122
552.4308	0.019080
552.6564	0.017793
552.8820	0.019607
553.1077	0.019375
553.3333	0.018742
553.5590	0.020809
553.7847	0.020746
554.0104	0.019734
554.2361	0.018742
554.4618	0.019312
554.6875	0.018489
554.9132	0.017983
555.1390	0.020577
555.3648	0.019649
555.5905	0.023087
555.8163	0.020514
556.0421	0.023910
556.2679	0.023298
556.4937	0.021822
556.7195	0.021189
556.9454	0.021885
557.1712	0.021505
557.3971	0.022349
557.6230	0.023425
557.8488	0.023678
558.0747	0.021505
558.3006	0.020388
558.5266	0.022518
558.7525	0.022475
558.9784	0.019776
559.2044	0.020957
559.4303	0.020830
559.6563	0.022876
559.8823	0.023762
560.1083	0.023910
560.3343	0.024416
560.5603	0.027854
560.7863	0.027917
561.0124	0.029161
561.2384	0.030110
561.4645	0.030848
561.6905	0.028571
561.9166	0.028149
562.1427	0.027706
562.3688	0.026124
562.5949	0.027959
562.8211	0.027136
563.0472	0.028782
563.2733	0.029752
563.4995	0.030448
563.7257	0.030005
563.9519	0.030427
564.1781	0.031903
564.4043	0.032346
564.6305	0.034012
564.8567	0.032388
565.0829	0.031144
565.3092	0.033885
565.5355	0.033485
565.7617	0.034982
565.9880	0.034033
566.2143	0.034012
566.4406	0.035762
566.6669	0.034286
566.8932	0.036648
567.1196	0.037956
567.3459	0.041541
567.5723	0.045063
567.7987	0.046962
568.0250	0.046898
568.2514	0.047974
568.4778	0.049408
568.7043	0.050863
568.9307	0.057359
569.1571	0.059321
569.3836	0.066091
569.6100	0.072333
569.8365	0.078281
570.0630	0.085726
570.2895	0.086106
570.5160	0.087687
570.7425	0.087582
570.9690	0.094879
571.1956	0.103716
571.4221	0.106331
571.6487	0.108609
571.8752	0.110655
572.1018	0.115506
572.3284	0.113797
572.5550	0.109305
572.7816	0.099582
573.0082	0.099540
573.2349	0.106078
573.4615	0.114768
573.6882	0.120420
573.9149	0.128645
574.1415	0.133032
574.3682	0.138726
574.5949	0.144147
574.8216	0.146066
575.0484	0.146741
575.2751	0.147078
575.5018	0.145918
575.7286	0.138030
575.9554	0.130839
576.1821	0.132231
576.4089	0.133011
576.6357	0.143662
576.8626	0.150136
577.0894	0.154101
577.3162	0.156147
577.5431	0.162221
577.7699	0.183185
577.9968	0.208325
578.2237	0.201597
578.4505	0.192254
578.6774	0.175255
578.9044	0.168253
579.1313	0.155557
579.3582	0.158109
579.5851	0.166439
579.8121	0.173441
580.0391	0.171712
580.2660	0.175677
580.4930	0.172049
580.7200	0.163740
580.9470	0.169392
581.1741	0.200733
581.4011	0.241079
581.6281	0.268792
581.8552	0.266830
582.0822	0.261790
582.3093	0.259891
582.5364	0.238506
582.7635	0.214948
582.9906	0.203601
583.2177	0.186960
583.4449	0.170531
583.6720	0.159015
583.8991	0.154861
584.1263	0.157750
584.3535	0.157370
584.5807	0.162116
584.8079	0.171311
585.0351	0.185189
585.2623	0.197042
585.4895	0.197442
585.7167	0.192423
585.9440	0.189386
586.1713	0.178735
586.3985	0.167684
586.6258	0.163339
586.8531	0.167135
587.0804	0.178841
587.3077	0.184851
587.5350	0.189976
587.7624	0.185948
587.9897	0.177955
588.2171	0.167916
588.4445	0.165469
588.6718	0.164689
588.8992	0.153490
589.1266	0.148175
589.3540	0.138389
589.5815	0.133791
589.8089	0.134993
590.0363	0.136174
590.2638	0.126346
590.4913	0.122930
590.7187	0.118965
590.9462	0.113355
591.1737	0.107365
591.4012	0.106479
591.6288	0.111477
591.8563	0.110022
592.0838	0.106500
592.3114	0.108356
592.5389	0.128434
592.7665	0.147078
592.9941	0.166524
593.2217	0.165090
593.4493	0.168148
593.6769	0.166228
593.9046	0.161272
594.1322	0.153680
594.3598	0.143514
594.5875	0.141869
594.8152	0.150875
595.0429	0.158109
595.2705	0.165300
595.4983	0.159311
595.7260	0.150305
595.9537	0.141194
596.1814	0.134002
596.4092	0.124385
596.6369	0.116160
596.8647	0.114620
597.0925	0.120293
597.3203	0.122571
597.5481	0.122909
597.7759	0.120589
598.0037	0.115569
598.2315	0.113101
598.4594	0.114472
598.6872	0.129341
598.9151	0.143535
599.1430	0.155746
599.3709	0.150790
599.5988	0.144843
599.8267	0.144442
600.0546	0.149103
600.2825	0.153110
600.5105	0.148892
600.7384	0.149883
600.9664	0.152984
601.1944	0.150516
601.4223	0.151697
601.6503	0.146572
601.8783	0.140456
602.1064	0.137946
602.3344	0.138621
602.5624	0.138726
602.7905	0.137124
603.0185	0.142966
603.2466	0.149483
603.4747	0.158066
603.7028	0.157792
603.9309	0.150453
604.1590	0.141553
604.3871	0.136681
604.6152	0.133433
604.8434	0.127253
605.0715	0.128856
605.2997	0.129320
605.5279	0.135436
605.7561	0.142101
605.9843	0.145096
606.2125	0.140688
606.4407	0.133665
606.6689	0.127991
606.8972	0.127970
607.1254	0.128877
607.3537	0.133391
607.5819	0.131703
607.8102	0.130628
608.0385	0.127970
608.2668	0.122255
608.4951	0.120778
608.7235	0.115295
608.9518	0.117699
609.1801	0.112258
609.4085	0.110760
609.6369	0.106669
609.8653	0.113671
610.0936	0.124659
610.3220	0.126494
610.5505	0.123457
610.7789	0.114641
611.0073	0.115611
611.2357	0.113608
611.4642	0.112553
611.6927	0.115063
611.9211	0.112680
612.1496	0.111941
612.3781	0.106205
612.6066	0.106099
612.8351	0.106774
613.0637	0.104665
613.2922	0.106184
613.5208	0.101607
613.7493	0.103105
613.9779	0.099118
614.2065	0.105382
614.4351	0.106078
614.6637	0.101776
614.8923	0.104349
615.1209	0.103484
615.3495	0.104644
615.5782	0.107027
615.8068	0.108440
616.0355	0.103547
616.2642	0.095301
616.4929	0.093150
616.7216	0.094753
616.9503	0.092433
617.1790	0.088868
617.4077	0.089248
617.6365	0.091463
617.8652	0.091146
618.0940	0.090176
618.3227	0.087772
618.5515	0.085093
618.7803	0.079989
619.0091	0.074611
619.2379	0.073557
619.4667	0.075497
619.6956	0.075012
619.9244	0.075370
620.1533	0.076066
620.3821	0.080896
620.6110	0.078829
620.8399	0.069929
621.0688	0.066934
621.2977	0.062505
621.5266	0.060628
621.7556	0.064256
621.9845	0.067883
622.2135	0.066386
622.4424	0.068453
622.6714	0.067483
622.9004	0.068200
623.1294	0.075054
623.3584	0.073599
623.5874	0.074632
623.8164	0.073451
624.0454	0.071448
624.2745	0.072333
624.5035	0.074822
624.7326	0.077058
624.9617	0.075413
625.1908	0.073536
625.4199	0.065500
625.6490	0.065416
625.8781	0.066217
626.1072	0.064741
626.3364	0.060734
626.5655	0.058604
626.7947	0.056705
627.0238	0.058540
627.2530	0.057865
627.4822	0.057233
627.7114	0.059342
627.9406	0.054702
628.1698	0.054175
628.3991	0.051053
628.6283	0.048902
628.8576	0.047847
629.0868	0.049450
629.3161	0.049788
629.5454	0.054702
629.7747	0.052593
630.0040	0.052255
630.2333	0.047658
630.4626	0.047489
630.6920	0.046772
630.9213	0.046139
631.1507	0.044431
631.3801	0.042659
631.6094	0.041478
631.8388	0.043925
632.0682	0.042617
632.2976	0.042786
632.5271	0.039580
632.7565	0.038589
632.9859	0.037555
633.2154	0.037829
633.4448	0.036226
633.6743	0.037154
633.9038	0.036416
634.1333	0.036037
634.3628	0.034666
634.5923	0.034455
634.8218	0.032008
635.0514	0.033907
635.2809	0.032915
635.5105	0.032768
635.7400	0.034455
635.9696	0.033274
636.1992	0.035067
636.4288	0.037597
636.6584	0.038293
636.8880	0.037893
637.1177	0.036458
637.3473	0.034708
637.5770	0.032641
637.8066	0.033400
638.0363	0.035193
638.2660	0.033105
638.4957	0.036965
638.7254	0.036754
638.9551	0.035214
639.1848	0.034392
639.4145	0.034075
639.6443	0.031156
639.8740	0.031534
640.1038	0.030539
640.3336	0.031596
640.5633	0.030267
640.7931	0.030603
641.0229	0.027322
641.2528	0.029017
641.4826	0.029450
641.7124	0.026784
641.9423	0.026255
642.1721	0.024829
642.4020	0.025609
642.6319	0.025317
642.8617	0.022978
643.0916	0.026136
643.3216	0.024866
643.5515	0.025371
643.7814	0.024244
644.0113	0.023757
644.2413	0.022200
644.4712	0.023841
644.7012	0.022828
644.9312	0.021543
645.1612	0.023456
645.3912	0.022794
645.6212	0.021555
645.8512	0.020400
646.0812	0.021213
646.3113	0.021863
646.5413	0.020444
646.7714	0.019576
647.0015	0.018653
647.2316	0.020122
647.4616	0.022323
647.6918	0.020610
647.9219	0.023006
648.1520	0.022392
648.3821	0.026711
648.6123	0.026764
648.8424	0.027015
649.0726	0.027441
649.3028	0.027656
649.5329	0.028452
649.7631	0.027946
649.9933	0.027483
650.2236	0.024674
650.4538	0.024274
650.6840	0.024702
650.9143	0.022517
651.1445	0.023783
651.3748	0.023989
651.6051	0.024501
651.8354	0.023269
652.0657	0.024993
652.2960	0.027282
652.5263	0.026091
652.7566	0.026096
652.9870	0.024862
653.2173	0.026839
653.4477	0.027335
653.6780	0.026193
653.9084	0.025339
654.1388	0.027716
654.3692	0.028642
654.5996	0.029350
654.8300	0.033966
655.0605	0.049080
655.2909	0.131604
655.5213	0.396685
655.7518	0.800262
655.9823	1.013447
656.2128	1.004490
656.4433	1.006725
656.6738	1.005680
656.9043	0.895047
657.1348	0.716725
657.3653	0.581710
657.5959	0.492355
657.8264	0.435309
658.0570	0.397175
658.2875	0.358066
658.5181	0.325061
658.7487	0.302693
658.9793	0.286085
659.2099	0.235095
659.4406	0.163994
659.6712	0.097374
659.9018	0.058231
660.1325	0.037582
660.3632	0.025597
660.5938	0.020678
660.8245	0.019956
661.0552	0.020383
661.2859	0.019354
661.5166	0.020867
661.7474	0.019652
661.9781	0.018819
662.2088	0.018833
662.4396	0.019818
662.6704	0.019382
662.9011	0.016890
663.1319	0.018817
663.3627	0.016556
663.5935	0.020053
663.8243	0.017623
664.0552	0.018190
664.2860	0.019305
664.5168	0.019023
664.7477	0.017317
664.9786	0.019605
665.2094	0.019095
665.4403	0.021037
665.6712	0.019373
665.9021	0.020913
666.1330	0.019736
666.3640	0.020097
666.5949	0.018676
666.8259	0.015686
667.0568	0.017731
667.2878	0.017541
667.5188	0.016259
667.7497	0.018154
667.9807	0.016199
668.2117	0.017922
668.4428	0.018257
668.6738	0.016486
668.9048	0.016676
669.1359	0.016591
669.3669	0.017477
669.5980	0.016169
669.8291	0.017983
670.0602	0.018046
670.2913	0.017203
670.5224	0.017709
670.7535	0.019586
670.9846	0.016739
671.2157	0.021062
671.4469	0.020198
671.6781	0.022096
671.9092	0.025534
672.1404	0.026904
672.3716	0.028866
672.6028	0.030237
672.8340	0.028613
673.0652	0.028465
673.2964	0.028318
673.5277	0.023910
673.7589	0.025006
673.9902	0.024437
674.2214	0.024163
674.4527	0.024078
674.6840	0.021337
674.9153	0.020788
675.1466	0.022644
675.3779	0.024542
675.6093	0.021695
675.8406	0.022454
676.0719	0.020324
676.3033	0.021674
676.5347	0.020198
676.7661	0.020050
676.9974	0.019080
677.2288	0.018806
677.4602	0.020830
677.6917	0.022729
677.9231	0.024943
678.1545	0.023214
678.3860	0.023572
678.6174	0.026082
678.8489	0.026504
679.0804	0.026609
679.3119	0.024922
679.5434	0.027200
679.7749	0.028845
680.0064	0.029899
680.2379	0.028402
680.4694	0.029942
680.7010	0.027643
680.9325	0.027600
681.1641	0.026145
681.3957	0.031080
681.6273	0.030427
681.8589	0.029330
682.0905	0.028760
682.3221	0.027284
682.5537	0.026314
682.7854	0.024669
683.0170	0.024901
683.2487	0.026609
683.4803	0.025259
683.7120	0.025365
683.9437	0.027558
684.1754	0.026778
684.4071	0.028676
684.6388	0.030174
684.8705	0.032704
685.1023	0.034413
685.3340	0.035552
685.5658	0.035109
685.7975	0.037935
686.0293	0.036353
686.2611	0.036944
686.4929	0.036374
686.7247	0.036775
686.9565	0.035362
687.1883	0.035826
687.4202	0.037787
687.6520	0.036311
687.8838	0.036817
688.1157	0.032051
688.3476	0.033759
688.5795	0.029625
688.8114	0.030975
689.0433	0.030891
689.2752	0.031882
689.5071	0.031228
689.7390	0.029014
689.9710	0.028739
690.2029	0.027242
690.4349	0.028992
690.6669	0.026440
690.8988	0.030237
691.1308	0.031228
691.3628	0.032409
691.5948	0.032304
691.8269	0.032430
692.0589	0.031376
692.2909	0.032219
692.5230	0.029984
692.7550	0.029942
692.9871	0.031207
693.2192	0.033738
693.4513	0.033548
693.6834	0.034961
693.9155	0.032304
694.1476	0.029435
694.3797	0.028950
694.6119	0.025955
694.8440	0.026293
695.0762	0.029098
695.3083	0.029456
695.5405	0.026061
695.7727	0.025934
696.0049	0.023066
696.2371	0.026019
696.4693	0.025049
696.7016	0.029984
696.9338	0.032029
697.1660	0.035341
697.3983	0.033675
697.6306	0.032283
697.8628	0.033021
698.0951	0.032135
698.3274	0.031186
698.5597	0.031439
698.7920	0.031101
699.0243	0.031123
699.2567	0.030321
699.4890	0.029984
699.7214	0.028634
699.9537	0.029372
700.1861	0.025998
700.4185	0.026208
700.6509	0.025787
700.8833	0.026736
701.1157	0.026166
701.3481	0.021358
701.5806	0.023171
701.8130	0.024247
702.0454	0.024711
702.2779	0.023657
702.5104	0.026272
702.7429	0.027136
702.9753	0.025175
703.2078	0.024226
703.4403	0.024163
703.6729	0.023066
703.9054	0.022665
704.1379	0.023804
704.3705	0.023741
704.6030	0.024416
704.8356	0.021210
705.0682	0.020978
705.3008	0.019607
705.5334	0.020029
705.7660	0.018785
705.9986	0.018025
706.2312	0.023762
706.4638	0.025534
706.6965	0.027010
706.9291	0.027980
707.1618	0.031523
707.3945	0.030806
707.6272	0.031692
707.8599	0.030848
708.0926	0.031376
708.3253	0.031186
708.5580	0.031249
708.7907	0.031608
709.0235	0.029309
709.2562	0.027263
709.4890	0.027980
709.7217	0.028760
709.9545	0.028022
710.1873	0.027896
710.4201	0.029583
710.6529	0.029309
710.8857	0.029098
711.1186	0.028571
711.3514	0.027432
711.5842	0.025344
711.8171	0.024542
712.0500	0.024732
712.2828	0.022075
712.5157	0.023530
712.7486	0.023488
712.9815	0.024606
713.2144	0.023994
713.4474	0.025512
713.6803	0.025491
713.9132	0.027031
714.1462	0.029182
714.3791	0.029246
714.6121	0.028381
714.8451	0.030469
715.0781	0.028782
715.3111	0.029182
715.5441	0.028950
715.7771	0.027938
716.0102	0.025850
716.2432	0.025723
716.4762	0.024521
716.7093	0.023171
716.9424	0.023614
717.1754	0.022117
717.4085	0.023657
717.6416	0.022581
717.8747	0.020873
718.1078	0.023614
718.3410	0.025934
718.5741	0.021210
718.8072	0.022454
719.0404	0.022349
719.2736	0.024163
719.5067	0.024859
719.7399	0.024901
719.9731	0.021590
720.2063	0.024500
720.4395	0.024184
720.6727	0.023678
720.9060	0.023277
721.1392	0.023804
721.3725	0.025787
721.6057	0.025049
721.8390	0.025512
722.0723	0.023762
722.3055	0.023825
722.5388	0.020662
722.7721	0.022539
723.0055	0.020809
723.2388	0.023235
723.4721	0.023235
723.7055	0.022117
723.9388	0.023235
724.1722	0.024521
724.4056	0.024901
724.6389	0.023171
724.8723	0.023382
725.1057	0.024985
725.3391	0.027200
725.5726	0.026103
725.8060	0.026841
726.0394	0.027368
726.2729	0.027917
726.5063	0.028676
726.7398	0.026862
726.9733	0.027179
727.2068	0.027390
727.4403	0.024669
727.6738	0.027115
727.9073	0.026904
728.1408	0.030722
728.3743	0.026799
728.6079	0.028212
728.8414	0.027622
729.0750	0.027875
729.3086	0.027368
729.5421	0.028971
729.7757	0.029920
730.0093	0.029984
730.2429	0.029752
730.4766	0.029794
730.7102	0.032662
730.9438	0.035256
731.1775	0.035446
731.4111	0.034771
731.6448	0.035826
731.8785	0.034940
732.1122	0.034244
732.3458	0.032641
732.5795	0.034349
732.8133	0.035172
733.0470	0.036733
733.2807	0.033506
733.5145	0.036648
733.7482	0.035467
733.9820	0.038568
734.2157	0.041225
734.4495	0.044747
734.6833	0.043967
734.9171	0.041984
735.1509	0.040044
735.3847	0.039749
735.6185	0.040993
735.8524	0.038673
736.0862	0.039664
736.3201	0.038968
736.5539	0.041162
736.7878	0.040086
737.0217	0.041879
737.2556	0.041541
737.4895	0.038610
737.7234	0.036754
737.9573	0.037091
738.1912	0.032725
738.4252	0.033970
738.6591	0.032451
738.8931	0.036480
739.1271	0.039032
739.3610	0.039327
739.5950	0.038968
739.8290	0.037302
740.0630	0.037492
740.2970	0.035910
740.5310	0.031376
740.7651	0.033885
740.9991	0.033211
741.2332	0.031945
741.4672	0.027010
741.7013	0.028001
741.9354	0.027073
742.1695	0.026799
742.4036	0.027790
742.6377	0.027158
742.8718	0.026419
743.1059	0.029456
743.3400	0.026019
743.5742	0.026736
743.8083	0.024331
744.0425	0.025534
744.2767	0.024163
744.5108	0.025534
744.7450	0.024774
744.9792	0.024500
745.2134	0.025892
745.4477	0.022939
745.6819	0.023614
745.9161	0.022939
746.1504	0.024627
746.3846	0.025006
746.6189	0.022243
746.8532	0.023509
747.0874	0.024437
747.3217	0.025766
747.5560	0.026103
747.7903	0.026145
748.0247	0.023994
748.2590	0.023446
748.4933	0.021400
748.7277	0.025428
748.9620	0.023931
749.1964	0.026483
749.4308	0.025027
749.6652	0.028064
749.8995	0.029478
750.1339	0.031966
750.3684	0.032304
750.6028	0.032957
750.8372	0.032683
751.0717	0.032662
751.3061	0.032156
751.5406	0.031376
751.7750	0.033358
752.0095	0.033021
752.2440	0.031903
752.4785	0.030933
752.7130	0.031418
752.9475	0.031544
753.1820	0.029499
753.4166	0.031523
753.6511	0.033168
753.8856	0.036754
754.1202	0.033822
754.3548	0.034307
754.5894	0.032810
754.8239	0.035530
755.0585	0.033506
755.2931	0.034413
755.5278	0.035657
755.7624	0.034729
755.9970	0.036669
756.2317	0.036796
756.4663	0.039960
756.7010	0.039728
756.9356	0.041541
757.1703	0.042385
757.4050	0.046687
757.6397	0.048375
757.8744	0.050083
758.1091	0.046772
758.3438	0.045085
758.5786	0.046603
758.8133	0.043123
759.0481	0.046012
759.2828	0.046540
759.5176	0.051264
759.7524	0.050231
759.9872	0.049450
760.2220	0.049197
760.4568	0.050399
760.6916	0.052276
760.9264	0.050146
761.1613	0.051496
761.3961	0.050463
761.6310	0.046371
761.8658	0.043060
762.1007	0.040529
762.3356	0.041183
762.5705	0.040782
762.8054	0.039306
763.0403	0.039664
763.2752	0.040213
763.5101	0.040107
763.7450	0.039791
763.9800	0.041373
764.2149	0.043081
764.4499	0.043988
764.6849	0.050125
764.9198	0.047109
765.1548	0.049176
765.3898	0.047679
765.6248	0.044241
765.8599	0.041731
766.0949	0.040655
766.3299	0.038525
766.5650	0.036859
766.8000	0.033569
767.0351	0.032388
767.2701	0.031038
767.5052	0.031186
767.7403	0.031291
767.9754	0.033295
768.2105	0.034708
768.4456	0.039074
768.6808	0.038905
768.9159	0.040255
769.1510	0.039348
769.3862	0.040023
769.6214	0.037197
769.8565	0.035214
770.0917	0.038167
770.3269	0.037049
770.5621	0.037302
770.7973	0.039074
771.0325	0.038209
771.2677	0.040993
771.5030	0.037914
771.7382	0.037070
771.9735	0.034560
772.2087	0.033907
772.4440	0.036100
772.6793	0.032515
772.9146	0.032852
773.1499	0.032219
773.3852	0.032409
773.6205	0.031987
773.8558	0.030511
774.0911	0.029815
774.3265	0.025766
774.5618	0.026736
774.7972	0.024922
775.0326	0.026947
775.2679	0.025512
775.5033	0.024099
775.7387	0.023551
775.9741	0.020999
776.2095	0.020451
776.4450	0.020514
776.6804	0.020830
776.9158	0.020683
777.1513	0.020830
777.3868	0.020830
777.6222	0.020113
777.8577	0.019628
778.0932	0.019692
778.3287	0.019607
778.5642	0.021041
778.7997	0.023403
779.0352	0.024036
779.2707	0.026947
779.5063	0.024690
779.7418	0.026103
779.9774	0.023509
780.2130	0.022096
780.4485	0.025344
780.6841	0.024795
780.9197	0.025976
781.1553	0.027790
781.3909	0.028339
781.6265	0.029646
781.8622	0.030996
782.0978	0.028486
782.3335	0.028064
782.5691	0.028655
782.8048	0.028381
783.0405	0.027917
783.2761	0.028592
783.5118	0.028191
783.7475	0.028824
783.9832	0.028676
784.2190	0.026778
784.4547	0.025175
784.6904	0.021801
784.9262	0.023593
785.1619	0.023783
785.3977	0.022602
785.6335	0.023657
785.8692	0.022433
786.1050	0.023488
786.3408	0.022665
786.5766	0.022897
786.8124	0.022961
787.0483	0.020767
787.2841	0.023277
787.5199	0.022982
787.7558	0.024943
787.9917	0.025070
788.2275	0.024479
788.4634	0.026736
788.6993	0.025259
788.9352	0.027136
789.1711	0.026462
789.4070	0.024795
789.6429	0.023614
789.8789	0.023361
790.1148	0.020156
790.3507	0.020598
790.5867	0.021210
790.8227	0.019565
791.0586	0.019797
791.2946	0.020472
791.5306	0.020662
791.7666	0.020071
792.0026	0.018532
792.2387	0.019375
792.4747	0.018616
792.7107	0.017477
792.9468	0.017203
793.1828	0.016127
793.4189	0.019417
793.6550	0.019101
793.8910	0.019860
794.1271	0.024542
794.3632	0.024922
794.5993	0.026019
794.8355	0.026862
795.0716	0.026799
795.3077	0.028064
795.5439	0.026525
795.7800	0.025512
796.0162	0.022560
796.2523	0.021674
796.4885	0.020282
796.7247	0.020156
796.9609	0.017730
797.1971	0.018405
797.4333	0.019059
797.6695	0.018489
797.9058	0.018996
798.1420	0.019143
798.3783	0.019987
798.6145	0.018616
798.8508	0.020261
799.0871	0.020071
799.3233	0.019080
799.5596	0.018342
799.7959	0.017034
800.0322	0.018131
800.2686	0.016654
800.5049	0.015958
800.7412	0.017540
800.9776	0.014103
801.2139	0.016212
801.4503	0.015642
801.6867	0.016233
801.9230	0.015389
802.1594	0.013660
802.3958	0.014609
802.6322	0.014039
802.8686	0.013196
803.1051	0.014841
803.3415	0.015663
803.5779	0.014714
803.8144	0.014988
804.0508	0.014440
804.2873	0.014904
804.5238	0.014187
804.7603	0.015537
804.9968	0.015220
805.2333	0.012689
805.4698	0.015094
805.7063	0.015452
805.9428	0.016465
806.1794	0.017456
806.4159	0.019966
806.6525	0.020725
806.8890	0.020050
807.1256	0.019924
807.3622	0.020156
807.5988	0.018637
807.8354	0.018827
808.0720	0.017245
808.3086	0.019375
808.5452	0.017857
808.7818	0.019312
809.0185	0.017646
809.2551	0.018342
809.4918	0.017013
809.7284	0.017393
809.9651	0.014904
810.2018	0.015769
810.4385	0.015410
810.6752	0.014567
810.9119	0.015832
811.1486	0.016802
811.3853	0.013702
811.6221	0.016633
811.8588	0.013765
812.0956	0.014967
812.3323	0.014124
812.5691	0.013301
812.8059	0.012141
813.0427	0.011909
813.2795	0.012036
813.5163	0.013280
813.7531	0.016760
813.9899	0.017055
814.2267	0.016908
814.4636	0.015748
814.7004	0.014883
814.9373	0.014672
815.1742	0.014503
815.4110	0.013006
815.6479	0.013238
815.8848	0.012521
816.1217	0.011761
816.3586	0.011192
816.5955	0.011403
816.8324	0.011361
817.0694	0.011719
817.3063	0.012837
817.5433	0.013153
817.7802	0.012015
818.0172	0.011783
818.2542	0.011635
818.4912	0.010412
818.7282	0.012415
818.9652	0.011171
819.2022	0.010665
819.4392	0.011129
819.6762	0.010095
819.9133	0.009758
820.1503	0.009420
820.3874	0.012352
820.6244	0.013048
820.8615	0.014018
821.0986	0.013913
821.3357	0.012099
821.5727	0.012900
821.8099	0.012057
822.0470	0.011234
822.2841	0.011930
822.5212	0.012310
822.7584	0.010602
822.9955	0.008746
823.2327	0.010370
823.4698	0.008809
823.7070	0.011487
823.9442	0.009273
824.1814	0.007923
824.4186	0.007649
824.6558	0.009779
824.8930	0.008514
825.1302	0.009990
825.3675	0.008450
825.6047	0.011508
825.8419	0.010855
826.0792	0.011656
826.3165	0.009716
826.5537	0.010960
826.7910	0.011382
827.0283	0.012521
827.2656	0.010876
827.5029	0.010412
827.7402	0.012078
827.9776	0.011508
828.2149	0.010180
828.4522	0.011087
828.6896	0.009758
828.9270	0.011044
829.1643	0.011529
829.4017	0.010370
829.6391	0.008935
829.8765	0.008978
830.1139	0.010011
830.3513	0.008661
830.5887	0.008640
830.8261	0.010032
831.0636	0.007100
831.3010	0.008197
831.5385	0.007375
831.7759	0.006172
832.0134	0.006658
832.2509	0.006742
832.4884	0.006974
832.7259	0.006215
832.9634	0.008176
833.2009	0.006890
833.4384	0.008007
833.6759	0.008872
833.9135	0.009294
834.1510	0.009779
834.3886	0.009357
834.6261	0.010517
834.8637	0.009484
835.1013	0.009083
835.3389	0.010011
835.5765	0.008028
835.8141	0.007564
836.0517	0.008366
836.2893	0.008577
836.5269	0.008071
836.7646	0.006341
837.0022	0.005856
837.2399	0.006679
837.4775	0.006468
837.7152	0.005666
837.9529	0.005118
838.1906	0.005793
838.4283	0.006320
838.6660	0.005540
838.9037	0.007016
839.1414	0.006172
839.3791	0.005835
839.6169	0.006194
839.8546	0.006594
840.0924	0.004928
840.3302	0.006172
840.5679	0.005624
840.8057	0.006383
841.0435	0.005877
841.2813	0.006299
841.5191	0.005751
841.7569	0.005540
841.9947	0.005287
842.2326	0.005013
842.4704	0.004570
842.7082	0.004970
842.9461	0.004506
843.1840	0.003431
843.4218	0.005034
843.6597	0.004063
843.8976	0.004464
844.1355	0.004759
844.3734	0.006194
844.6113	0.005223
844.8492	0.003747
845.0872	0.006299
845.3251	0.004401
845.5631	0.004148
845.8010	0.003853
846.0390	0.004317
846.2770	0.004612
846.5149	0.004085
846.7529	0.004042
846.9909	0.003768
847.2289	0.003789
847.4669	0.005076
847.7050	0.004696
847.9430	0.006109
848.1810	0.004570
848.4191	0.004338
848.6571	0.003599
848.8952	0.004802
849.1333	0.004633
849.3713	0.004675
849.6094	0.003768
849.8475	0.005350
850.0856	0.004907
850.3237	0.002925
850.5619	0.005434
850.8000	0.003431
851.0381	0.002861
851.2763	0.004042
851.5144	0.004591
851.7526	0.003853
851.9908	0.003874
852.2289	0.004759
852.4671	0.006362
852.7053	0.007754
852.9435	0.008345
853.1817	0.011656
853.4200	0.010412
853.6582	0.012732
853.8964	0.012436
854.1347	0.011783
854.3729	0.012057
854.6112	0.012584
854.8495	0.012289
855.0877	0.011087
855.3260	0.011593
855.5643	0.010559
855.8026	0.008661
856.0409	0.008978
856.2792	0.010074
856.5176	0.011508
856.7559	0.009146
856.9942	0.011888
857.2326	0.010327
857.4710	0.007923
857.7093	0.007417
857.9477	0.008134
858.1861	0.008050
858.4245	0.006890
858.6629	0.006531
858.9013	0.008239
859.1397	0.005983
859.3781	0.007775
859.6166	0.008324
859.8550	0.007417
860.0935	0.006172
860.3319	0.007480
860.5704	0.007269
860.8089	0.005413
861.0473	0.005181
861.2858	0.005624
861.5243	0.004527
861.7628	0.005877
862.0013	0.004781
862.2399	0.005540
862.4784	0.005013
862.7169	0.005898
862.9555	0.004317
863.1940	0.004506
863.4326	0.006215
863.6712	0.006236
863.9098	0.006130
864.1483	0.006151
864.3869	0.005055
864.6255	0.004781
864.8642	0.004633
865.1028	0.004527
865.3414	0.004844
865.5800	0.004928
865.8187	0.003557
866.0573	0.004443
866.2960	0.003431
866.5347	0.003726
866.7733	0.004021
867.0120	0.005266
867.2507	0.004591
867.4894	0.004443
867.7281	0.003599
867.9669	0.004253
868.2056	0.005202
868.4443	0.004401
868.6831	0.004675
868.9218	0.003452
869.1606	0.006172
869.3993	0.003557
869.6381	0.004338
869.8769	0.004591
870.1157	0.004127
870.3545	0.004506
870.5933	0.003051
870.8321	0.004570
871.0709	0.005160
871.3097	0.006658
871.5486	0.004675
871.7874	0.005350
872.0263	0.002840
872.2651	0.004148
872.5040	0.004802
872.7429	0.004654
872.9818	0.002439
873.2207	0.004886
873.4596	0.004274
873.6985	0.004338
873.9374	0.003810
874.1763	0.004654
874.4153	0.005139
874.6542	0.005181
874.8932	0.004549
875.1321	0.005034
875.3711	0.005540
875.6101	0.005519
875.8491	0.005940
876.0880	0.004591
876.3270	0.003473
876.5661	0.003979
876.8051	0.004338
877.0441	0.004506
877.2831	0.004148
877.5222	0.004190
877.7612	0.003410
878.0003	0.005709
878.2393	0.005139
878.4784	0.005223
878.7175	0.006658
878.9566	0.005519
879.1957	0.007290
879.4348	0.004823
879.6739	0.006004
879.9130	0.005877
880.1521	0.005181
880.3913	0.006257
880.6304	0.006594
880.8696	0.006531
881.1087	0.007143
881.3479	0.007016
881.5871	0.006763
881.8262	0.005266
882.0654	0.006299
882.3046	0.004654
882.5438	0.005097
882.7831	0.005392
883.0223	0.003515
883.2615	0.005687
883.5007	0.006573
883.7400	0.005266
883.9792	0.004464
884.2185	0.005160
884.4578	0.005013
884.6971	0.004612
884.9363	0.005287
885.1756	0.005139
885.4149	0.004970
885.6542	0.005582
885.8936	0.006868
886.1329	0.006215
886.3722	0.006362
886.6116	0.006447
886.8509	0.005519
887.0903	0.004085
887.3296	0.004211
887.5690	0.004696
887.8084	0.005645
888.0478	0.003937
888.2872	0.004949
888.5266	0.005118
888.7660	0.003979
889.0054	0.002903
889.2448	0.004612
889.4843	0.005940
889.7237	0.006468
889.9632	0.003599
890.2026	0.004127
890.4421	0.004042
890.6816	0.004633
890.9211	0.005202
891.1606	0.002840
891.4001	0.002650
891.6396	0.003431
891.8791	0.005223
892.1186	0.004127
892.3581	0.003810
892.5977	0.004274
892.8372	0.003726
893.0768	0.004211
893.3163	0.003789
893.5559	0.003346
893.7955	0.003452
894.0351	0.005139
894.2747	0.004422
894.5143	0.004506
894.7539	0.004106
894.9935	0.004127
895.2331	0.003663
895.4727	0.003072
895.7124	0.004928
895.9520	0.004443
896.1917	0.004527
896.4314	0.004190
896.6710	0.003536
896.9107	0.004928
897.1504	0.005329
897.3901	0.004317
897.6298	0.004063
897.8695	0.005603
898.1092	0.004169
898.3489	0.004127
898.5887	0.004401
898.8284	0.005202
899.0682	0.004211
899.3079	0.002946
899.5477	0.003663
899.7875	0.004591
900.0272	0.003389
900.2670	0.004464
900.5068	0.003768
900.7466	0.003958
900.9864	0.002967
901.2263	0.003367
901.4661	0.002735
901.7059	0.003789
901.9458	0.005561
902.1856	0.004928
902.4255	0.003431
902.6654	0.003684
902.9052	0.004506
903.1451	0.003705
903.3850	0.002461
903.6249	0.003578
903.8648	0.002840
904.1047	0.004781
904.3446	0.003810
904.5846	0.003937
904.8245	0.003431
905.0644	0.003768
905.3044	0.004359
905.5444	0.004759
905.7843	0.003789
906.0243	0.004190
906.2643	0.004781
906.5043	0.003515
906.7443	0.003346
906.9843	0.004338
907.2243	0.002566
907.4643	0.003030
907.7043	0.005223
907.9444	0.003325
908.1844	0.002439
908.4245	0.004317
908.6645	0.003937
908.9046	0.001870
909.1447	0.003157
909.3847	0.004106
909.6248	0.003557
909.8649	0.003642
910.1050	0.003705
910.3452	0.002861
910.5853	0.003178
910.8254	0.003789
911.0655	0.003157
911.3057	0.004506
911.5458	0.000900
911.7860	0.001659
912.0262	0.002165
912.2663	0.003431
912.5065	0.003853
912.7467	0.002461
912.9869	0.001511
913.2271	0.003199
913.4673	0.002102
913.7075	0.003621
913.9478	0.002861
914.1880	0.002735
914.4283	0.002229
914.6685	0.001722
914.9088	0.002144
915.1490	0.003346
915.3893	0.002503
915.6296	0.001870
915.8699	0.004042
916.1102	0.002271
916.3505	0.001912
916.5908	0.002123
916.8311	0.004106
917.0714	0.002903
917.3118	0.003726
917.5521	0.003557
917.7925	0.004464
918.0328	0.004127
918.2732	0.002123
918.5136	0.004549
918.7539	0.003389
918.9943	0.004633
919.2347	0.002144
919.4751	0.003051
919.7155	0.003874
919.9560	0.003515
920.1964	0.002271
920.4368	0.004169
920.6773	0.003389
920.9177	0.003578
921.1582	0.002671
921.3986	0.003916
921.6391	0.002250
921.8796	0.003325
922.1201	0.004253
922.3606	0.002102
922.6011	0.002903
922.8416	0.004169
923.0821	0.003114
923.3226	0.002313
923.5631	0.002060
923.8037	0.001765
924.0442	0.002144
924.2848	0.001638
924.5254	0.002018
924.7659	0.001997
925.0065	0.001490
925.2471	0.002946
925.4877	0.001997
925.7283	0.002693
925.9689	0.001385
926.2095	0.001997
926.4501	0.002144
926.6908	0.002313
926.9314	0.002439
927.1720	0.002545
927.4127	0.003367
927.6533	0.003389
927.8940	0.002313
928.1347	0.002334
928.3754	0.001554
928.6161	0.002566
928.8568	0.001638
929.0975	0.002081
929.3382	0.001680
929.5789	0.001680
929.8196	0.001554
930.0604	0.001912
930.3011	0.002207
930.5419	0.001490
930.7826	0.002608
931.0234	0.003262
931.2642	0.001364
931.5049	0.003178
931.7457	0.001743
931.9865	0.002587
932.2273	0.002102
932.4681	0.001469
932.7089	0.000879
932.9498	0.001343
933.1906	0.002735
933.4314	0.001807
933.6723	0.002650
933.9131	0.002777
934.1540	0.000330
934.3949	0.003135
934.6358	0.002587
934.8766	0.002967
935.1175	0.001406
935.3584	0.001786
935.5993	0.000077
935.8403	0.002355
936.0812	-0.000302
936.3221	0.001596
936.5630	0.001954
936.8040	0.001132
937.0449	0.001575
937.2859	0.001701
937.5269	0.001153
937.7678	0.002482
938.0088	0.001069
938.2498	0.002207
938.4908	0.001849
938.7318	0.002039
938.9728	0.000731
939.2138	0.000457
939.4549	0.001174
939.6959	0.001975
939.9369	0.000141
940.1780	0.002608
940.4190	0.001343
940.6601	0.002397
940.9012	0.001153
941.1422	0.002102
941.3833	0.002482
941.6244	0.000541
941.8655	-0.000218
942.1066	0.001385
942.3477	0.002482
942.5889	0.000647
942.8300	0.001849
943.0711	0.000309
943.3123	0.000562
943.5534	0.001975
943.7946	0.000436
944.0357	0.001849
944.2769	0.001701
944.5181	-0.000302
944.7593	0.001216
945.0005	0.000014
945.2417	0.002587
945.4829	0.000478
945.7241	0.001132
945.9653	0.001554
946.2066	0.001701
946.4478	0.000352
946.6891	0.000773
946.9303	0.000710
947.1716	0.000246
947.4128	0.001469
947.6541	0.000752
947.8954	0.000752
948.1367	0.002376
948.3780	-0.000598
948.6193	0.000478
948.8606	0.001554
949.1019	0.001722
949.3433	0.000541
949.5846	0.001427
949.8259	-0.000049
950.0673	0.000963
950.3086	-0.000830
950.5500	0.001617
950.7914	0.000415
951.0327	0.001743
951.2741	0.001301
951.5155	0.001427
951.7569	0.000225
951.9983	0.001638
952.2398	0.000984
952.4812	0.001554
952.7226	0.001765
952.9640	0.001195
953.2055	0.002081
953.4469	0.001322
953.6884	0.002418
953.9299	0.001174
954.1713	0.002207
954.4128	0.002587
954.6543	0.002271
954.8958	0.000267
955.1373	0.001322
955.3788	0.001638
955.6203	0.001111
955.8618	-0.000028
956.1034	0.001132
956.3449	0.001047
956.5865	0.000352
956.8280	0.001322
957.0696	0.000858
957.3111	0.001047
957.5527	0.001364
957.7943	0.000309
958.0359	-0.000070
958.2775	0.000373
958.5191	0.001279
958.7607	0.000647
959.0023	0.000204
959.2439	0.000794
959.4856	0.000731
959.7272	0.001659
959.9688	0.001174
960.2105	0.001765
960.4522	0.000647
960.6938	0.002439
960.9355	0.000858
961.1772	0.001828
961.4189	-0.000028
961.6606	0.001005
961.9023	0.001828
962.1440	0.001997
962.3857	-0.000007
962.6274	0.001216
962.8692	-0.000134
963.1109	0.002482
963.3527	0.001153
963.5944	0.000626
963.8362	0.000141
964.0779	0.000562
964.3197	0.000415
964.5615	0.001343
964.8033	0.000141
965.0451	0.000626
965.2869	0.001132
965.5287	0.000162
965.7705	0.000330
966.0123	0.001680
966.2542	0.000773
966.4960	0.002482
966.7379	0.000710
966.9797	0.000584
967.2216	0.000352
967.4634	0.000900
967.7053	0.000731
967.9472	0.002925
968.1891	-0.000049
968.4310	0.000394
968.6729	0.000921
968.9148	0.000584
969.1567	0.001533
969.3987	0.001807
969.6406	0.001132
969.8825	0.001722
970.1245	-0.000344
970.3664	0.000288
970.6084	0.000626
970.8504	0.001469
971.0923	-0.000239
971.3343	0.001659
971.5763	-0.000682
971.8183	0.001975
972.0603	0.000077
972.3023	0.000014
972.5443	0.000246
972.7864	0.001026
973.0284	0.001680
973.2704	0.000668
973.5125	-0.000302
973.7545	0.000773
973.9966	0.001111
974.2387	0.000921
974.4807	0.000120
974.7228	-0.000070
974.9649	0.000520
975.2070	0.000267
975.4491	0.000141
975.6912	0.001849
975.9333	0.000246
976.1755	-0.000176
976.4176	0.000267
976.6597	0.001237
976.9019	0.001047
977.1440	-0.000387
977.3862	-0.000176
977.6283	0.001490
977.8705	0.001638
978.1127	0.000984
978.3549	0.001743
978.5971	0.000731
978.8393	0.000288
979.0815	0.001132
979.3237	0.000562
979.5659	0.001659
979.8082	0.001638
980.0504	0.002060
980.2926	0.001511
980.5349	0.000794
980.7771	0.000773
981.0194	0.000162
981.2617	0.001279
981.5040	0.000014
981.7462	0.000710
981.9885	0.000626
982.2308	-0.000724
982.4731	-0.000112
982.7155	0.000183
982.9578	0.001933
983.2001	-0.000112
983.4424	-0.000323
983.6848	0.000267
983.9271	0.000330
984.1695	0.000077
984.4118	0.000942
984.6542	0.000647
984.8966	-0.000492
985.1390	0.000267
985.3814	0.001026
985.6238	-0.000893
985.8662	0.000900
986.1086	0.001026
986.3510	0.000541
986.5934	-0.000281
986.8358	0.000879
987.0783	-0.000070
987.3207	-0.000450
987.5632	0.001554
987.8056	0.000689
988.0481	0.000056
988.2906	0.002186
988.5331	0.000288
988.7756	0.001575
989.0180	0.000162
989.2605	-0.000049
989.5031	0.000478
989.7456	-0.000281
989.9881	-0.000260
990.2306	0.000626
990.4732	0.000056
990.7157	-0.000091
990.9582	0.000077
991.2008	0.001047
991.4434	0.000794
991.6859	0.000478
991.9285	-0.000134
992.1711	0.002292
992.4137	0.000267
992.6563	0.001005
992.8989	0.000647
993.1415	0.000837
993.3841	0.000647
993.6267	0.000562
993.8694	-0.000197
994.1120	0.000014
994.3547	0.000436
994.5973	0.000035
994.8400	0.000014
995.0826	0.000162
995.3253	0.001385
995.5680	0.000816
995.8107	0.000098
996.0534	0.001216
996.2961	0.001026
996.5388	0.000056
996.7815	0.001005
997.0242	0.000457
997.2670	-0.000176
997.5097	-0.000408
997.7524	-0.000007
997.9952	0.000963
998.2379	-0.000302
998.4807	0.001132
998.7235	-0.000281
998.9662	0.000309
999.2090	-0.000134
999.4518	-0.000218
999.6946	0.001385
999.9374	-0.001294
1000.1802	0.001490
1000.4230	0.000668
1000.6659	0.001132
1000.9087	0.001575
1001.1515	0.000394
1001.3944	0.001005
1001.6372	0.000626
1001.8801	0.001596
1002.1230	0.000879
1002.3658	0.001659
1002.6087	-0.000197
1002.8516	-0.001019
1003.0945	0.000752
1003.3374	0.000077
1003.5803	0.002798
1003.8232	0.000457
1004.0661	-0.000134
1004.3091	-0.001673
1004.5520	0.001237
1004.7949	-0.000344
1005.0379	0.000879
1005.2808	0.000626
1005.5238	0.001132
1005.7667	0.000541
1006.0097	0.000900
1006.2527	0.001047
1006.4957	-0.000239
1006.7387	-0.000260
1006.9817	0.001132
1007.2247	0.000794
1007.4677	0.000562
1007.7107	0.000584
1007.9538	0.001765
1008.1968	0.000436
1008.4398	0.001090
1008.6829	0.000541
1008.9259	0.000457
1009.1690	0.001069
1009.4121	0.001322
1009.6551	0.000141
1009.8982	0.000921
1010.1413	0.000710
1010.3844	0.001891
1010.6275	-0.001040
1010.8706	0.002714
1011.1137	-0.000323
1011.3568	0.000373
1011.6000	-0.000366
1011.8431	0.000647
1012.0863	0.000626
1012.3294	0.000077
1012.5726	-0.000598
1012.8157	-0.000576
1013.0589	0.000330
1013.3021	0.000077
1013.5452	-0.000049
1013.7884	0.000668
1014.0316	0.000225
1014.2748	0.001090
1014.5180	-0.000492
1014.7613	0.000204
1015.0045	0.000794
1015.2477	0.001575
1015.4909	0.000246
1015.7342	-0.000260
1015.9774	0.000816
1016.2207	0.001174
1016.4640	-0.001188
1016.7072	0.000647
1016.9505	-0.000682
1017.1938	0.001195
1017.4371	-0.001884
1017.6804	0.000288
1017.9237	0.001237
1018.1670	0.000014
1018.4103	0.001575
1018.6536	0.000963
1018.8969	-0.000239
1019.1403	0.000942
1019.3836	0.000816
1019.6270	-0.000408
1019.8703	0.000014
1020.1137	0.001596
1020.3571	-0.001062
1020.6004	-0.000260
1020.8438	-0.000028
1021.0872	0.000035
1021.3306	0.000731
1021.5740	0.001596
1021.8174	-0.000302
1022.0608	0.002039
1022.3042	-0.000239
1022.5477	0.000457
1022.7911	0.000267
1023.0345	-0.000956
