# Wavelength (nm)	Intensity (a.u.)
197.7802	0.001749
197.9842	-0.000487
198.1882	-0.000297
198.3922	0.000040
198.5963	0.000399
198.8003	0.000167
199.0044	-0.000149
199.2085	-0.000360
199.4126	0.001179
199.6168	0.000673
199.8209	0.000694
200.0251	0.000652
200.2292	0.000568
200.4334	0.001686
200.6376	0.000526
200.8418	-0.001014
201.0461	0.001475
201.2503	-0.000360
201.4546	0.000990
201.6589	0.000610
201.8631	0.001243
202.0674	0.000294
202.2718	0.000547
202.4761	-0.000318
202.6805	0.000589
202.8848	0.000736
203.0892	-0.000508
203.2936	-0.000677
203.4980	-0.000023
203.7024	0.000483
203.9069	0.000251
204.1113	0.000526
204.3158	0.000420
204.5203	0.001032
204.7248	0.001158
204.9293	0.000526
205.1338	0.001222
205.3384	0.000399
205.5430	0.001812
205.7475	0.000652
205.9521	-0.000381
206.1567	0.000272
206.3614	0.000990
206.5660	0.000800
206.7706	0.000462
206.9753	-0.000993
207.1800	-0.000107
207.3847	0.001074
207.5894	0.000251
207.7941	0.000462
207.9989	0.000547
208.2036	0.000209
208.4084	0.001032
208.6132	-0.000065
208.8180	0.000926
209.0228	0.000357
209.2276	-0.000719
209.4325	0.000568
209.6373	-0.000086
209.8422	-0.000297
210.0471	-0.000360
210.2520	-0.000550
210.4569	0.000673
210.6618	0.000715
210.8668	0.001179
211.0718	-0.000255
211.2767	0.000652
211.4817	0.001095
211.6867	-0.000339
211.8918	-0.000044
212.0968	0.000462
212.3018	-0.000128
212.5069	0.000694
212.7120	0.000251
212.9171	-0.000255
213.1222	0.000673
213.3273	0.000504
213.5325	-0.000403
213.7376	0.002276
213.9428	-0.000719
214.1480	-0.000508
214.3532	-0.000360
214.5584	0.000062
214.7636	0.000294
214.9689	0.001243
215.1741	-0.000170
215.3794	-0.000824
215.5847	-0.001352
215.7900	-0.000824
215.9953	0.000758
216.2007	0.000736
216.4060	0.000610
216.6114	0.001116
216.8168	0.000568
217.0222	-0.000065
217.2276	0.001833
217.4330	0.000167
217.6384	0.000504
217.8439	0.000821
218.0494	0.000610
218.2548	0.001559
218.4603	0.000947
218.6659	0.000357
218.8714	0.000652
219.0769	0.000083
219.2825	0.000209
219.4881	0.002002
219.6936	0.001011
219.8992	0.000821
220.1049	-0.000213
220.3105	0.000083
220.5161	-0.001288
220.7218	0.001285
220.9275	-0.000445
221.1332	0.000589
221.3389	0.000673
221.5446	0.001243
221.7503	0.000209
221.9561	0.000104
222.1618	-0.000086
222.3676	0.000209
222.5734	-0.000360
222.7792	0.000863
222.9850	0.000863
223.1909	0.001496
223.3967	-0.000719
223.6026	-0.000445
223.8085	0.000673
224.0144	0.001918
224.2203	0.000188
224.4262	0.001896
224.6322	0.000947
224.8381	0.001222
225.0441	-0.000360
225.2501	-0.000360
225.4561	0.001833
225.6621	0.001116
225.8681	-0.000360
226.0742	0.000294
226.2802	-0.000909
226.4863	0.001411
226.6924	-0.000107
226.8985	-0.000065
227.1046	0.000589
227.3107	0.000504
227.5169	0.000631
227.7230	0.001918
227.9292	-0.000128
228.1354	0.000083
228.3416	-0.000550
228.5478	0.001285
228.7541	-0.000698
228.9603	0.000483
229.1666	-0.000487
229.3729	0.000420
229.5791	0.000272
229.7855	0.001833
229.9918	-0.000128
230.1981	0.001432
230.4045	0.000715
230.6108	0.000420
230.8172	-0.001077
231.0236	-0.000424
231.2300	-0.000234
231.4364	-0.000044
231.6429	-0.000023
231.8493	0.000842
232.0558	-0.000002
232.2623	0.000652
232.4688	-0.000698
232.6753	-0.001204
232.8818	0.000104
233.0884	0.000842
233.2949	0.000504
233.5015	0.000610
233.7081	0.000040
233.9147	-0.001331
234.1213	-0.000128
234.3279	0.000230
234.5346	0.000715
234.7413	0.001664
234.9479	-0.000107
235.1546	0.000526
235.3613	-0.001099
235.5680	0.001411
235.7748	-0.000107
235.9815	0.000800
236.1883	0.000884
236.3951	-0.000677
236.6018	0.000842
236.8087	0.000146
237.0155	0.000062
237.2223	0.000526
237.4292	0.000083
237.6360	0.001411
237.8429	0.000146
238.0498	-0.000213
238.2567	-0.000466
238.4636	0.000336
238.6706	0.000842
238.8775	0.000504
239.0845	0.000188
239.2915	0.002297
239.4985	0.000610
239.7055	0.001074
239.9125	0.000947
240.1195	0.001643
240.3266	0.000568
240.5337	0.000863
240.7407	0.000483
240.9478	-0.000613
241.1549	0.000399
241.3621	0.001327
241.5692	0.000272
241.7764	0.000568
241.9835	0.000378
242.1907	0.000610
242.3979	-0.000065
242.6051	0.001327
242.8124	0.000821
243.0196	0.000610
243.2269	0.000315
243.4341	0.000167
243.6414	-0.000297
243.8487	0.000399
244.0560	0.001095
244.2634	0.002129
244.4707	-0.000234
244.6781	0.002234
244.8854	0.000336
245.0928	0.000125
245.3002	-0.000656
245.5076	0.000420
245.7151	-0.000613
245.9225	0.000399
246.1300	0.000315
246.3375	-0.000255
246.5449	0.000272
246.7524	-0.000086
246.9600	-0.000487
247.1675	0.000863
247.3750	-0.000297
247.5826	-0.000424
247.7902	0.000040
247.9978	0.001327
248.2054	-0.000002
248.4130	0.000462
248.6206	-0.000065
248.8283	0.001854
249.0359	0.000125
249.2436	0.000884
249.4513	0.000209
249.6590	0.000652
249.8667	-0.000255
250.0745	0.001411
250.2822	0.001707
250.4900	0.001475
250.6978	0.001770
250.9056	0.001243
251.1134	-0.000065
251.3212	0.000884
251.5290	0.000294
251.7369	0.000842
251.9447	-0.000213
252.1526	0.000884
252.3605	-0.000255
252.5684	0.000357
252.7763	-0.000508
252.9843	0.000610
253.1922	-0.000508
253.4002	0.001960
253.6082	0.000610
253.8162	0.000800
254.0242	0.000842
254.2322	0.000800
254.4402	0.000926
254.6483	0.000758
254.8564	-0.000803
255.0644	0.000652
255.2725	0.000104
255.4806	0.000863
255.6888	0.001369
255.8969	0.001179
256.1051	0.000251
256.3132	0.000462
256.5214	0.001200
256.7296	0.001601
256.9378	0.000652
257.1460	0.000926
257.3543	0.000926
257.5625	0.001095
257.7708	-0.000360
257.9791	0.000715
258.1874	-0.000360
258.3957	-0.000403
258.6040	0.000019
258.8124	0.000315
259.0207	0.001074
259.2291	0.000884
259.4375	0.000019
259.6459	0.000736
259.8543	0.000947
260.0627	0.000715
260.2711	0.001137
260.4796	0.000821
260.6881	0.000167
260.8965	0.000104
261.1050	0.001306
261.3135	-0.000276
261.5221	-0.000255
261.7306	-0.000339
261.9392	-0.001204
262.1477	0.000504
262.3563	0.000821
262.5649	0.001200
262.7735	-0.000930
262.9822	0.000272
263.1908	-0.002259
263.3995	-0.000276
263.6081	-0.000381
263.8168	0.001896
264.0255	0.000272
264.2342	0.000800
264.4429	-0.000318
264.6517	0.001285
264.8604	0.001496
265.0692	-0.000170
265.2780	-0.000888
265.4868	0.001264
265.6956	0.001285
265.9044	0.000315
266.1133	-0.000613
266.3221	0.000800
266.5310	0.000610
266.7399	0.001369
266.9488	-0.000635
267.1577	0.000610
267.3666	0.000673
267.5755	0.000146
267.7845	0.000294
267.9935	-0.000002
268.2024	0.000926
268.4114	0.000294
268.6205	-0.000276
268.8295	-0.000445
269.0385	0.000315
269.2476	0.000104
269.4566	0.001390
269.6657	0.001327
269.8748	0.001306
270.0839	0.000821
270.2931	0.000336
270.5022	0.001770
270.7114	0.000315
270.9205	0.000694
271.1297	0.002339
271.3389	0.000357
271.5481	-0.000740
271.7573	-0.000170
271.9666	-0.000867
272.1758	0.001411
272.3851	0.000715
272.5944	0.000758
272.8037	0.001158
273.0130	0.001749
273.2223	0.000062
273.4316	0.001918
273.6410	0.001074
273.8504	0.001243
274.0597	0.000842
274.2691	0.000568
274.4785	0.001770
274.6880	0.001032
274.8974	0.000294
275.1069	0.000547
275.3163	-0.000128
275.5258	0.001053
275.7353	0.000209
275.9448	0.000905
276.1543	0.000125
276.3639	0.001432
276.5734	-0.001288
276.7830	0.001032
276.9926	0.000378
277.2022	0.002318
277.4118	-0.000023
277.6214	0.000336
277.8310	0.000062
278.0407	0.001369
278.2503	-0.000192
278.4600	0.000146
278.6697	-0.000381
278.8794	0.000779
279.0891	0.000104
279.2989	0.001749
279.5086	-0.000719
279.7184	0.001095
279.9281	-0.000192
280.1379	0.000504
280.3477	-0.000149
280.5576	0.002297
280.7674	0.000884
280.9772	-0.000635
281.1871	-0.000255
281.3970	-0.000909
281.6069	0.000526
281.8168	0.000694
282.0267	-0.000677
282.2366	0.000357
282.4466	-0.000170
282.6565	0.001348
282.8665	-0.001288
283.0765	0.000863
283.2865	0.000631
283.4965	0.000800
283.7065	0.000631
283.9166	0.000758
284.1266	-0.000803
284.3367	0.001306
284.5468	0.001032
284.7569	0.001243
284.9670	-0.000972
285.1771	0.001158
285.3873	-0.000339
285.5974	0.001116
285.8076	0.000146
286.0178	-0.000403
286.2280	0.000526
286.4382	0.001981
286.6484	0.000167
286.8587	0.001011
287.0689	-0.000487
287.2792	0.000673
287.4895	0.001390
287.6998	0.000083
287.9101	-0.001267
288.1204	0.000863
288.3308	-0.000107
288.5411	0.000019
288.7515	0.000842
288.9619	-0.000445
289.1723	0.000758
289.3827	0.000905
289.5931	-0.000002
289.8035	0.000821
290.0140	-0.000508
290.2245	0.000104
290.4349	-0.000888
290.6454	0.001390
290.8559	-0.000002
291.0665	0.000357
291.2770	-0.001499
291.4875	0.001348
291.6981	-0.000381
291.9087	0.000504
292.1193	-0.000170
292.3299	0.000315
292.5405	0.000504
292.7511	0.000589
292.9618	0.000526
293.1724	0.000652
293.3831	0.001222
293.5938	0.000441
293.8045	-0.000909
294.0152	0.000863
294.2260	0.000019
294.4367	0.000272
294.6475	0.000547
294.8582	0.001032
295.0690	-0.000086
295.2798	-0.000297
295.4906	0.000420
295.7015	0.000568
295.9123	-0.001162
296.1232	0.001306
296.3340	0.000125
296.5449	0.000884
296.7558	0.000483
296.9667	0.001770
297.1777	-0.000065
297.3886	0.000526
297.5995	0.000188
297.8105	0.002487
298.0215	-0.000550
298.2325	0.000357
298.4435	-0.000656
298.6545	0.002234
298.8656	0.000083
299.0766	0.001074
299.2877	0.000758
299.4988	0.000905
299.7099	0.001348
299.9210	-0.000888
300.1321	0.000779
300.3432	0.000800
300.5544	0.000336
300.7655	0.001074
300.9767	0.000188
301.1879	0.000968
301.3991	0.000146
301.6103	0.000146
301.8215	-0.000023
302.0328	0.000968
302.2441	0.001200
302.4553	0.000230
302.6666	-0.000656
302.8779	-0.000719
303.0892	0.000315
303.3006	0.001222
303.5119	0.001053
303.7233	0.000631
303.9346	0.000209
304.1460	0.001074
304.3574	0.000800
304.5688	0.000209
304.7803	0.000483
304.9917	0.000019
305.2031	-0.000424
305.4146	-0.000972
305.6261	0.000188
305.8376	0.000589
306.0491	0.001200
306.2606	0.001664
306.4722	-0.001120
306.6837	-0.000170
306.8953	0.000146
307.1069	0.000399
307.3184	-0.000424
307.5301	0.001580
307.7417	0.000315
307.9533	0.000947
308.1650	-0.001605
308.3766	0.001622
308.5883	-0.000149
308.8000	0.000926
309.0117	-0.000381
309.2234	0.001285
309.4351	-0.000065
309.6469	0.000062
309.8586	-0.001267
310.0704	0.000568
310.2822	0.000251
310.4940	0.001053
310.7058	-0.000656
310.9176	0.000652
311.1295	-0.000677
311.3413	0.000947
311.5532	0.001791
311.7651	0.000715
311.9770	0.000399
312.1889	0.001200
312.4008	0.000568
312.6127	0.000399
312.8247	-0.001014
313.0366	-0.000445
313.2486	0.000040
313.4606	0.001222
313.6726	0.000019
313.8846	-0.000613
314.0967	0.000357
314.3087	0.000610
314.5208	0.000420
314.7328	0.001137
314.9449	0.000483
315.1570	-0.000782
315.3692	0.000420
315.5813	0.000378
315.7934	0.000504
316.0056	0.000758
316.2177	-0.000297
316.4299	0.001686
316.6421	0.000399
316.8543	0.001264
317.0666	0.001833
317.2788	0.000272
317.4911	-0.000318
317.7033	0.001158
317.9156	0.000526
318.1279	0.001496
318.3402	-0.000149
318.5525	-0.001056
318.7649	0.000462
318.9772	-0.000149
319.1896	0.001327
319.4019	-0.001246
319.6143	-0.000023
319.8267	0.001622
320.0392	-0.000782
320.2516	0.000040
320.4640	0.000209
320.6765	0.000188
320.8890	-0.000339
321.1014	0.001538
321.3139	0.001053
321.5265	0.000019
321.7390	0.000357
321.9515	0.000547
322.1641	0.000547
322.3766	0.000673
322.5892	-0.000656
322.8018	-0.000170
323.0144	0.001517
323.2270	0.000272
323.4397	-0.001225
323.6523	0.001369
323.8650	0.001137
324.0777	-0.000529
324.2904	-0.001225
324.5031	0.000547
324.7158	-0.000192
324.9285	-0.000318
325.1412	0.000315
325.3540	-0.000487
325.5668	0.000568
325.7796	0.001074
325.9924	0.000610
326.2052	0.000378
326.4180	-0.000508
326.6308	0.000568
326.8437	-0.000044
327.0566	-0.001099
327.2694	-0.000318
327.4823	0.000610
327.6952	-0.000086
327.9082	0.000905
328.1211	-0.000044
328.3340	0.000652
328.5470	0.000884
328.7600	0.001074
328.9730	-0.000571
329.1860	0.000504
329.3990	-0.000149
329.6120	0.001222
329.8251	0.000083
330.0381	0.000378
330.2512	-0.000065
330.4643	-0.000803
330.6774	0.001875
330.8905	0.000673
331.1036	-0.000318
331.3167	0.000420
331.5299	-0.000128
331.7431	0.000779
331.9562	-0.000445
332.1694	0.001580
332.3826	-0.000719
332.5959	0.000272
332.8091	0.000758
333.0223	0.000884
333.2356	0.000062
333.4489	0.000104
333.6622	-0.000065
333.8755	0.000926
334.0888	-0.000635
334.3021	0.000758
334.5154	-0.000107
334.7288	0.002234
334.9422	-0.000065
335.1555	0.001200
335.3689	-0.000255
335.5823	-0.001014
335.7958	-0.000888
336.0092	0.001601
336.2227	-0.000318
336.4361	0.000357
336.6496	-0.000107
336.8631	0.001875
337.0766	0.000251
337.2901	0.001854
337.5036	-0.000276
337.7172	0.000294
337.9307	0.000251
338.1443	-0.000613
338.3579	-0.000403
338.5715	0.001222
338.7851	-0.000719
338.9987	0.000715
339.2124	-0.000677
339.4260	0.000568
339.6397	0.000758
339.8533	-0.000445
340.0670	-0.000487
340.2807	-0.000445
340.4945	-0.000888
340.7082	0.001454
340.9219	0.000568
341.1357	0.000652
341.3495	-0.001267
341.5633	0.000736
341.7771	-0.000149
341.9909	0.002403
342.2047	-0.000276
342.4185	0.001032
342.6324	0.000083
342.8463	0.001222
343.0601	-0.000360
343.2740	0.000272
343.4879	0.001158
343.7019	0.001200
343.9158	0.000926
344.1297	0.001116
344.3437	0.000188
344.5577	0.001053
344.7717	-0.000002
344.9857	0.000378
345.1997	-0.000276
345.4137	-0.000192
345.6277	-0.000023
345.8418	0.002107
346.0559	0.001875
346.2699	0.001960
346.4840	0.000019
346.6981	-0.000149
346.9123	0.001770
347.1264	-0.000613
347.3406	0.000315
347.5547	0.000842
347.7689	0.000715
347.9831	0.000526
348.1973	-0.000909
348.4115	0.001306
348.6257	0.000294
348.8400	-0.000403
349.0542	0.000884
349.2685	0.000990
349.4828	0.001095
349.6971	-0.000318
349.9114	-0.000867
350.1257	-0.000592
350.3400	0.000652
350.5544	-0.000529
350.7687	0.000673
350.9831	0.001411
351.1975	0.000842
351.4119	0.001179
351.6263	-0.000740
351.8407	0.001812
352.0552	0.000589
352.2696	-0.000149
352.4841	-0.000213
352.6986	0.000125
352.9131	0.000526
353.1276	0.001032
353.3421	0.000526
353.5566	0.000294
353.7712	-0.000656
353.9858	0.000104
354.2003	-0.000466
354.4149	0.001095
354.6295	0.000336
354.8441	0.001095
355.0588	0.000336
355.2734	0.000062
355.4881	0.000779
355.7027	0.000884
355.9174	-0.000613
356.1321	0.000083
356.3468	0.002171
356.5615	0.000378
356.7763	-0.000508
356.9910	-0.000023
357.2058	0.000336
357.4206	0.001264
357.6353	0.000209
357.8501	0.001264
358.0650	0.000736
358.2798	0.001454
358.4946	0.000779
358.7095	0.001580
358.9243	0.000441
359.1392	-0.000740
359.3541	0.000779
359.5690	0.000926
359.7839	0.000251
359.9989	0.000863
360.2138	0.001095
360.4288	0.000968
360.6438	-0.000656
360.8587	-0.000403
361.0737	0.000758
361.2888	0.000462
361.5038	-0.002322
361.7188	0.000821
361.9339	0.000526
362.1489	0.001095
362.3640	0.000188
362.5791	0.000610
362.7942	0.001243
363.0093	0.000779
363.2245	0.000504
363.4396	0.001496
363.6548	-0.000339
363.8699	0.000568
364.0851	0.000336
364.3003	0.000905
364.5155	0.002234
364.7308	-0.000002
364.9460	-0.000867
365.1612	0.000399
365.3765	0.000251
365.5918	0.000821
365.8071	-0.000466
366.0224	0.000357
366.2377	0.000378
366.4530	0.000779
366.6684	-0.000044
366.8837	0.000568
367.0991	0.000568
367.3145	0.000167
367.5299	0.001243
367.7453	0.001496
367.9607	-0.000318
368.1761	0.000040
368.3916	0.001918
368.6070	-0.000234
368.8225	0.000884
369.0380	0.001011
369.2535	-0.000550
369.4690	0.000399
369.6845	0.000800
369.9001	0.000104
370.1156	-0.000234
370.3312	0.000104
370.5468	-0.000424
370.7624	0.000715
370.9780	0.000947
371.1936	0.001179
371.4092	-0.000002
371.6249	-0.000023
371.8405	0.002002
372.0562	0.000863
372.2719	0.000040
372.4876	0.000315
372.7033	0.000631
372.9190	0.000040
373.1348	-0.000023
373.3505	0.000378
373.5663	0.000610
373.7820	0.000821
373.9978	0.000104
374.2136	0.000673
374.4294	0.000125
374.6453	0.000315
374.8611	-0.000318
375.0770	0.001285
375.2928	0.001496
375.5087	-0.000972
375.7246	0.000947
375.9405	0.000441
376.1564	0.001011
376.3724	-0.000213
376.5883	0.000083
376.8043	0.000990
377.0203	0.000294
377.2362	-0.001162
377.4522	-0.000930
377.6682	0.001179
377.8843	0.001812
378.1003	0.001643
378.3164	0.000779
378.5324	0.001074
378.7485	0.000547
378.9646	0.001243
379.1807	0.000758
379.3968	0.000884
379.6129	0.000146
379.8291	0.000019
380.0452	0.000842
380.2614	0.001053
380.4776	0.000968
380.6938	0.000062
380.9100	0.000230
381.1262	-0.000824
381.3424	0.001496
381.5587	0.001243
381.7749	-0.000170
381.9912	0.000905
382.2075	-0.000740
382.4238	0.001981
382.6401	0.000715
382.8564	0.000146
383.0728	0.000019
383.2891	0.000779
383.5055	0.000104
383.7219	-0.000023
383.9382	0.000947
384.1546	0.000610
384.3711	-0.000550
384.5875	0.001011
384.8039	-0.000170
385.0204	0.000483
385.2368	0.000736
385.4533	0.001306
385.6698	-0.000023
385.8863	0.000694
386.1028	0.001095
386.3194	0.002213
386.5359	0.000673
386.7525	0.002508
386.9690	0.001791
387.1856	0.000526
387.4022	0.001243
387.6188	0.002719
387.8355	0.001074
388.0521	0.001981
388.2687	0.002698
388.4854	0.003035
388.7021	0.002107
388.9188	0.001475
389.1355	0.001074
389.3522	0.003521
389.5689	0.002002
389.7856	0.002192
390.0024	0.001390
390.2192	0.002656
390.4359	0.002550
390.6527	0.002318
390.8695	0.001643
391.0863	0.004280
391.3032	0.002382
391.5200	0.003120
391.7369	0.005039
391.9537	0.005545
392.1706	0.003900
392.3875	0.004385
392.6044	0.005060
392.8213	0.004807
393.0383	0.005925
393.2552	0.005566
393.4722	0.007085
393.6891	0.005313
393.9061	0.004997
394.1231	0.006410
394.3401	0.006073
394.5572	0.006853
394.7742	0.005377
394.9912	0.007781
395.2083	0.007992
395.4254	0.007148
395.6425	0.008013
395.8596	0.006305
396.0767	0.007233
396.2938	0.007612
396.5109	0.008119
396.7281	0.010017
396.9453	0.009426
397.1624	0.010312
397.3796	0.010945
397.5968	0.010270
397.8140	0.010059
398.0313	0.010671
398.2485	0.010164
398.4658	0.012168
398.6830	0.013328
398.9003	0.011704
399.1176	0.010882
399.3349	0.013012
399.5522	0.013961
399.7696	0.012442
399.9869	0.012906
400.2043	0.011282
400.4216	0.013159
400.6390	0.012569
400.8564	0.012210
401.0738	0.013075
401.2912	0.014805
401.5087	0.014425
401.7261	0.013961
401.9436	0.013729
402.1610	0.015269
402.3785	0.014805
402.5960	0.014847
402.8135	0.015269
403.0310	0.015416
403.2486	0.014467
403.4661	0.015395
403.6837	0.016091
403.9013	0.016007
404.1189	0.014720
404.3365	0.016218
404.5541	0.016766
404.7717	0.014847
404.9893	0.015458
405.2070	0.016914
405.4246	0.017694
405.6423	0.020310
405.8600	0.018939
406.0777	0.021322
406.2954	0.017631
406.5131	0.016176
406.7309	0.018643
406.9486	0.017399
407.1664	0.018095
407.3842	0.017694
407.6020	0.016619
407.8198	0.017104
408.0376	0.016977
408.2554	0.019128
408.4733	0.018580
408.6911	0.018812
408.9090	0.019782
409.1269	0.018770
409.3448	0.017736
409.5627	0.019761
409.7806	0.019677
409.9985	0.019487
410.2165	0.018517
410.4344	0.018327
410.6524	0.021322
410.8704	0.020014
411.0884	0.017272
411.3064	0.018032
411.5244	0.019529
411.7424	0.020415
411.9605	0.019677
412.1785	0.019403
412.3966	0.022081
412.6147	0.021575
412.8328	0.021385
413.0509	0.019846
413.2690	0.018812
413.4871	0.022777
413.7053	0.022187
413.9234	0.020837
414.1416	0.020078
414.3598	0.019128
414.5780	0.020373
414.7962	0.020816
415.0144	0.021849
415.2326	0.020078
415.4509	0.022735
415.6692	0.022039
415.8874	0.022419
416.1057	0.021786
416.3240	0.020795
416.5423	0.022250
416.7606	0.021153
416.9790	0.023980
417.1973	0.021132
417.4157	0.022250
417.6341	0.022208
417.8524	0.021491
418.0708	0.022060
418.2893	0.023726
418.5077	0.021638
418.7261	0.023115
418.9446	0.022672
419.1630	0.021786
419.3815	0.022503
419.6000	0.023157
419.8185	0.022904
420.0370	0.023853
420.2555	0.022355
420.4741	0.023178
420.6926	0.023220
420.9112	0.026384
421.1298	0.024823
421.3483	0.027249
421.5669	0.028367
421.7856	0.026721
422.0042	0.027164
422.2228	0.027059
422.4415	0.024739
422.6601	0.025055
422.8788	0.028451
423.0975	0.025920
423.3162	0.024528
423.5349	0.025772
423.7536	0.025287
423.9724	0.027713
424.1911	0.025836
424.4099	0.024422
424.6287	0.024486
424.8475	0.025140
425.0663	0.025140
425.2851	0.025878
425.5039	0.023326
425.7228	0.022967
425.9416	0.022250
426.1605	0.022334
426.3793	0.021617
426.5982	0.021702
426.8171	0.022187
427.0361	0.021617
427.2550	0.025119
427.4739	0.025224
427.6929	0.023600
427.9118	0.025730
428.1308	0.024612
428.3498	0.024380
428.5688	0.025287
428.7878	0.023073
429.0068	0.025287
429.2259	0.024697
429.4449	0.026279
429.6640	0.027228
429.8831	0.027186
430.1022	0.028704
430.3213	0.026848
430.5404	0.028514
430.7595	0.026785
430.9787	0.027903
431.1978	0.025667
431.4170	0.024338
431.6362	0.021174
431.8553	0.025372
432.0745	0.020120
432.2938	0.023473
432.5130	0.020310
432.7322	0.022166
432.9515	0.021913
433.1707	0.022693
433.3900	0.021765
433.6093	0.024127
433.8286	0.027270
434.0479	0.026721
434.2673	0.026553
434.4866	0.024338
434.7059	0.023220
434.9253	0.023769
435.1447	0.023452
435.3641	0.021997
435.5835	0.024465
435.8029	0.024190
436.0223	0.022250
436.2418	0.023769
436.4612	0.023052
436.6807	0.024697
436.9001	0.025161
437.1196	0.023009
437.3391	0.022419
437.5586	0.021723
437.7782	0.022651
437.9977	0.022693
438.2173	0.021913
438.4368	0.024106
438.6564	0.021153
438.8760	0.024190
439.0956	0.025962
439.3152	0.023199
439.5348	0.023262
439.7545	0.024401
439.9741	0.022946
440.1938	0.023811
440.4135	0.022187
440.6331	0.022693
440.8528	0.022693
441.0725	0.025456
441.2923	0.024760
441.5120	0.028788
441.7318	0.027797
441.9515	0.026321
442.1713	0.027228
442.3911	0.027544
442.6109	0.026532
442.8307	0.024275
443.0505	0.027059
443.2703	0.024275
443.4902	0.025329
443.7101	0.028493
443.9299	0.026700
444.1498	0.027523
444.3697	0.024823
444.5896	0.023326
444.8095	0.025772
445.0295	0.025055
445.2494	0.023726
445.4694	0.024444
445.6894	0.023094
445.9093	0.022735
446.1293	0.022756
446.3493	0.025182
446.5694	0.025477
446.7894	0.023705
447.0094	0.024106
447.2295	0.024127
447.4496	0.022630
447.6696	0.022503
447.8897	0.020837
448.1098	0.022102
448.3300	0.023009
448.5501	0.020985
448.7702	0.022440
448.9904	0.021681
449.2106	0.022714
449.4307	0.023368
449.6509	0.022102
449.8711	0.022988
450.0914	0.021575
450.3116	0.019824
450.5318	0.021891
450.7521	0.018475
450.9724	0.021322
451.1926	0.018643
451.4129	0.020584
451.6332	0.020415
451.8535	0.019255
452.0739	0.020668
452.2942	0.019023
452.5146	0.018960
452.7349	0.019508
452.9553	0.019930
453.1757	0.017272
453.3961	0.017167
453.6165	0.017631
453.8369	0.018369
454.0574	0.017504
454.2778	0.017104
454.4983	0.015058
454.7188	0.016576
454.9393	0.017926
455.1597	0.016956
455.3803	0.017209
455.6008	0.018896
455.8213	0.017462
456.0419	0.017631
456.2624	0.017315
456.4830	0.015880
456.7036	0.015754
456.9242	0.017357
457.1448	0.015205
457.3654	0.015901
457.5860	0.017610
457.8067	0.017673
458.0274	0.017525
458.2480	0.016597
458.4687	0.016471
458.6894	0.018664
458.9101	0.016344
459.1308	0.016239
459.3516	0.017779
459.5723	0.016155
459.7931	0.016344
460.0138	0.018454
460.2346	0.016133
460.4554	0.016576
460.6762	0.015965
460.8970	0.016429
461.1178	0.015269
461.3387	0.014509
461.5595	0.014214
461.7804	0.015058
462.0013	0.013729
462.2222	0.012168
462.4431	0.012991
462.6640	0.013223
462.8849	0.012063
463.1059	0.011303
463.3268	0.014404
463.5478	0.013518
463.7687	0.012759
463.9897	0.012506
464.2107	0.012759
464.4317	0.012801
464.6528	0.014573
464.8738	0.015100
465.0948	0.016387
465.3159	0.014383
465.5370	0.014931
465.7581	0.013919
465.9792	0.014762
466.2003	0.013391
466.4214	0.014805
466.6425	0.012105
466.8637	0.010818
467.0848	0.011388
467.3060	0.010143
467.5272	0.010038
467.7484	0.010481
467.9696	0.010333
468.1908	0.011915
468.4120	0.012063
468.6333	0.011831
468.8545	0.008667
469.0758	0.010207
469.2970	0.009827
469.5183	0.008013
469.7396	0.010565
469.9610	0.007739
470.1823	0.008013
470.4036	0.009026
470.6250	0.008477
470.8463	0.009215
471.0677	0.007317
471.2891	0.007444
471.5105	0.006621
471.7319	0.007992
471.9533	0.008013
472.1748	0.007591
472.3962	0.007760
472.6177	0.008351
472.8391	0.007528
473.0606	0.007950
473.2821	0.008393
473.5036	0.009004
473.7251	0.006895
473.9467	0.008119
474.1682	0.008393
474.3898	0.008414
474.6113	0.007254
474.8329	0.008414
475.0545	0.009679
475.2761	0.007380
475.4977	0.007823
475.7193	0.007992
475.9410	0.006705
476.1626	0.008287
476.3843	0.007908
476.6060	0.007233
476.8277	0.005820
477.0494	0.007486
477.2711	0.006326
477.4928	0.006262
477.7145	0.006811
477.9363	0.006347
478.1580	0.006663
478.3798	0.007739
478.6016	0.005756
478.8234	0.004828
479.0452	0.006516
479.2670	0.006790
479.4888	0.005313
479.7107	0.006832
479.9325	0.006790
480.1544	0.006874
480.3763	0.006220
480.5982	0.009068
480.8201	0.007380
481.0420	0.006663
481.2639	0.005988
481.4859	0.007169
481.7078	0.006326
481.9298	0.007486
482.1517	0.006305
482.3737	0.006305
482.5957	0.005208
482.8177	0.005630
483.0398	0.004723
483.2618	0.006621
483.4838	0.004955
483.7059	0.005714
483.9280	0.004301
484.1501	0.005102
484.3721	0.006600
484.5943	0.007106
484.8164	0.005440
485.0385	0.005039
485.2606	0.005651
485.4828	0.005672
485.7050	0.010987
485.9271	0.017040
486.1493	0.018918
486.3715	0.015332
486.5937	0.012379
486.8160	0.008667
487.0382	0.011135
487.2605	0.008161
487.4827	0.006452
487.7050	0.006368
487.9273	0.004217
488.1496	0.004449
488.3719	0.003774
488.5942	0.003710
488.8165	0.005081
489.0389	0.004280
489.2612	0.003394
489.4836	0.004596
489.7060	0.003457
489.9284	0.003352
490.1508	0.003689
490.3732	0.003563
490.5956	0.005187
490.8180	0.005039
491.0405	0.004533
491.2630	0.005229
491.4854	0.002972
491.7079	0.003373
491.9304	0.004575
492.1529	0.002888
492.3755	0.002909
492.5980	0.003099
492.8205	0.004132
493.0431	0.003753
493.2657	0.003267
493.4882	0.003563
493.7108	0.002740
493.9334	0.003267
494.1561	0.002445
494.3787	0.003120
494.6013	0.003014
494.8240	0.003289
495.0466	0.002297
495.2693	0.003963
495.4920	0.003689
495.7147	0.004238
495.9374	0.001664
496.1601	0.003225
496.3829	0.003942
496.6056	0.003858
496.8284	0.002297
497.0511	0.003120
497.2739	0.004364
497.4967	0.002487
497.7195	0.001791
497.9423	0.004006
498.1652	0.001728
498.3880	0.002487
498.6109	0.002846
498.8337	0.003014
499.0566	0.004006
499.2795	0.002698
499.5024	0.004069
499.7253	0.002550
499.9482	0.002930
500.1712	0.003837
500.3941	0.002023
500.6171	0.004470
500.8400	0.002424
501.0630	0.002993
501.2860	0.003246
501.5090	0.002782
501.7320	0.004195
501.9551	0.003394
502.1781	0.003605
502.4012	0.003120
502.6242	0.003394
502.8473	0.002635
503.0704	0.003120
503.2935	0.002002
503.5166	0.001559
503.7397	0.003668
503.9628	0.003521
504.1860	0.002677
504.4092	0.002107
504.6323	0.002044
504.8555	0.003352
505.0787	0.003057
505.3019	0.001496
505.5251	0.002761
505.7483	0.000947
505.9716	0.003499
506.1948	0.002529
506.4181	0.002192
506.6414	0.003436
506.8647	0.002424
507.0880	0.002740
507.3113	0.003099
507.5346	0.003331
507.7579	0.003035
507.9813	0.001496
508.2046	0.002782
508.4280	0.001939
508.6514	0.003162
508.8748	0.002382
509.0982	0.001264
509.3216	0.001939
509.5450	0.003035
509.7685	0.002065
509.9919	0.003963
510.2154	0.001833
510.4388	0.001939
510.6623	0.003014
510.8858	0.002761
511.1093	0.001348
511.3329	0.002782
511.5564	0.003014
511.7799	0.002445
512.0035	0.002276
512.2270	0.001854
512.4506	0.002761
512.6742	0.002382
512.8978	0.001580
513.1214	0.002803
513.3451	0.002571
513.5687	0.002635
513.7923	0.002550
514.0160	0.003753
514.2397	0.002740
514.4634	0.001306
514.6871	0.003183
514.9108	0.003858
515.1345	0.003035
515.3582	0.003499
515.5819	0.002361
515.8057	0.001411
516.0295	0.002656
516.2532	0.001580
516.4770	0.001432
516.7008	0.002782
516.9246	0.002930
517.1485	0.003457
517.3723	0.002698
517.5961	0.003816
517.8200	0.001875
518.0439	0.003162
518.2677	0.002466
518.4916	0.002803
518.7155	0.002403
518.9395	0.001200
519.1634	0.003816
519.3873	0.002888
519.6113	0.002171
519.8352	0.004364
520.0592	0.002107
520.2832	0.002276
520.5072	0.003141
520.7312	0.002255
520.9552	0.002192
521.1792	0.002213
521.4033	0.002740
521.6273	0.002972
521.8514	0.003014
522.0755	0.002213
522.2996	0.003521
522.5237	0.003394
522.7478	0.002403
522.9719	0.003057
523.1960	0.003120
523.4202	0.003014
523.6443	0.003057
523.8685	0.004301
524.0927	0.003099
524.3169	0.002065
524.5411	0.003753
524.7653	0.002318
524.9895	0.003310
525.2138	0.002740
525.4380	0.002951
525.6623	0.003057
525.8865	0.003521
526.1108	0.002424
526.3351	0.003647
526.5594	0.003120
526.7837	0.003816
527.0081	0.003035
527.2324	0.004090
527.4568	0.003731
527.6811	0.004238
527.9055	0.002951
528.1299	0.004006
528.3543	0.004111
528.5787	0.004280
528.8031	0.002972
529.0276	0.004681
529.2520	0.005398
529.4765	0.004533
529.7009	0.004195
529.9254	0.003985
530.1499	0.004364
530.3744	0.004870
530.5989	0.004681
530.8234	0.004322
531.0480	0.005672
531.2725	0.005440
531.4971	0.005229
531.7217	0.004428
531.9462	0.004786
532.1708	0.004976
532.3954	0.004702
532.6200	0.004596
532.8447	0.005039
533.0693	0.006874
533.2940	0.005545
533.5186	0.007233
533.7433	0.007001
533.9680	0.005820
534.1927	0.005166
534.4174	0.006684
534.6421	0.006980
534.8668	0.007254
535.0916	0.006705
535.3163	0.007296
535.5411	0.006009
535.7659	0.005988
535.9907	0.007338
536.2155	0.006811
536.4403	0.008245
536.6651	0.006600
536.8899	0.007127
537.1148	0.007275
537.3396	0.007486
537.5645	0.007022
537.7894	0.006663
538.0143	0.007865
538.2392	0.008920
538.4641	0.008308
538.6890	0.008498
538.9139	0.009637
539.1389	0.008899
539.3638	0.008625
539.5888	0.009068
539.8138	0.009194
540.0388	0.008435
540.2638	0.008119
540.4888	0.008540
540.7138	0.010481
540.9389	0.009279
541.1639	0.009616
541.3890	0.009279
541.6140	0.009131
541.8391	0.009363
542.0642	0.009637
542.2893	0.010586
542.5144	0.009954
542.7396	0.010882
542.9647	0.010734
543.1899	0.008372
543.4150	0.010080
543.6402	0.010734
543.8654	0.012759
544.0906	0.011388
544.3158	0.012231
544.5410	0.010586
544.7662	0.012442
544.9915	0.012653
545.2167	0.013244
545.4420	0.011641
545.6673	0.010228
545.8926	0.012042
546.1179	0.012168
546.3432	0.012400
546.5685	0.012674
546.7938	0.011957
547.0192	0.013792
547.2445	0.011746
547.4699	0.015037
547.6953	0.014573
547.9206	0.015100
548.1460	0.015733
548.3715	0.015923
548.5969	0.017378
548.8223	0.016555
549.0478	0.017736
549.2732	0.015416
549.4987	0.014277
549.7242	0.015374
549.9496	0.015754
550.1751	0.016534
550.4007	0.016028
550.6262	0.015669
550.8517	0.014003
551.0773	0.014552
551.3028	0.014636
551.5284	0.014467
551.7540	0.015437
551.9796	0.016176
552.2052	0.018032
552.4308	0.020837
552.6564	0.018812
552.8820	0.021681
553.1077	0.019234
553.3333	0.019255
553.5590	0.020626
553.7847	0.020584
554.0104	0.020246
554.2361	0.019508
554.4618	0.019044
554.6875	0.019213
554.9132	0.018116
555.1390	0.019234
555.3648	0.019846
555.5905	0.021174
555.8163	0.021406
556.0421	0.022355
556.2679	0.022482
556.4937	0.021913
556.7195	0.023262
556.9454	0.021744
557.1712	0.021659
557.3971	0.020731
557.6230	0.021934
557.8488	0.022524
558.0747	0.022440
558.3006	0.020689
558.5266	0.021744
558.7525	0.021280
558.9784	0.020225
559.2044	0.021723
559.4303	0.022039
559.6563	0.022229
559.8823	0.022841
560.1083	0.022123
560.3343	0.024971
560.5603	0.028873
560.7863	0.026679
561.0124	0.028810
561.2384	0.029147
561.4645	0.029653
561.6905	0.029759
561.9166	0.029780
562.1427	0.027502
562.3688	0.027818
562.5949	0.029927
562.8211	0.028324
563.0472	0.028472
563.2733	0.029653
563.4995	0.029738
563.7257	0.029822
563.9519	0.031467
564.1781	0.032733
564.4043	0.032058
564.6305	0.031973
564.8567	0.031130
565.0829	0.035285
565.3092	0.034230
565.5355	0.034652
565.7617	0.033070
565.9880	0.033850
566.2143	0.035200
566.4406	0.035348
566.6669	0.033724
566.8932	0.037563
567.1196	0.037626
567.3459	0.040853
567.5723	0.045514
567.7987	0.046337
568.0250	0.044881
568.2514	0.046822
568.4778	0.050091
568.7043	0.051652
568.9307	0.056545
569.1571	0.058570
569.3836	0.065446
569.6100	0.070297
569.8365	0.079493
570.0630	0.084049
570.2895	0.086411
570.5160	0.086327
570.7425	0.089048
570.9690	0.090672
571.1956	0.101175
571.4221	0.106680
571.6487	0.105562
571.8752	0.108178
572.1018	0.115961
572.3284	0.112270
572.5550	0.105605
572.7816	0.101407
573.0082	0.095206
573.2349	0.103959
573.4615	0.111679
573.6882	0.120959
573.9149	0.126865
574.1415	0.132982
574.3682	0.135808
574.5949	0.142810
574.8216	0.141524
575.0484	0.140828
575.2751	0.143970
575.5018	0.143823
575.7286	0.138444
575.9554	0.129059
576.1821	0.127730
576.4089	0.132412
576.6357	0.144013
576.8626	0.144624
577.0894	0.154938
577.3162	0.152934
577.5431	0.159452
577.7699	0.178730
577.9968	0.208596
578.2237	0.201129
578.4505	0.186597
578.6774	0.177485
578.9044	0.163248
579.1313	0.155803
579.3582	0.154664
579.5851	0.163269
579.8121	0.166264
580.0391	0.170230
580.2660	0.171073
580.4930	0.171938
580.7200	0.162932
580.9470	0.168205
581.1741	0.201825
581.4011	0.244093
581.6281	0.266176
581.8552	0.268559
582.0822	0.264531
582.3093	0.249218
582.5364	0.231881
582.7635	0.210705
582.9906	0.196341
583.2177	0.185774
583.4449	0.171664
583.6720	0.153841
583.8991	0.153314
584.1263	0.153293
584.3535	0.156119
584.5807	0.161392
584.8079	0.170715
585.0351	0.186428
585.2623	0.192228
585.4895	0.197565
585.7167	0.194570
585.9440	0.188917
586.1713	0.175503
586.3985	0.168817
586.6258	0.161055
586.8531	0.165885
587.0804	0.173183
587.3077	0.184150
587.5350	0.185205
587.7624	0.183053
587.9897	0.179236
588.2171	0.165041
588.4445	0.161561
588.6718	0.166623
588.8992	0.155107
589.1266	0.143802
589.3540	0.133214
589.5815	0.131210
589.8089	0.131147
590.0363	0.130894
590.2638	0.126106
590.4913	0.120727
590.7187	0.116952
590.9462	0.110055
591.1737	0.108304
591.4012	0.104930
591.6288	0.107250
591.8563	0.109085
592.0838	0.106005
592.3114	0.106701
592.5389	0.126907
592.7665	0.149813
592.9941	0.162700
593.2217	0.169597
593.4493	0.164577
593.6769	0.161519
593.9046	0.155044
594.1322	0.150657
594.3598	0.142600
594.5875	0.141334
594.8152	0.153314
595.0429	0.160190
595.2705	0.157322
595.4983	0.157237
595.7260	0.148379
595.9537	0.138698
596.1814	0.130408
596.4092	0.123301
596.6369	0.114548
596.8647	0.114273
597.0925	0.119293
597.3203	0.122415
597.5481	0.122942
597.7759	0.123090
598.0037	0.116678
598.2315	0.111742
598.4594	0.114653
598.6872	0.127624
598.9151	0.140617
599.1430	0.154812
599.3709	0.147872
599.5988	0.147050
599.8267	0.144793
600.0546	0.151859
600.2825	0.150931
600.5105	0.149011
600.7384	0.150678
600.9664	0.151985
601.1944	0.155803
601.4223	0.150277
601.6503	0.142705
601.8783	0.139583
602.1064	0.137137
602.3344	0.136462
602.5624	0.132581
602.7905	0.137390
603.0185	0.139815
603.2466	0.146185
603.4747	0.154622
603.7028	0.155065
603.9309	0.144413
604.1590	0.142557
604.3871	0.136567
604.6152	0.131083
604.8434	0.126485
605.0715	0.127139
605.2997	0.125262
605.5279	0.132349
605.7561	0.140301
605.9843	0.144477
606.2125	0.141714
606.4407	0.132855
606.6689	0.127097
606.8972	0.126886
607.1254	0.128067
607.3537	0.129944
607.5819	0.132855
607.8102	0.130198
608.0385	0.126296
608.2668	0.119588
608.4951	0.120010
608.7235	0.116256
608.9518	0.116467
609.1801	0.112776
609.4085	0.105056
609.6369	0.109296
609.8653	0.113641
610.0936	0.120453
610.3220	0.123237
610.5505	0.119546
610.7789	0.118935
611.0073	0.117184
611.2357	0.110266
611.4642	0.112607
611.6927	0.112797
611.9211	0.112375
612.1496	0.107819
612.3781	0.102926
612.6066	0.104487
612.8351	0.105352
613.0637	0.100986
613.2922	0.105710
613.5208	0.101534
613.7493	0.100901
613.9779	0.103622
614.2065	0.104276
614.4351	0.105267
614.6637	0.099530
614.8923	0.102441
615.1209	0.101281
615.3495	0.102631
615.5782	0.109148
615.8068	0.108304
616.0355	0.102525
616.2642	0.094553
616.4929	0.097252
616.7216	0.092675
616.9503	0.090355
617.1790	0.085504
617.4077	0.087529
617.6365	0.089617
617.8652	0.091368
618.0940	0.088352
618.3227	0.089427
618.5515	0.083901
618.7803	0.077953
619.0091	0.074136
619.2379	0.074853
619.4667	0.074895
619.6956	0.074600
619.9244	0.077131
620.1533	0.079493
620.3821	0.080569
620.6110	0.076751
620.8399	0.070677
621.0688	0.063885
621.2977	0.058633
621.5266	0.058802
621.7556	0.062388
621.9845	0.066606
622.2135	0.068884
622.4424	0.068293
622.6714	0.069938
622.9004	0.069917
623.1294	0.071267
623.3584	0.074515
623.5874	0.073587
623.8164	0.071984
624.0454	0.070466
624.2745	0.070297
624.5035	0.072659
624.7326	0.074937
624.9617	0.072723
625.1908	0.071457
625.4199	0.069411
625.6490	0.064159
625.8781	0.066880
626.1072	0.058612
626.3364	0.061523
626.5655	0.059329
626.7947	0.057537
627.0238	0.055997
627.2530	0.057305
627.4822	0.056904
627.7114	0.058148
627.9406	0.053276
628.1698	0.053023
628.3991	0.048931
628.6283	0.048256
628.8576	0.046569
629.0868	0.049796
629.3161	0.051061
629.5454	0.052580
629.7747	0.049353
630.0040	0.052559
630.2333	0.049501
630.4626	0.048003
630.6920	0.047265
630.9213	0.044692
631.1507	0.044164
631.3801	0.041654
631.6094	0.041022
631.8388	0.042182
632.0682	0.039461
632.2976	0.042814
632.5271	0.039967
632.7565	0.037373
632.9859	0.037288
633.2154	0.037014
633.4448	0.034061
633.6743	0.034673
633.9038	0.034251
634.1333	0.034525
634.3628	0.034926
634.5923	0.033323
634.8218	0.033534
635.0514	0.033176
635.2809	0.032437
635.5105	0.036339
635.7400	0.034357
635.9696	0.035643
636.1992	0.034504
636.4288	0.036192
636.6584	0.035854
636.8880	0.035116
637.1177	0.034525
637.3473	0.035011
637.5770	0.033281
637.8066	0.033154
638.0363	0.033302
638.2660	0.034610
638.4957	0.033344
638.7254	0.033766
638.9551	0.034610
639.1848	0.034863
639.4145	0.032838
639.6443	0.030721
639.8740	0.033752
640.1038	0.029828
640.3336	0.032439
640.5633	0.032060
640.7931	0.029311
641.0229	0.029237
641.2528	0.030947
641.4826	0.026998
641.7124	0.026706
641.9423	0.025710
642.1721	0.025367
642.4020	0.024851
642.6319	0.022103
642.8617	0.022942
643.0916	0.024648
643.3216	0.024765
643.5515	0.023780
643.7814	0.023064
644.0113	0.024648
644.2413	0.023982
644.4712	0.022913
644.7012	0.020872
644.9312	0.021327
645.1612	0.022947
645.3912	0.021995
645.6212	0.022274
645.8512	0.023752
646.0812	0.021532
646.3113	0.020756
646.5413	0.020030
646.7714	0.019716
647.0015	0.019549
647.2316	0.019244
647.4616	0.017207
647.6918	0.020772
647.9219	0.022616
648.1520	0.022925
648.3821	0.026106
648.6123	0.026420
648.8424	0.026434
649.0726	0.028958
649.3028	0.027707
649.5329	0.027176
649.7631	0.027783
649.9933	0.027044
650.2236	0.025732
650.4538	0.023168
650.6840	0.023418
650.9143	0.022014
651.1445	0.022279
651.3748	0.022527
651.6051	0.024465
651.8354	0.023976
652.0657	0.025722
652.2960	0.026528
652.5263	0.026119
652.7566	0.025612
652.9870	0.025401
653.2173	0.027098
653.4477	0.027469
653.6780	0.028192
653.9084	0.025982
654.1388	0.027275
654.3692	0.028056
654.5996	0.029592
654.8300	0.032266
655.0605	0.048022
655.2909	0.129605
655.5213	0.391835
655.7518	0.786405
655.9823	1.000000
656.2128	1.000000
656.4433	1.000000
656.6738	1.000000
656.9043	0.893288
657.1348	0.699245
657.3653	0.581983
657.5959	0.496253
657.8264	0.427580
658.0570	0.393501
658.2875	0.354901
658.5181	0.322392
658.7487	0.303830
658.9793	0.279879
659.2099	0.232142
659.4406	0.159439
659.6712	0.099847
659.9018	0.056401
660.1325	0.036422
660.3632	0.027712
660.5938	0.022138
660.8245	0.020746
661.0552	0.020812
661.2859	0.018494
661.5166	0.017275
661.7474	0.017904
661.9781	0.018508
662.2088	0.018585
662.4396	0.017445
662.6704	0.018116
662.9011	0.019543
663.1319	0.017372
663.3627	0.016309
663.5935	0.016963
663.8243	0.017273
664.0552	0.017330
664.2860	0.017446
664.5168	0.016901
664.7477	0.018875
664.9786	0.018219
665.2094	0.020907
665.4403	0.020085
665.6712	0.020112
665.9021	0.018671
666.1330	0.019238
666.3640	0.018590
666.5949	0.017713
666.8259	0.017817
667.0568	0.017674
667.2878	0.018532
667.5188	0.015760
667.7497	0.016580
667.9807	0.017059
668.2117	0.016882
668.4428	0.017610
668.6738	0.016766
668.9048	0.016155
669.1359	0.016640
669.3669	0.017779
669.5980	0.019487
669.8291	0.018538
670.0602	0.017315
670.2913	0.017694
670.5224	0.018918
670.7535	0.018854
670.9846	0.017462
671.2157	0.020668
671.4469	0.021891
671.6781	0.024212
671.9092	0.023748
672.1404	0.026743
672.3716	0.028135
672.6028	0.028324
672.8340	0.029231
673.0652	0.027460
673.2964	0.027713
673.5277	0.025034
673.7589	0.025161
673.9902	0.024950
674.2214	0.023874
674.4527	0.021238
674.6840	0.022756
674.9153	0.022039
675.1466	0.021470
675.3779	0.019993
675.6093	0.021385
675.8406	0.020753
676.0719	0.019487
676.3033	0.020394
676.5347	0.019192
676.7661	0.021343
676.9974	0.017589
677.2288	0.019993
677.4602	0.018011
677.6917	0.022461
677.9231	0.023642
678.1545	0.021744
678.3860	0.022798
678.6174	0.024275
678.8489	0.022946
679.0804	0.024781
679.3119	0.026869
679.5434	0.025224
679.7749	0.028240
680.0064	0.029485
680.2379	0.029189
680.4694	0.028556
680.7010	0.028240
680.9325	0.027713
681.1641	0.027481
681.3957	0.029801
681.6273	0.028535
681.8589	0.027903
682.0905	0.025730
682.3221	0.028409
682.5537	0.025329
682.7854	0.024422
683.0170	0.022419
683.2487	0.025857
683.4803	0.024697
683.7120	0.024148
683.9437	0.023284
684.1754	0.029042
684.4071	0.027713
684.6388	0.029674
684.8705	0.031994
685.1023	0.034104
685.3340	0.034272
685.5658	0.036867
685.7975	0.036550
686.0293	0.035960
686.2611	0.035812
686.4929	0.035496
686.7247	0.034905
686.9565	0.034230
687.1883	0.034926
687.4202	0.037584
687.6520	0.034251
687.8838	0.034230
688.1157	0.035791
688.3476	0.032564
688.5795	0.032395
688.8114	0.029801
689.0433	0.031446
689.2752	0.029126
689.5071	0.031425
689.7390	0.027418
689.9710	0.029189
690.2029	0.027692
690.4349	0.027523
690.6669	0.026363
690.8988	0.028472
691.1308	0.031446
691.3628	0.032058
691.5948	0.032248
691.8269	0.032121
692.0589	0.033112
692.2909	0.031530
692.5230	0.030265
692.7550	0.031573
692.9871	0.031826
693.2192	0.031404
693.4513	0.032754
693.6834	0.030054
693.9155	0.027903
694.1476	0.029801
694.3797	0.027228
694.6119	0.026215
694.8440	0.026173
695.0762	0.028198
695.3083	0.029316
695.5405	0.026743
695.7727	0.026827
696.0049	0.024676
696.2371	0.023748
696.4693	0.027270
696.7016	0.027270
696.9338	0.033661
697.1660	0.032205
697.3983	0.031362
697.6306	0.031910
697.8628	0.032922
698.0951	0.031256
698.3274	0.033091
698.5597	0.030539
698.7920	0.030771
699.0243	0.029147
699.2567	0.029695
699.4890	0.027586
699.7214	0.029337
699.9537	0.027059
700.1861	0.027017
700.4185	0.023895
700.6509	0.025899
700.8833	0.023663
701.1157	0.024254
701.3481	0.022123
701.5806	0.023684
701.8130	0.024296
702.0454	0.022735
702.2779	0.025772
702.5104	0.025646
702.7429	0.023537
702.9753	0.024380
703.2078	0.024043
703.4403	0.024760
703.6729	0.024401
703.9054	0.022883
704.1379	0.022208
704.3705	0.021765
704.6030	0.022461
704.8356	0.021153
705.0682	0.018728
705.3008	0.021702
705.5334	0.020668
705.7660	0.019909
705.9986	0.018622
706.2312	0.021786
706.4638	0.024064
706.6965	0.026236
706.9291	0.028029
707.1618	0.029506
707.3945	0.030391
707.6272	0.029463
707.8599	0.031066
708.0926	0.032269
708.3253	0.029780
708.5580	0.030645
708.7907	0.031172
709.0235	0.029105
709.2562	0.029695
709.4890	0.027586
709.7217	0.027396
709.9545	0.028092
710.1873	0.025519
710.4201	0.027987
710.6529	0.027860
710.8857	0.028514
711.1186	0.026426
711.3514	0.025013
711.5842	0.027038
711.8171	0.025308
712.0500	0.024380
712.2828	0.022904
712.5157	0.023452
712.7486	0.023009
712.9815	0.024570
713.2144	0.024844
713.4474	0.024612
713.6803	0.028050
713.9132	0.027818
714.1462	0.027523
714.3791	0.028303
714.6121	0.027333
714.8451	0.029759
715.0781	0.027650
715.3111	0.027818
715.5441	0.027987
715.7771	0.027375
716.0102	0.026279
716.2432	0.026131
716.4762	0.023030
716.7093	0.023199
716.9424	0.023262
717.1754	0.023958
717.4085	0.023094
717.6416	0.020795
717.8747	0.023115
718.1078	0.024971
718.3410	0.023368
718.5741	0.022841
718.8072	0.021681
719.0404	0.023473
719.2736	0.023937
719.5067	0.023347
719.7399	0.025224
719.9731	0.020963
720.2063	0.021659
720.4395	0.022609
720.6727	0.022503
720.9060	0.023262
721.1392	0.024380
721.3725	0.023874
721.6057	0.022988
721.8390	0.025308
722.0723	0.024844
722.3055	0.024570
722.5388	0.021491
722.7721	0.022166
723.0055	0.022904
723.2388	0.022250
723.4721	0.023853
723.7055	0.023262
723.9388	0.024908
724.1722	0.021491
724.4056	0.022229
724.6389	0.020710
724.8723	0.023136
725.1057	0.023684
725.3391	0.025667
725.5726	0.028008
725.8060	0.026342
726.0394	0.028493
726.2729	0.029189
726.5063	0.026679
726.7398	0.026553
726.9733	0.026279
727.2068	0.026827
727.4403	0.026068
727.6738	0.027586
727.9073	0.026004
728.1408	0.027101
728.3743	0.026215
728.6079	0.028135
728.8414	0.026131
729.0750	0.027755
729.3086	0.028746
729.5421	0.029252
729.7757	0.030708
730.0093	0.030497
730.2429	0.029864
730.4766	0.029105
730.7102	0.032606
730.9438	0.034104
731.1775	0.032712
731.4111	0.033766
731.6448	0.031720
731.8785	0.034884
732.1122	0.036192
732.3458	0.033028
732.5795	0.032079
732.8133	0.036023
733.0470	0.033724
733.2807	0.033492
733.5145	0.032290
733.7482	0.038048
733.9820	0.039187
734.2157	0.040769
734.4495	0.044270
734.6833	0.041169
734.9171	0.040389
735.1509	0.038786
735.3847	0.039693
735.6185	0.039482
735.8524	0.039208
736.0862	0.039039
736.3201	0.039672
736.5539	0.040136
736.7878	0.039630
737.0217	0.038575
737.2556	0.038913
737.4895	0.038069
737.7234	0.037352
737.9573	0.034989
738.1912	0.032901
738.4252	0.033176
738.6591	0.032522
738.8931	0.032585
739.1271	0.037520
739.3610	0.038153
739.5950	0.037288
739.8290	0.037246
740.0630	0.036065
740.2970	0.033007
740.5310	0.033829
740.7651	0.030434
740.9991	0.031488
741.2332	0.030813
741.4672	0.027776
741.7013	0.025815
741.9354	0.028219
742.1695	0.026932
742.4036	0.027924
742.6377	0.029590
742.8718	0.026637
743.1059	0.028367
743.3400	0.026384
743.5742	0.026616
743.8083	0.024486
744.0425	0.023832
744.2767	0.025730
744.5108	0.025203
744.7450	0.025772
744.9792	0.024612
745.2134	0.022693
745.4477	0.022545
745.6819	0.023558
745.9161	0.025625
746.1504	0.023305
746.3846	0.025983
746.6189	0.023136
746.8532	0.023241
747.0874	0.021681
747.3217	0.026384
747.5560	0.024718
747.7903	0.023958
748.0247	0.023811
748.2590	0.023326
748.4933	0.024001
748.7277	0.023937
748.9620	0.023748
749.1964	0.024992
749.4308	0.028050
749.6652	0.026279
749.8995	0.029949
750.1339	0.030413
750.3684	0.033998
750.6028	0.035327
750.8372	0.033808
751.0717	0.032859
751.3061	0.032796
751.5406	0.032965
751.7750	0.032817
752.0095	0.032121
752.2440	0.031741
752.4785	0.030623
752.7130	0.030940
752.9475	0.027038
753.1820	0.030138
753.4166	0.030771
753.6511	0.032458
753.8856	0.034863
754.1202	0.033070
754.3548	0.034525
754.5894	0.034251
754.8239	0.034568
755.0585	0.032690
755.2931	0.034040
755.5278	0.034083
755.7624	0.035496
755.9970	0.036192
756.2317	0.038301
756.4663	0.039841
756.7010	0.040157
756.9356	0.041950
757.1703	0.043616
757.4050	0.047096
757.6397	0.049606
757.8744	0.050682
758.1091	0.048994
758.3438	0.045493
758.5786	0.043679
758.8133	0.046864
759.0481	0.046653
759.2828	0.047349
759.5176	0.048172
759.7524	0.048467
759.9872	0.047982
760.2220	0.053466
760.4568	0.052496
760.6916	0.052749
760.9264	0.052200
761.1613	0.048425
761.3961	0.049247
761.6310	0.043342
761.8658	0.042519
762.1007	0.040916
762.3356	0.039355
762.5705	0.039060
762.8054	0.039735
763.0403	0.040747
763.2752	0.040305
763.5101	0.039503
763.7450	0.039988
763.9800	0.040916
764.2149	0.043679
764.4499	0.045556
764.6849	0.045578
764.9198	0.047349
765.1548	0.045725
765.3898	0.049100
765.6248	0.044038
765.8599	0.043300
766.0949	0.040452
766.3299	0.038575
766.5650	0.036107
766.8000	0.033787
767.0351	0.035074
767.2701	0.033513
767.5052	0.030054
767.7403	0.030940
767.9754	0.033302
768.2105	0.033555
768.4456	0.036128
768.6808	0.040157
768.9159	0.039292
769.1510	0.040431
769.3862	0.037605
769.6214	0.037246
769.8565	0.036297
770.0917	0.036529
770.3269	0.035685
770.5621	0.036761
770.7973	0.036803
771.0325	0.040515
771.2677	0.039081
771.5030	0.039967
771.7382	0.035411
771.9735	0.034462
772.2087	0.035116
772.4440	0.031488
772.6793	0.034293
772.9146	0.033534
773.1499	0.031910
773.3852	0.031383
773.6205	0.030982
773.8558	0.030138
774.0911	0.027903
774.3265	0.027945
774.5618	0.027882
774.7972	0.027797
775.0326	0.024465
775.2679	0.025182
775.5033	0.023199
775.7387	0.023284
775.9741	0.022440
776.2095	0.021069
776.4450	0.022883
776.6804	0.021870
776.9158	0.020246
777.1513	0.022145
777.3868	0.019993
777.6222	0.020225
777.8577	0.018179
778.0932	0.020858
778.3287	0.019297
778.5642	0.022166
778.7997	0.022630
779.0352	0.023663
779.2707	0.024570
779.5063	0.024233
779.7418	0.025034
779.9774	0.024422
780.2130	0.023305
780.4485	0.021828
780.6841	0.023516
780.9197	0.024739
781.1553	0.028114
781.3909	0.028704
781.6265	0.028683
781.8622	0.030117
782.0978	0.028177
782.3335	0.029843
782.5691	0.028641
782.8048	0.029252
783.0405	0.026911
783.2761	0.028240
783.5118	0.027017
783.7475	0.028367
783.9832	0.028746
784.2190	0.025266
784.4547	0.024760
784.6904	0.024148
784.9262	0.023326
785.1619	0.021723
785.3977	0.023726
785.6335	0.023621
785.8692	0.023347
786.1050	0.024444
786.3408	0.023115
786.5766	0.024380
786.8124	0.022145
787.0483	0.021512
787.2841	0.023030
787.5199	0.023684
787.7558	0.024401
787.9917	0.024654
788.2275	0.024908
788.4634	0.021891
788.6993	0.024781
788.9352	0.027228
789.1711	0.025182
789.4070	0.023262
789.6429	0.023368
789.8789	0.023389
790.1148	0.023136
790.3507	0.022820
790.5867	0.019909
790.8227	0.019972
791.0586	0.020120
791.2946	0.020478
791.5306	0.019592
791.7666	0.022166
792.0026	0.018390
792.2387	0.018285
792.4747	0.018749
792.7107	0.018791
792.9468	0.017863
793.1828	0.018158
793.4189	0.018411
793.6550	0.019761
793.8910	0.020394
794.1271	0.024760
794.3632	0.026236
794.5993	0.026194
794.8355	0.024802
795.0716	0.026679
795.3077	0.028156
795.5439	0.024971
795.7800	0.025561
796.0162	0.023030
796.2523	0.019867
796.4885	0.019255
796.7247	0.016787
796.9609	0.017631
797.1971	0.018369
797.4333	0.017589
797.6695	0.019656
797.9058	0.019909
798.1420	0.019192
798.3783	0.018875
798.6145	0.019213
798.8508	0.019846
799.0871	0.018812
799.3233	0.018559
799.5596	0.020056
799.7959	0.018306
800.0322	0.017926
800.2686	0.016091
800.5049	0.014826
800.7412	0.016998
800.9776	0.016323
801.2139	0.016133
801.4503	0.017230
801.6867	0.015690
801.9230	0.014910
802.1594	0.015332
802.3958	0.014826
802.6322	0.012379
802.8686	0.013413
803.1051	0.014320
803.3415	0.014109
803.5779	0.015458
803.8144	0.015733
804.0508	0.016239
804.2873	0.014320
804.5238	0.014320
804.7603	0.014341
804.9968	0.013645
805.2333	0.013645
805.4698	0.014488
805.7063	0.014298
805.9428	0.015880
806.1794	0.018032
806.4159	0.019614
806.6525	0.019318
806.8890	0.020985
807.1256	0.018707
807.3622	0.019255
807.5988	0.017926
807.8354	0.018496
808.0720	0.017989
808.3086	0.018032
808.5452	0.019993
808.7818	0.017736
809.0185	0.018369
809.2551	0.020457
809.4918	0.018053
809.7284	0.016893
809.9651	0.018116
810.2018	0.017040
810.4385	0.015269
810.6752	0.015353
810.9119	0.016597
811.1486	0.016176
811.3853	0.014847
811.6221	0.015627
811.8588	0.013455
812.0956	0.012316
812.3323	0.012590
812.5691	0.013771
812.8059	0.011071
813.0427	0.011114
813.2795	0.011050
813.5163	0.013518
813.7531	0.013560
813.9899	0.016640
814.2267	0.014931
814.4636	0.015332
814.7004	0.013455
814.9373	0.014868
815.1742	0.011303
815.4110	0.011282
815.6479	0.012042
815.8848	0.012253
816.1217	0.011430
816.3586	0.011894
816.5955	0.010249
816.8324	0.012970
817.0694	0.011071
817.3063	0.011092
817.5433	0.011050
817.7802	0.012421
818.0172	0.012632
818.2542	0.010966
818.4912	0.012042
818.7282	0.011114
818.9652	0.012063
819.2022	0.010713
819.4392	0.010607
819.6762	0.009468
819.9133	0.010207
820.1503	0.011620
820.3874	0.011514
820.6244	0.011704
820.8615	0.013476
821.0986	0.011831
821.3357	0.012843
821.5727	0.012759
821.8099	0.011620
822.0470	0.010502
822.2841	0.009890
822.5212	0.012379
822.7584	0.011535
822.9955	0.009658
823.2327	0.011156
823.4698	0.010333
823.7070	0.008435
823.9442	0.009131
824.1814	0.008941
824.4186	0.008941
824.6558	0.008519
824.8930	0.009110
825.1302	0.008140
825.3675	0.009574
825.6047	0.010396
825.8419	0.011114
826.0792	0.010924
826.3165	0.008583
826.5537	0.009321
826.7910	0.009595
827.0283	0.011620
827.2656	0.010312
827.5029	0.012801
827.7402	0.011071
827.9776	0.011430
828.2149	0.009279
828.4522	0.010439
828.6896	0.010987
828.9270	0.011198
829.1643	0.011156
829.4017	0.010312
829.6391	0.009258
829.8765	0.011704
830.1139	0.009975
830.3513	0.010713
830.5887	0.007401
830.8261	0.008287
831.0636	0.008414
831.3010	0.008013
831.5385	0.005756
831.7759	0.007507
832.0134	0.005777
832.2509	0.006431
832.4884	0.006769
832.7259	0.006178
832.9634	0.007169
833.2009	0.007127
833.4384	0.007022
833.6759	0.007655
833.9135	0.007739
834.1510	0.007992
834.3886	0.007950
834.6261	0.009258
834.8637	0.008203
835.1013	0.007085
835.3389	0.008182
835.5765	0.008013
835.8141	0.007465
836.0517	0.007802
836.2893	0.007022
836.5269	0.006937
836.7646	0.005208
837.0022	0.006136
837.2399	0.007718
837.4775	0.005946
837.7152	0.004470
837.9529	0.006579
838.1906	0.007212
838.4283	0.006494
838.6660	0.004786
838.9037	0.006790
839.1414	0.005524
839.3791	0.005777
839.6169	0.006705
839.8546	0.006874
840.0924	0.005377
840.3302	0.007317
840.5679	0.005756
840.8057	0.006009
841.0435	0.005820
841.2813	0.004744
841.5191	0.005588
841.7569	0.005187
841.9947	0.005609
842.2326	0.005693
842.4704	0.005271
842.7082	0.005039
842.9461	0.005250
843.1840	0.005208
843.4218	0.004575
843.6597	0.004955
843.8976	0.005503
844.1355	0.005609
844.3734	0.003499
844.6113	0.005145
844.8492	0.003563
845.0872	0.005081
845.3251	0.003626
845.5631	0.004765
845.8010	0.004849
846.0390	0.004406
846.2770	0.004765
846.5149	0.002782
846.7529	0.005060
846.9909	0.003921
847.2289	0.004259
847.4669	0.003352
847.7050	0.004681
847.9430	0.004976
848.1810	0.004554
848.4191	0.004575
848.6571	0.003436
848.8952	0.002740
849.1333	0.005166
849.3713	0.003921
849.6094	0.004195
849.8475	0.003499
850.0856	0.003394
850.3237	0.005102
850.5619	0.003816
850.8000	0.003478
851.0381	0.002213
851.2763	0.004195
851.5144	0.003478
851.7526	0.004470
851.9908	0.005925
852.2289	0.005777
852.4671	0.005145
852.7053	0.006241
852.9435	0.007781
853.1817	0.009658
853.4200	0.011557
853.6582	0.011915
853.8964	0.011557
854.1347	0.012463
854.3729	0.011430
854.6112	0.010692
854.8495	0.012611
855.0877	0.010987
855.3260	0.011114
855.5643	0.010460
855.8026	0.008055
856.0409	0.010797
856.2792	0.010080
856.5176	0.012442
856.7559	0.010186
856.9942	0.011050
857.2326	0.009574
857.4710	0.008941
857.7093	0.008182
857.9477	0.008751
858.1861	0.007148
858.4245	0.008076
858.6629	0.007317
858.9013	0.007423
859.1397	0.006811
859.3781	0.008878
859.6166	0.007465
859.8550	0.006326
860.0935	0.006558
860.3319	0.006537
860.5704	0.007106
860.8089	0.006284
861.0473	0.005988
861.2858	0.005609
861.5243	0.004491
861.7628	0.005187
862.0013	0.004681
862.2399	0.005250
862.4784	0.002993
862.7169	0.004174
862.9555	0.005060
863.1940	0.005250
863.4326	0.006094
863.6712	0.005714
863.9098	0.004596
864.1483	0.006073
864.3869	0.005545
864.6255	0.006284
864.8642	0.003985
865.1028	0.004533
865.3414	0.003921
865.5800	0.004554
865.8187	0.003753
866.0573	0.004533
866.2960	0.003078
866.5347	0.003710
866.7733	0.004343
867.0120	0.006030
867.2507	0.003584
867.4894	0.003415
867.7281	0.005313
867.9669	0.004027
868.2056	0.005124
868.4443	0.004111
868.6831	0.003900
868.9218	0.004575
869.1606	0.003099
869.3993	0.005271
869.6381	0.003035
869.8769	0.004512
870.1157	0.003647
870.3545	0.004723
870.5933	0.004174
870.8321	0.005883
871.0709	0.004301
871.3097	0.004301
871.5486	0.004828
871.7874	0.004301
872.0263	0.002846
872.2651	0.003605
872.5040	0.001854
872.7429	0.004132
872.9818	0.004069
873.2207	0.003731
873.4596	0.004111
873.6985	0.004280
873.9374	0.004828
874.1763	0.003879
874.4153	0.002951
874.6542	0.004238
874.8932	0.005124
875.1321	0.004892
875.3711	0.004870
875.6101	0.005735
875.8491	0.004132
876.0880	0.004449
876.3270	0.005630
876.5661	0.003605
876.8051	0.005398
877.0441	0.005060
877.2831	0.002909
877.5222	0.003942
877.7612	0.005419
878.0003	0.005356
878.2393	0.005925
878.4784	0.004807
878.7175	0.005060
878.9566	0.006009
879.1957	0.006284
879.4348	0.005271
879.6739	0.007106
879.9130	0.004069
880.1521	0.006937
880.3913	0.006284
880.6304	0.004744
880.8696	0.006642
881.1087	0.006769
881.3479	0.006600
881.5871	0.005967
881.8262	0.004744
882.0654	0.005946
882.3046	0.005820
882.5438	0.006199
882.7831	0.003753
883.0223	0.004934
883.2615	0.004702
883.5007	0.006516
883.7400	0.003605
883.9792	0.005482
884.2185	0.006262
884.4578	0.005461
884.6971	0.004343
884.9363	0.005967
885.1756	0.003605
885.4149	0.005925
885.6542	0.005630
885.8936	0.004744
886.1329	0.006516
886.3722	0.006284
886.6116	0.005967
886.8509	0.003394
887.0903	0.004870
887.3296	0.004786
887.5690	0.003626
887.8084	0.004491
888.0478	0.005250
888.2872	0.005609
888.5266	0.004596
888.7660	0.004280
889.0054	0.002171
889.2448	0.003647
889.4843	0.003099
889.7237	0.003415
889.9632	0.004195
890.2026	0.004449
890.4421	0.003774
890.6816	0.004322
890.9211	0.003204
891.1606	0.004153
891.4001	0.003647
891.6396	0.003246
891.8791	0.003289
892.1186	0.004786
892.3581	0.004132
892.5977	0.004681
892.8372	0.003837
893.0768	0.004406
893.3163	0.005145
893.5559	0.004934
893.7955	0.003246
894.0351	0.003521
894.2747	0.003057
894.5143	0.004301
894.7539	0.000504
894.9935	0.004575
895.2331	0.003942
895.4727	0.002656
895.7124	0.002740
895.9520	0.004449
896.1917	0.003521
896.4314	0.004259
896.6710	0.003816
896.9107	0.003499
897.1504	0.003900
897.3901	0.005060
897.6298	0.005798
897.8695	0.003183
898.1092	0.005124
898.3489	0.004280
898.5887	0.003858
898.8284	0.003753
899.0682	0.003099
899.3079	0.002698
899.5477	0.004449
899.7875	0.003985
900.0272	0.003837
900.2670	0.003436
900.5068	0.002171
900.7466	0.003795
900.9864	0.002614
901.2263	0.002529
901.4661	0.004449
901.7059	0.003816
901.9458	0.003141
902.1856	0.003584
902.4255	0.002529
902.6654	0.002825
902.9052	0.003605
903.1451	0.003816
903.3850	0.002972
903.6249	0.003774
903.8648	0.002677
904.1047	0.004786
904.3446	0.004301
904.5846	0.003689
904.8245	0.002614
905.0644	0.005461
905.3044	0.003963
905.5444	0.002361
905.7843	0.003563
906.0243	0.005461
906.2643	0.004744
906.5043	0.003731
906.7443	0.003774
906.9843	0.003626
907.2243	0.003774
907.4643	0.003921
907.7043	0.003816
907.9444	0.001981
908.1844	0.004849
908.4245	0.002782
908.6645	0.003942
908.9046	0.004132
909.1447	0.003183
909.3847	0.003774
909.6248	0.003478
909.8649	0.004006
910.1050	0.002846
910.3452	0.002909
910.5853	0.002023
910.8254	0.003816
911.0655	0.003183
911.3057	0.003795
911.5458	0.002740
911.7860	0.003584
912.0262	0.003731
912.2663	0.003478
912.5065	0.003373
912.7467	0.005229
912.9869	0.002951
913.2271	0.002339
913.4673	0.002107
913.7075	0.002297
913.9478	0.001896
914.1880	0.002782
914.4283	0.002403
914.6685	0.003816
914.9088	0.002171
915.1490	0.004554
915.3893	0.002698
915.6296	0.003120
915.8699	0.003120
916.1102	0.003352
916.3505	0.003141
916.5908	0.003900
916.8311	0.003289
917.0714	0.004533
917.3118	0.003478
917.5521	0.004428
917.7925	0.003078
918.0328	0.003267
918.2732	0.003668
918.5136	0.002614
918.7539	0.003078
918.9943	0.002846
919.2347	0.002614
919.4751	0.003542
919.7155	0.003035
919.9560	0.004153
920.1964	0.001875
920.4368	0.003605
920.6773	0.002993
920.9177	0.003267
921.1582	0.002339
921.3986	0.003310
921.6391	0.002951
921.8796	0.003942
922.1201	0.002719
922.3606	0.002635
922.6011	0.003057
922.8416	0.004006
923.0821	0.002888
923.3226	0.003099
923.5631	0.001791
923.8037	0.003816
924.0442	0.001686
924.2848	0.002487
924.5254	0.002086
924.7659	0.004090
925.0065	0.002234
925.2471	0.003521
925.4877	0.003289
925.7283	0.003014
925.9689	0.003626
926.2095	0.002593
926.4501	0.001854
926.6908	0.002719
926.9314	0.001686
927.1720	0.001327
927.4127	0.000715
927.6533	0.001432
927.8940	0.002508
928.1347	0.003521
928.3754	0.000736
928.6161	0.003921
928.8568	0.000589
929.0975	0.001981
929.3382	0.001622
929.5789	0.001960
929.8196	0.001454
930.0604	0.002361
930.3011	0.002635
930.5419	0.002234
930.7826	0.001264
931.0234	0.003415
931.2642	0.001137
931.5049	0.001643
931.7457	0.001664
931.9865	0.001939
932.2273	0.001728
932.4681	0.001032
932.7089	0.003289
932.9498	0.001896
933.1906	0.000736
933.4314	0.003099
933.6723	0.002276
933.9131	0.000547
934.1540	0.001896
934.3949	0.002086
934.6358	0.002867
934.8766	0.002150
935.1175	0.001243
935.3584	0.001749
935.5993	0.001179
935.8403	0.001032
936.0812	0.002234
936.3221	0.002129
936.5630	0.000610
936.8040	0.002234
937.0449	0.000315
937.2859	0.003162
937.5269	0.002234
937.7678	0.001664
938.0088	0.002107
938.2498	0.001032
938.4908	0.003267
938.7318	0.000209
938.9728	0.002276
939.2138	0.002023
939.4549	0.001664
939.6959	0.001833
939.9369	0.000736
940.1780	0.000863
940.4190	0.001158
940.6601	0.001854
940.9012	0.002107
941.1422	0.001200
941.3833	0.000462
941.6244	0.001496
941.8655	0.001411
942.1066	0.001243
942.3477	0.001601
942.5889	0.000441
942.8300	0.001496
943.0711	0.001243
943.3123	0.000758
943.5534	0.000926
943.7946	0.001200
944.0357	0.001327
944.2769	0.002002
944.5181	0.001095
944.7593	0.002192
945.0005	0.001875
945.2417	0.000251
945.4829	0.001728
945.7241	0.002234
945.9653	0.000146
946.2066	0.001222
946.4478	0.000652
946.6891	0.001538
946.9303	-0.000128
947.1716	-0.000719
947.4128	0.000104
947.6541	-0.000297
947.8954	0.000526
948.1367	0.000926
948.3780	0.000230
948.6193	0.001074
948.8606	0.000378
949.1019	0.000420
949.3433	0.001369
949.5846	0.001601
949.8259	0.000947
950.0673	0.001179
950.3086	0.001622
950.5500	0.000504
950.7914	0.001327
951.0327	0.000652
951.2741	-0.000107
951.5155	0.001833
951.7569	0.001981
951.9983	0.001074
952.2398	0.000758
952.4812	0.000694
952.7226	0.001074
952.9640	0.001643
953.2055	0.001517
953.4469	0.000062
953.6884	0.001158
953.9299	0.001664
954.1713	-0.000930
954.4128	0.001580
954.6543	0.000905
954.8958	0.001686
955.1373	0.001200
955.3788	0.001285
955.6203	-0.000065
955.8618	0.000694
956.1034	0.000272
956.3449	0.001411
956.5865	0.000589
956.8280	0.002318
957.0696	0.001074
957.3111	0.000462
957.5527	-0.000128
957.7943	0.000526
958.0359	0.000146
958.2775	-0.000086
958.5191	0.000062
958.7607	0.001833
959.0023	0.000736
959.2439	0.001285
959.4856	0.001348
959.7272	0.003563
959.9688	0.000357
960.2105	-0.000761
960.4522	0.000378
960.6938	0.000947
960.9355	0.001517
961.1772	0.001222
961.4189	0.000336
961.6606	0.001896
961.9023	0.000251
962.1440	0.001348
962.3857	0.000547
962.6274	0.002213
962.8692	0.000420
963.1109	0.001981
963.3527	0.000631
963.5944	0.001601
963.8362	0.000947
964.0779	0.001454
964.3197	0.000019
964.5615	0.001601
964.8033	0.000800
965.0451	-0.000213
965.2869	0.001707
965.5287	0.000315
965.7705	-0.000845
966.0123	0.001390
966.2542	0.001411
966.4960	0.001369
966.7379	0.000863
966.9797	0.000842
967.2216	0.001517
967.4634	0.000863
967.7053	0.001454
967.9472	0.000357
968.1891	-0.000170
968.4310	-0.000023
968.6729	0.000990
968.9148	0.000568
969.1567	0.000673
969.3987	0.000230
969.6406	0.000947
969.8825	0.001664
970.1245	0.001390
970.3664	0.000715
970.6084	0.001095
970.8504	0.000483
971.0923	0.000504
971.3343	-0.001309
971.5763	0.000188
971.8183	0.000230
972.0603	-0.001099
972.3023	0.000209
972.5443	0.000715
972.7864	0.000336
973.0284	-0.000234
973.2704	0.000694
973.5125	-0.000445
973.7545	0.000483
973.9966	-0.001014
974.2387	0.001601
974.4807	-0.000529
974.7228	0.000568
974.9649	-0.000170
975.2070	0.001559
975.4491	-0.000909
975.6912	0.001875
975.9333	-0.000318
976.1755	0.000694
976.4176	0.000315
976.6597	0.000589
976.9019	-0.000297
977.1440	0.001686
977.3862	-0.000403
977.6283	0.001411
977.8705	0.000378
978.1127	0.001960
978.3549	0.000040
978.5971	0.001179
978.8393	0.002698
979.0815	0.000926
979.3237	-0.000128
979.5659	0.001580
979.8082	0.000926
980.0504	0.001580
980.2926	0.000589
980.5349	0.000209
980.7771	0.000694
981.0194	0.001791
981.2617	0.000968
981.5040	0.000547
981.7462	0.000652
981.9885	0.001032
982.2308	-0.000635
982.4731	0.000336
982.7155	0.000125
982.9578	0.000315
983.2001	-0.000065
983.4424	0.000990
983.6848	0.001032
983.9271	0.000610
984.1695	0.000652
984.4118	0.000272
984.6542	0.000315
984.8966	0.000568
985.1390	0.000821
985.3814	0.000610
985.6238	0.001580
985.8662	-0.000761
986.1086	-0.000445
986.3510	0.000399
986.5934	-0.000613
986.8358	0.000104
987.0783	-0.000065
987.3207	0.001601
987.5632	-0.000845
987.8056	0.000758
988.0481	0.001390
988.2906	0.000905
988.5331	0.000336
988.7756	0.001285
989.0180	0.000694
989.2605	0.001032
989.5031	0.000146
989.7456	0.000736
989.9881	-0.000824
990.2306	0.001011
990.4732	-0.001077
990.7157	0.002403
990.9582	0.001222
991.2008	0.000568
991.4434	0.000884
991.6859	0.000083
991.9285	0.000104
992.1711	-0.000234
992.4137	-0.000086
992.6563	0.000040
992.8989	-0.000824
993.1415	0.001011
993.3841	0.001243
993.6267	0.000146
993.8694	0.001032
994.1120	0.000694
994.3547	0.000631
994.5973	0.000968
994.8400	-0.000445
995.0826	-0.000044
995.3253	0.000462
995.5680	-0.000170
995.8107	0.000926
996.0534	-0.000107
996.2961	0.000104
996.5388	0.000104
996.7815	-0.000740
997.0242	-0.000107
997.2670	0.000926
997.5097	0.000821
997.7524	0.000336
997.9952	0.001264
998.2379	0.001475
998.4807	0.000863
998.7235	-0.000023
998.9662	0.000357
999.2090	-0.000002
999.4518	0.001137
999.6946	0.001854
999.9374	0.000104
1000.1802	0.001369
1000.4230	-0.000592
1000.6659	-0.000002
1000.9087	-0.000782
1001.1515	0.000779
1001.3944	0.000272
1001.6372	0.000800
1001.8801	0.000905
1002.1230	-0.000613
1002.3658	-0.000656
1002.6087	0.000526
1002.8516	0.000884
1003.0945	0.000610
1003.3374	-0.000445
1003.5803	0.000610
1003.8232	-0.000487
1004.0661	0.000294
1004.3091	-0.000867
1004.5520	0.001854
1004.7949	0.000272
1005.0379	-0.000529
1005.2808	0.000420
1005.5238	0.000441
1005.7667	0.000884
1006.0097	0.000589
1006.2527	0.000631
1006.4957	-0.000023
1006.7387	0.000294
1006.9817	-0.000677
1007.2247	-0.000930
1007.4677	0.000125
1007.7107	-0.000677
1007.9538	-0.000867
1008.1968	0.000610
1008.4398	-0.000023
1008.6829	0.000441
1008.9259	0.000083
1009.1690	0.000062
1009.4121	0.000863
1009.6551	0.000968
1009.8982	0.001517
1010.1413	-0.000888
1010.3844	0.001559
1010.6275	-0.000613
1010.8706	0.000673
1011.1137	0.001158
1011.3568	0.000610
1011.6000	0.000146
1011.8431	0.000568
1012.0863	0.000800
1012.3294	0.000863
1012.5726	0.000209
1012.8157	0.000040
1013.0589	-0.000360
1013.3021	-0.000023
1013.5452	0.001158
1013.7884	0.000990
1014.0316	-0.000824
1014.2748	0.000568
1014.5180	0.000251
1014.7613	-0.000213
1015.0045	0.000188
1015.2477	0.000589
1015.4909	0.000294
1015.7342	0.002171
1015.9774	0.000040
1016.2207	0.000990
1016.4640	-0.000698
1016.7072	0.000462
1016.9505	0.000272
1017.1938	0.000504
1017.4371	-0.000972
1017.6804	0.000589
1017.9237	0.000968
1018.1670	-0.000255
1018.4103	-0.000086
1018.6536	0.000568
1018.8969	-0.000909
1019.1403	0.000758
1019.3836	0.001095
1019.6270	0.000926
1019.8703	-0.000719
1020.1137	0.000462
1020.3571	-0.000403
1020.6004	-0.001035
1020.8438	-0.000487
1021.0872	-0.001668
1021.3306	-0.001225
1021.5740	-0.000592
1021.8174	0.001053
1022.0608	0.000336
1022.3042	-0.000698
1022.5477	0.000294
1022.7911	0.001179
1023.0345	-0.001183
