# Wavelength (nm)	Intensity (a.u.)
197.7802	0.001937
197.9842	0.000904
198.1882	0.000545
198.3922	0.000756
198.5963	0.000988
198.8003	0.000840
199.0044	0.001811
199.2085	0.000355
199.4126	0.000714
199.6168	0.000186
199.8209	0.000988
200.0251	-0.001079
200.2292	0.000714
200.4334	-0.000489
200.6376	0.000714
200.8418	0.000524
201.0461	0.002148
201.2503	0.001916
201.4546	0.001030
201.6589	0.000861
201.8631	0.000693
202.0674	0.000144
202.2718	0.000440
202.4761	0.001283
202.6805	0.000925
202.8848	0.000714
203.0892	0.001072
203.2936	0.000925
203.4980	0.000440
203.7024	0.001452
203.9069	0.001030
204.1113	0.000503
204.3158	0.001283
204.5203	-0.000468
204.7248	0.001473
204.9293	-0.000109
205.1338	0.000355
205.3384	0.001410
205.5430	0.001705
205.7475	0.000018
205.9521	0.001072
206.1567	0.001621
206.3614	0.002043
206.5660	0.001283
206.7706	0.002739
206.9753	0.001115
207.1800	-0.000257
207.3847	0.000798
207.5894	-0.000004
207.7941	0.000840
207.9989	0.000186
208.2036	-0.001818
208.4084	-0.000383
208.6132	0.001473
208.8180	-0.000130
209.0228	-0.000341
209.2276	0.000461
209.4325	-0.000657
209.6373	0.000039
209.8422	0.001157
210.0471	0.002190
210.2520	0.000229
210.4569	0.001494
210.6618	0.001537
210.8668	0.000861
211.0718	0.001684
211.2767	0.002591
211.4817	0.000904
211.6867	0.000482
211.8918	0.000524
212.0968	0.000861
212.3018	0.000482
212.5069	0.000440
212.7120	-0.000025
212.9171	-0.000383
213.1222	0.001980
213.3273	0.000440
213.5325	0.000229
213.7376	0.000503
213.9428	0.000629
214.1480	0.000883
214.3532	0.000861
214.5584	0.000672
214.7636	0.000376
214.9689	0.001220
215.1741	0.000566
215.3794	0.000946
215.5847	0.000608
215.7900	0.000461
215.9953	-0.001101
216.2007	0.001473
216.4060	-0.000067
216.6114	0.000039
216.8168	0.000608
217.0222	0.002802
217.2276	0.000904
217.4330	0.001684
217.6384	-0.000552
217.8439	0.000608
218.0494	0.000777
218.2548	-0.000193
218.4603	-0.000425
218.6659	0.002507
218.8714	0.000819
219.0769	0.000102
219.2825	0.001431
219.4881	0.000081
219.6936	-0.000320
219.8992	0.001178
220.1049	0.000482
220.3105	0.000798
220.5161	0.000355
220.7218	0.001515
220.9275	0.000207
221.1332	0.000461
221.3389	-0.000046
221.5446	0.000397
221.7503	0.001368
221.9561	0.000081
222.1618	0.000925
222.3676	0.000292
222.5734	0.000925
222.7792	0.000714
222.9850	0.002634
223.1909	0.001494
223.3967	0.001241
223.6026	-0.000130
223.8085	0.001368
224.0144	0.000355
224.2203	0.000756
224.4262	0.000039
224.6322	0.001157
224.8381	0.001262
225.0441	0.001241
225.2501	0.001304
225.4561	0.001072
225.6621	0.000418
225.8681	0.000418
226.0742	0.000482
226.2802	-0.000679
226.4863	0.000714
226.6924	0.001937
226.8985	-0.000510
227.1046	-0.000004
227.3107	0.001811
227.5169	-0.000236
227.7230	0.001051
227.9292	-0.000004
228.1354	-0.000383
228.3416	-0.001016
228.5478	0.000503
228.7541	0.000503
228.9603	0.002169
229.1666	0.001030
229.3729	0.000271
229.5791	0.000587
229.7855	0.000018
229.9918	0.000060
230.1981	0.000376
230.4045	-0.000214
230.6108	0.001431
230.8172	0.001874
231.0236	0.000503
231.2300	0.000440
231.4364	0.000925
231.6429	0.000081
231.8493	-0.001164
232.0558	0.000777
232.2623	0.002127
232.4688	0.000292
232.6753	0.001030
232.8818	0.002001
233.0884	0.000777
233.2949	0.000440
233.5015	0.000735
233.7081	0.001030
233.9147	0.000988
234.1213	0.000313
234.3279	0.000925
234.5346	-0.001227
234.7413	0.000629
234.9479	-0.000278
235.1546	0.001515
235.3613	0.000271
235.5680	0.000376
235.7748	0.000545
235.9815	0.001537
236.1883	0.002085
236.3951	0.000545
236.6018	0.000186
236.8087	-0.000046
237.0155	0.000988
237.2223	0.002043
237.4292	0.000756
237.6360	0.000334
237.8429	-0.000236
238.0498	0.001115
238.2567	-0.000151
238.4636	0.001494
238.6706	0.000756
238.8775	-0.000193
239.0845	-0.000236
239.2915	0.000566
239.4985	0.001030
239.7055	0.001811
239.9125	0.000798
240.1195	0.001283
240.3266	0.001410
240.5337	0.002064
240.7407	0.000587
240.9478	0.001431
241.1549	0.001051
241.3621	0.001178
241.5692	0.000735
241.7764	0.000313
241.9835	-0.000510
242.1907	0.000608
242.3979	0.001832
242.6051	0.000313
242.8124	-0.000362
243.0196	0.001895
243.2269	0.001283
243.4341	0.001157
243.6414	0.000946
243.8487	0.001621
244.0560	0.000440
244.2634	0.001283
244.4707	0.000714
244.6781	0.000693
244.8854	0.000946
245.0928	0.000714
245.3002	0.000524
245.5076	0.000904
245.7151	0.000440
245.9225	0.000440
246.1300	0.000397
246.3375	0.002380
246.5449	0.001347
246.7524	0.001452
246.9600	0.000946
247.1675	0.000735
247.3750	0.000397
247.5826	0.001579
247.7902	0.001157
247.9978	0.001326
248.2054	0.001178
248.4130	0.001452
248.6206	0.000756
248.8283	0.001304
249.0359	0.001368
249.2436	0.000693
249.4513	0.001157
249.6590	-0.000004
249.8667	-0.000172
250.0745	0.001790
250.2822	0.003013
250.4900	0.000271
250.6978	0.000482
250.9056	-0.000004
251.1134	0.000123
251.3212	0.000946
251.5290	0.000123
251.7369	0.002043
251.9447	0.000883
252.1526	0.002190
252.3605	0.002001
252.5684	0.000397
252.7763	0.001705
252.9843	0.001326
253.1922	0.001769
253.4002	-0.001016
253.6082	-0.000236
253.8162	0.000165
254.0242	0.000904
254.2322	0.001220
254.4402	-0.000004
254.6483	0.001769
254.8564	-0.000636
255.0644	0.001030
255.2725	0.001262
255.4806	0.001199
255.6888	-0.000172
255.8969	0.001136
256.1051	-0.000362
256.3132	0.001136
256.5214	0.000524
256.7296	0.002380
256.9378	0.000756
257.1460	0.001030
257.3543	0.001473
257.5625	0.001326
257.7708	0.001874
257.9791	-0.000531
258.1874	0.000440
258.3957	0.000672
258.6040	-0.000109
258.8124	0.000313
259.0207	0.000418
259.2291	0.000925
259.4375	0.000714
259.6459	0.001621
259.8543	0.002001
260.0627	-0.000088
260.2711	0.000250
260.4796	0.000861
260.6881	0.000608
260.8965	0.000735
261.1050	0.000714
261.3135	0.001537
261.5221	0.000482
261.7306	0.001684
261.9392	0.000545
262.1477	0.000714
262.3563	0.002507
262.5649	0.000461
262.7735	-0.000679
262.9822	0.001051
263.1908	0.000946
263.3995	0.001136
263.6081	0.002359
263.8168	0.001283
264.0255	-0.000657
264.2342	0.000714
264.4429	0.000397
264.6517	0.000925
264.8604	0.000714
265.0692	0.001600
265.2780	-0.000236
265.4868	0.001220
265.6956	0.001283
265.9044	0.000461
266.1133	-0.000447
266.3221	0.000482
266.5310	-0.000130
266.7399	0.000165
266.9488	0.000650
267.1577	-0.000362
267.3666	0.001199
267.5755	0.001600
267.7845	0.001326
267.9935	0.000735
268.2024	-0.000594
268.4114	0.000587
268.6205	-0.000004
268.8295	0.000313
269.0385	0.002444
269.2476	0.000482
269.4566	0.001642
269.6657	0.000672
269.8748	0.002802
270.0839	0.001473
270.2931	0.000186
270.5022	0.001874
270.7114	0.000060
270.9205	0.001115
271.1297	-0.000214
271.3389	0.000629
271.5481	0.000608
271.7573	0.000440
271.9666	-0.000151
272.1758	0.000904
272.3851	0.001051
272.5944	0.000144
272.8037	0.001389
273.0130	0.000060
273.2223	0.000355
273.4316	0.000102
273.6410	0.001368
273.8504	0.000334
274.0597	0.000123
274.2691	0.001347
274.4785	-0.000236
274.6880	-0.000172
274.8974	-0.000004
275.1069	0.000798
275.3163	0.000376
275.5258	0.000186
275.7353	-0.000320
275.9448	0.000693
276.1543	0.000587
276.3639	-0.000067
276.5734	0.000271
276.7830	0.000756
276.9926	0.000186
277.2022	0.001389
277.4118	0.001283
277.6214	0.000018
277.8310	0.000461
278.0407	0.001958
278.2503	0.000292
278.4600	0.002338
278.6697	-0.000700
278.8794	0.001916
279.0891	0.000165
279.2989	0.000587
279.5086	0.001431
279.7184	0.002296
279.9281	0.000334
280.1379	0.000967
280.3477	-0.000868
280.5576	0.002127
280.7674	0.001410
280.9772	0.001347
281.1871	-0.000236
281.3970	0.000988
281.6069	0.001684
281.8168	0.001769
282.0267	-0.000510
282.2366	-0.000172
282.4466	0.000545
282.6565	0.001009
282.8665	0.000672
283.0765	0.000925
283.2865	0.000925
283.4965	-0.000151
283.7065	-0.000425
283.9166	0.001262
284.1266	0.001093
284.3367	0.001726
284.5468	-0.000004
284.7569	0.000946
284.9670	0.000714
285.1771	-0.000172
285.3873	0.000355
285.5974	0.000672
285.8076	-0.000088
286.0178	0.001494
286.2280	0.000334
286.4382	0.001958
286.6484	-0.000362
286.8587	0.002718
287.0689	-0.000594
287.2792	0.000861
287.4895	0.001199
287.6998	0.001558
287.9101	0.001093
288.1204	0.002549
288.3308	0.001368
288.5411	0.001684
288.7515	-0.000193
288.9619	0.000524
289.1723	0.001072
289.3827	0.000819
289.5931	0.000355
289.8035	0.001389
290.0140	0.000334
290.2245	0.001115
290.4349	0.001283
290.6454	0.001051
290.8559	0.001283
291.0665	0.001136
291.2770	0.000777
291.4875	-0.000636
291.6981	0.002275
291.9087	0.000672
292.1193	0.000418
292.3299	0.000946
292.5405	0.000756
292.7511	0.002106
292.9618	0.001115
293.1724	0.000440
293.3831	0.000756
293.5938	0.001093
293.8045	0.000018
294.0152	-0.000362
294.2260	0.001494
294.4367	0.002254
294.6475	0.000461
294.8582	0.001410
295.0690	0.001537
295.2798	0.001030
295.4906	-0.000341
295.7015	0.001684
295.9123	0.001515
296.1232	0.000925
296.3340	0.001115
296.5449	0.001537
296.7558	0.000861
296.9667	-0.000531
297.1777	0.000207
297.3886	-0.000721
297.5995	0.001093
297.8105	0.001705
298.0215	0.001726
298.2325	0.002802
298.4435	-0.000531
298.6545	0.000904
298.8656	0.000355
299.0766	0.000440
299.2877	0.000186
299.4988	0.002549
299.7099	0.000060
299.9210	0.001136
300.1321	0.000819
300.3432	0.001642
300.5544	0.000376
300.7655	0.000397
300.9767	-0.000004
301.1879	0.002908
301.3991	0.001431
301.6103	0.000587
301.8215	0.000714
302.0328	0.000650
302.2441	0.000207
302.4553	-0.001248
302.6666	0.000271
302.8779	0.000482
303.0892	0.000967
303.3006	0.001241
303.5119	0.000292
303.7233	0.000229
303.9346	-0.000531
304.1460	0.000672
304.3574	0.001705
304.5688	0.000060
304.7803	0.001136
304.9917	0.002423
305.2031	0.000629
305.4146	0.001072
305.6261	0.000503
305.8376	0.001558
306.0491	0.001326
306.2606	-0.000362
306.4722	0.001747
306.6837	0.002359
306.8953	0.000250
307.1069	0.001515
307.3184	0.000440
307.5301	0.000714
307.7417	0.000207
307.9533	0.002085
308.1650	0.000735
308.3766	0.001030
308.5883	0.000798
308.8000	0.001811
309.0117	0.000904
309.2234	0.002338
309.4351	-0.000615
309.6469	0.000271
309.8586	0.001853
310.0704	0.002064
310.2822	0.000461
310.4940	0.000777
310.7058	0.002064
310.9176	0.002254
311.1295	0.001136
311.3413	0.001558
311.5532	0.000672
311.7651	0.001916
311.9770	0.000693
312.1889	0.001431
312.4008	0.002169
312.6127	0.001431
312.8247	-0.001101
313.0366	0.001705
313.2486	0.001241
313.4606	0.002486
313.6726	0.001452
313.8846	0.001558
314.0967	0.001558
314.3087	0.001663
314.5208	0.002001
314.7328	0.002212
314.9449	0.000440
315.1570	0.001515
315.3692	0.001832
315.5813	0.000777
315.7934	0.001558
316.0056	0.001368
316.2177	0.001030
316.4299	0.001199
316.6421	0.000967
316.8543	0.001157
317.0666	0.001579
317.2788	0.001093
317.4911	0.001473
317.7033	0.001452
317.9156	0.000461
318.1279	0.002570
318.3402	0.001937
318.5525	0.002338
318.7649	0.001747
318.9772	0.002570
319.1896	0.001874
319.4019	0.003266
319.6143	0.002444
319.8267	0.000693
320.0392	0.001790
320.2516	0.002739
320.4640	0.002106
320.6765	0.001600
320.8890	0.002064
321.1014	0.001368
321.3139	0.002634
321.5265	0.001642
321.7390	0.001705
321.9515	0.002296
322.1641	0.002106
322.3766	0.001958
322.5892	0.001790
322.8018	0.003245
323.0144	0.002043
323.2270	0.002380
323.4397	0.003435
323.6523	0.002591
323.8650	0.002043
324.0777	0.004785
324.2904	0.002634
324.5031	0.002549
324.7158	0.003963
324.9285	0.003098
325.1412	0.003077
325.3540	0.001916
325.5668	0.001705
325.7796	0.002106
325.9924	0.004342
326.2052	0.002507
326.4180	0.002064
326.6308	0.004469
326.8437	0.003077
327.0566	0.003182
327.2694	0.003731
327.4823	0.003520
327.6952	0.003688
327.9082	0.002971
328.1211	0.003351
328.3340	0.003857
328.5470	0.002296
328.7600	0.002992
328.9730	0.001832
329.1860	0.005081
329.3990	0.003203
329.6120	0.004701
329.8251	0.003604
330.0381	0.004026
330.2512	0.002908
330.4643	0.004174
330.6774	0.002971
330.8905	0.003836
331.1036	0.004532
331.3167	0.002106
331.5299	0.004511
331.7431	0.005038
331.9562	0.004891
332.1694	0.004701
332.3826	0.004026
332.5959	0.003984
332.8091	0.004532
333.0223	0.005038
333.2356	0.004828
333.4489	0.004849
333.6622	0.005355
333.8755	0.004026
334.0888	0.003920
334.3021	0.005313
334.5154	0.003393
334.7288	0.004237
334.9422	0.004975
335.1555	0.005608
335.3689	0.006536
335.5823	0.004701
335.7958	0.003963
336.0092	0.004363
336.2227	0.004743
336.4361	0.005165
336.6496	0.005081
336.8631	0.005840
337.0766	0.005756
337.2901	0.007022
337.5036	0.004785
337.7172	0.005249
337.9307	0.004174
338.1443	0.004996
338.3579	0.005988
338.5715	0.006642
338.7851	0.006726
338.9987	0.005186
339.2124	0.006304
339.4260	0.004638
339.6397	0.006157
339.8533	0.005925
340.0670	0.005608
340.2807	0.006283
340.4945	0.005503
340.7082	0.005861
340.9219	0.004849
341.1357	0.006958
341.3495	0.004870
341.5633	0.007443
341.7771	0.005629
341.9909	0.006663
342.2047	0.007950
342.4185	0.007697
342.6324	0.005861
342.8463	0.006114
343.0601	0.006642
343.2740	0.006895
343.4879	0.007865
343.7019	0.007443
343.9158	0.006895
344.1297	0.006621
344.3437	0.005925
344.5577	0.008351
344.7717	0.008076
344.9857	0.007443
345.1997	0.006473
345.4137	0.006958
345.6277	0.006157
345.8418	0.006473
346.0559	0.007549
346.2699	0.007739
346.4840	0.007422
346.6981	0.008815
346.9123	0.007232
347.1264	0.007802
347.3406	0.006916
347.5547	0.009194
347.7689	0.007676
347.9831	0.009089
348.1973	0.007612
348.4115	0.008941
348.6257	0.009891
348.8400	0.008203
349.0542	0.007022
349.2685	0.006705
349.4828	0.008034
349.6971	0.008983
349.9114	0.007022
350.1257	0.007338
350.3400	0.009005
350.5544	0.008625
350.7687	0.008308
350.9831	0.009848
351.1975	0.009237
351.4119	0.008203
351.6263	0.008161
351.8407	0.009258
352.0552	0.009068
352.2696	0.009785
352.4841	0.007654
352.6986	0.009574
352.9131	0.008941
353.1276	0.009047
353.3421	0.009131
353.5566	0.008055
353.7712	0.010144
353.9858	0.009595
354.2003	0.009806
354.4149	0.009110
354.6295	0.009616
354.8441	0.009469
355.0588	0.008815
355.2734	0.010102
355.4881	0.010502
355.7027	0.010481
355.9174	0.009827
356.1321	0.009891
356.3468	0.010144
356.5615	0.009637
356.7763	0.009300
356.9910	0.009574
357.2058	0.009448
357.4206	0.011009
357.6353	0.010692
357.8501	0.009405
358.0650	0.011009
358.2798	0.010397
358.4946	0.010355
358.7095	0.009553
358.9243	0.010123
359.1392	0.010545
359.3541	0.009764
359.5690	0.011431
359.7839	0.011684
359.9989	0.011051
360.2138	0.011304
360.4288	0.011009
360.6438	0.011114
360.8587	0.011114
361.0737	0.011388
361.2888	0.010650
361.5038	0.011388
361.7188	0.011410
361.9339	0.010038
362.1489	0.010819
362.3640	0.010502
362.5791	0.011831
362.7942	0.010798
363.0093	0.012042
363.2245	0.010587
363.4396	0.011051
363.6548	0.010123
363.8699	0.010671
364.0851	0.010481
364.3003	0.011410
364.5155	0.010439
364.7308	0.009848
364.9460	0.011452
365.1612	0.011241
365.3765	0.011325
365.5918	0.011325
365.8071	0.010313
366.0224	0.012338
366.2377	0.012865
366.4530	0.011515
366.6684	0.011768
366.8837	0.010967
367.0991	0.013287
367.3145	0.011705
367.5299	0.012338
367.7453	0.014025
367.9607	0.012148
368.1761	0.014468
368.3916	0.011937
368.6070	0.012485
368.8225	0.012422
369.0380	0.014004
369.2535	0.013393
369.4690	0.012739
369.6845	0.013709
369.9001	0.013941
370.1156	0.012718
370.3312	0.014616
370.5468	0.012359
370.7624	0.013941
370.9780	0.014342
371.1936	0.015671
371.4092	0.013878
371.6249	0.014152
371.8405	0.013350
372.0562	0.014827
372.2719	0.014131
372.4876	0.014363
372.7033	0.012675
372.9190	0.014511
373.1348	0.014384
373.3505	0.014553
373.5663	0.012000
373.7820	0.016346
373.9978	0.014764
374.2136	0.015629
374.4294	0.016346
374.6453	0.016030
374.8611	0.014806
375.0770	0.017021
375.2928	0.016768
375.5087	0.018392
375.7246	0.016304
375.9405	0.017654
376.1564	0.017675
376.3724	0.016831
376.5883	0.018899
376.8043	0.017084
377.0203	0.016620
377.2362	0.017316
377.4522	0.017274
377.6682	0.018878
377.8843	0.018245
378.1003	0.017992
378.3164	0.018878
378.5324	0.018181
378.7485	0.020882
378.9646	0.019510
379.1807	0.020059
379.3968	0.021430
379.6129	0.020164
379.8291	0.020818
380.0452	0.021599
380.2614	0.020270
380.4776	0.019215
380.6938	0.023055
380.9100	0.022000
381.1262	0.021219
381.3424	0.019700
381.5587	0.021135
381.7749	0.021219
381.9912	0.022422
382.2075	0.022527
382.4238	0.022084
382.6401	0.021494
382.8564	0.022169
383.0728	0.023751
383.2891	0.020903
383.5055	0.020502
383.7219	0.021641
383.9382	0.022358
384.1546	0.025080
384.3711	0.023561
384.5875	0.023645
384.8039	0.022126
385.0204	0.024721
385.2368	0.024152
385.4533	0.022823
385.6698	0.023688
385.8863	0.025122
386.1028	0.024173
386.3194	0.022970
386.5359	0.024320
386.7525	0.023751
386.9690	0.025354
387.1856	0.024827
387.4022	0.025671
387.6188	0.027211
387.8355	0.027021
388.0521	0.027379
388.2687	0.026008
388.4854	0.025206
388.7021	0.025818
388.9188	0.027822
389.1355	0.025860
389.3522	0.025586
389.5689	0.024742
389.7856	0.025924
390.0024	0.025755
390.2192	0.026915
390.4359	0.024616
390.6527	0.027611
390.8695	0.026536
391.0863	0.026282
391.3032	0.028413
391.5200	0.028687
391.7369	0.028687
391.9537	0.029531
392.1706	0.028730
392.3875	0.031746
392.6044	0.031535
392.8213	0.031789
393.0383	0.033118
393.2552	0.032928
393.4722	0.031071
393.6891	0.029130
393.9061	0.031535
394.1231	0.029552
394.3401	0.030375
394.5572	0.033033
394.7742	0.028814
394.9912	0.030945
395.2083	0.031261
395.4254	0.032210
395.6425	0.030185
395.8596	0.030206
396.0767	0.031282
396.2938	0.032063
396.5109	0.029953
396.7281	0.032569
396.9453	0.032864
397.1624	0.034299
397.3796	0.032569
397.5968	0.034362
397.8140	0.034236
398.0313	0.034826
398.2485	0.035164
398.4658	0.038455
398.6830	0.037949
398.9003	0.038497
399.1176	0.037569
399.3349	0.037316
399.5522	0.036641
399.7696	0.036198
399.9869	0.035839
400.2043	0.035269
400.4216	0.035248
400.6390	0.035122
400.8564	0.035776
401.0738	0.036704
401.2912	0.035227
401.5087	0.035354
401.7261	0.033814
401.9436	0.034468
402.1610	0.034362
402.3785	0.034510
402.5960	0.033455
402.8135	0.035333
403.0310	0.035143
403.2486	0.033666
403.4661	0.035016
403.6837	0.034911
403.9013	0.037463
404.1189	0.035818
404.3365	0.037168
404.5541	0.036873
404.7717	0.035586
404.9893	0.037843
405.2070	0.037231
405.4246	0.036662
405.6423	0.037759
405.8600	0.037421
406.0777	0.038223
406.2954	0.036177
406.5131	0.037063
406.7309	0.036430
406.9486	0.036598
407.1664	0.034805
407.3842	0.033518
407.6020	0.036261
407.8198	0.036155
408.0376	0.034679
408.2554	0.036261
408.4733	0.036303
408.6911	0.036240
408.9090	0.036134
409.1269	0.035586
409.3448	0.035733
409.5627	0.036894
409.7806	0.036957
409.9985	0.036767
410.2165	0.036177
410.4344	0.034826
410.6524	0.035755
410.8704	0.035290
411.0884	0.033265
411.3064	0.035480
411.5244	0.034341
411.7424	0.037020
411.9605	0.034869
412.1785	0.035818
412.3966	0.037759
412.6147	0.036704
412.8328	0.036198
413.0509	0.037484
413.2690	0.037759
413.4871	0.037632
413.7053	0.037421
413.9234	0.039826
414.1416	0.037738
414.3598	0.037632
414.5780	0.036957
414.7962	0.039088
415.0144	0.036556
415.2326	0.038117
415.4509	0.037843
415.6692	0.036746
415.8874	0.036662
416.1057	0.037632
416.3240	0.037906
416.5423	0.036282
416.7606	0.038138
416.9790	0.036894
417.1973	0.036113
417.4157	0.039299
417.6341	0.036535
417.8524	0.037695
418.0708	0.036219
418.2893	0.036345
418.5077	0.038898
418.7261	0.038455
418.9446	0.036873
419.1630	0.039911
419.3815	0.039383
419.6000	0.038898
419.8185	0.037632
420.0370	0.037759
420.2555	0.038392
420.4741	0.043370
420.6926	0.041282
420.9112	0.042168
421.1298	0.042337
421.3483	0.046092
421.5669	0.046915
421.7856	0.048476
422.0042	0.046092
422.2228	0.044953
422.4415	0.045585
422.6601	0.045607
422.8788	0.046261
423.0975	0.046999
423.3162	0.044636
423.5349	0.048012
423.7536	0.044953
423.9724	0.043961
424.1911	0.042316
424.4099	0.043919
424.6287	0.040944
424.8475	0.042716
425.0663	0.044573
425.2851	0.041303
425.5039	0.043328
425.7228	0.042484
425.9416	0.039489
426.1605	0.039299
426.3793	0.037442
426.5982	0.039847
426.8171	0.039974
427.0361	0.039468
427.2550	0.043645
427.4739	0.044467
427.6929	0.041071
427.9118	0.041662
428.1308	0.041619
428.3498	0.040986
428.5688	0.041873
428.7878	0.040100
429.0068	0.039425
429.2259	0.043370
429.4449	0.044931
429.6640	0.046809
429.8831	0.048708
430.1022	0.048138
430.3213	0.049130
430.5404	0.052083
430.7595	0.047358
430.9787	0.046915
431.1978	0.048518
431.4170	0.045480
431.6362	0.042210
431.8553	0.040691
432.0745	0.039446
432.2938	0.041261
432.5130	0.041282
432.7322	0.038645
432.9515	0.041767
433.1707	0.039489
433.3900	0.039889
433.6093	0.046197
433.8286	0.050480
434.0479	0.047189
434.2673	0.048982
434.4866	0.045649
434.7059	0.042400
434.9253	0.041514
435.1447	0.044510
435.3641	0.041472
435.5835	0.043307
435.8029	0.044784
436.0223	0.043750
436.2418	0.044657
436.4612	0.045037
436.6807	0.046176
436.9001	0.046535
437.1196	0.044256
437.3391	0.044931
437.5586	0.043476
437.7782	0.042168
437.9977	0.043581
438.2173	0.046598
438.4368	0.045564
438.6564	0.046872
438.8760	0.048138
439.0956	0.048834
439.3152	0.049130
439.5348	0.046429
439.7545	0.046915
439.9741	0.045649
440.1938	0.046282
440.4135	0.044847
440.6331	0.045754
440.8528	0.048244
441.0725	0.048623
441.2923	0.051513
441.5120	0.058433
441.7318	0.056766
441.9515	0.055458
442.1713	0.054952
442.3911	0.056724
442.6109	0.052505
442.8307	0.053096
443.0505	0.053286
443.2703	0.054615
443.4902	0.056176
443.7101	0.057041
443.9299	0.055353
444.1498	0.056408
444.3697	0.057294
444.5896	0.055712
444.8095	0.054298
445.0295	0.055564
445.2494	0.055859
445.4694	0.055838
445.6894	0.053644
445.9093	0.052252
446.1293	0.053560
446.3493	0.055817
446.5694	0.055121
446.7894	0.055332
447.0094	0.053307
447.2295	0.055501
447.4496	0.052125
447.6696	0.053623
447.8897	0.054151
448.1098	0.053011
448.3300	0.050522
448.5501	0.052442
448.7702	0.052083
448.9904	0.052906
449.2106	0.053918
449.4307	0.054087
449.6509	0.049488
449.8711	0.050965
450.0914	0.050691
450.3116	0.053876
450.5318	0.053370
450.7521	0.054129
450.9724	0.052695
451.1926	0.051830
451.4129	0.047526
451.6332	0.048560
451.8535	0.051113
452.0739	0.050332
452.2942	0.050817
452.5146	0.050965
452.7349	0.051324
452.9553	0.050796
453.1757	0.049383
453.3961	0.048476
453.6165	0.049467
453.8369	0.050416
454.0574	0.048265
454.2778	0.048855
454.4983	0.048370
454.7188	0.049298
454.9393	0.047252
455.1597	0.049910
455.3803	0.051366
455.6008	0.052189
455.8213	0.050838
456.0419	0.048982
456.2624	0.047020
456.4830	0.049298
456.7036	0.047168
456.9242	0.047547
457.1448	0.051366
457.3654	0.050395
457.5860	0.049995
457.8067	0.052167
458.0274	0.053412
458.2480	0.054467
458.4687	0.053855
458.6894	0.055648
458.9101	0.056577
459.1308	0.054066
459.3516	0.054277
459.5723	0.053054
459.7931	0.053707
460.0138	0.055585
460.2346	0.054361
460.4554	0.050649
460.6762	0.053011
460.8970	0.053243
461.1178	0.048961
461.3387	0.050206
461.5595	0.053454
461.7804	0.051134
462.0013	0.050923
462.2222	0.048476
462.4431	0.046746
462.6640	0.049235
462.8849	0.049341
463.1059	0.049552
463.3268	0.049362
463.5478	0.051134
463.7687	0.050923
463.9897	0.052062
464.2107	0.054298
464.4317	0.053813
464.6528	0.056323
464.8738	0.055669
465.0948	0.056661
465.3159	0.056788
465.5370	0.060775
465.7581	0.062462
465.9792	0.061112
466.2003	0.058623
466.4214	0.055458
466.6425	0.052189
466.8637	0.051535
467.0848	0.049868
467.3060	0.050564
467.5272	0.048813
467.7484	0.047948
467.9696	0.049425
468.1908	0.048687
468.4120	0.048813
468.6333	0.050079
468.8545	0.048117
469.0758	0.046598
469.2970	0.046577
469.5183	0.045185
469.7396	0.045311
469.9610	0.044552
470.1823	0.041936
470.4036	0.041408
470.6250	0.042548
470.8463	0.043919
471.0677	0.042611
471.2891	0.041514
471.5105	0.042991
471.7319	0.042716
471.9533	0.044573
472.1748	0.044235
472.3962	0.044974
472.6177	0.043708
472.8391	0.043096
473.0606	0.047421
473.2821	0.046176
473.5036	0.047716
473.7251	0.049362
473.9467	0.048687
474.1682	0.046155
474.3898	0.048244
474.6113	0.045480
474.8329	0.047737
475.0545	0.048286
475.2761	0.051324
475.4977	0.052294
475.7193	0.052273
475.9410	0.050944
476.1626	0.047484
476.3843	0.049573
476.6060	0.050459
476.8277	0.048455
477.0494	0.047294
477.2711	0.047843
477.4928	0.045374
477.7145	0.049720
477.9363	0.050206
478.1580	0.052843
478.3798	0.052632
478.6016	0.048054
478.8234	0.049003
479.0452	0.050543
479.2670	0.052273
479.4888	0.048876
479.7107	0.050416
479.9325	0.052505
480.1544	0.054615
480.3763	0.054319
480.5982	0.053750
480.8201	0.052505
481.0420	0.050691
481.2639	0.054425
481.4859	0.051598
481.7078	0.055944
481.9298	0.053159
482.1517	0.052463
482.3737	0.054636
482.5957	0.054172
482.8177	0.051914
483.0398	0.051956
483.2618	0.052864
483.4838	0.050691
483.7059	0.053961
483.9280	0.052421
484.1501	0.054847
484.3721	0.058644
484.5943	0.059720
484.8164	0.060922
485.0385	0.061323
485.2606	0.061998
485.4828	0.087250
485.7050	0.137586
485.9271	0.196318
486.1493	0.202984
486.3715	0.169463
486.5937	0.137164
486.8160	0.115076
487.0382	0.112714
487.2605	0.101786
487.4827	0.084487
487.7050	0.071407
487.9273	0.060775
488.1496	0.058539
488.3719	0.057104
488.5942	0.055205
488.8165	0.056112
489.0389	0.053623
489.2612	0.052843
489.4836	0.053011
489.7060	0.055374
489.9284	0.056724
490.1508	0.054952
490.3732	0.053180
490.5956	0.053855
490.8180	0.055775
491.0405	0.052632
491.2630	0.054129
491.4854	0.052864
491.7079	0.050290
491.9304	0.052125
492.1529	0.054277
492.3755	0.050332
492.5980	0.052695
492.8205	0.052210
493.0431	0.053096
493.2657	0.053876
493.4882	0.054383
493.7108	0.055015
493.9334	0.051176
494.1561	0.056302
494.3787	0.056977
494.6013	0.054361
494.8240	0.055015
495.0466	0.054129
495.2693	0.051281
495.4920	0.050459
495.7147	0.050311
495.9374	0.051471
496.1601	0.055901
496.3829	0.057863
496.6056	0.057969
496.8284	0.060458
497.0511	0.058391
497.2739	0.053454
497.4967	0.053032
497.7195	0.051113
497.9423	0.051155
498.1652	0.051872
498.3880	0.051176
498.6109	0.051598
498.8337	0.054530
499.0566	0.053644
499.2795	0.055437
499.5024	0.055944
499.7253	0.056492
499.9482	0.058855
500.1712	0.056155
500.3941	0.055374
500.6171	0.051999
500.8400	0.050501
501.0630	0.053370
501.2860	0.052547
501.5090	0.057737
501.7320	0.057716
501.9551	0.056809
502.1781	0.057906
502.4012	0.054235
502.6242	0.057336
502.8473	0.056492
503.0704	0.056703
503.2935	0.058117
503.5166	0.057758
503.7397	0.056809
503.9628	0.058117
504.1860	0.052041
504.4092	0.052505
504.6323	0.052083
504.8555	0.050332
505.0787	0.052357
505.3019	0.053096
505.5251	0.052252
505.7483	0.054783
505.9716	0.052821
506.1948	0.050986
506.4181	0.055121
506.6414	0.056176
506.8647	0.056155
507.0880	0.050817
507.3113	0.050522
507.5346	0.049931
507.7579	0.050058
507.9813	0.048961
508.2046	0.050269
508.4280	0.050501
508.6514	0.051682
508.8748	0.052843
509.0982	0.048391
509.3216	0.051260
509.5450	0.050163
509.7685	0.051176
509.9919	0.048961
510.2154	0.048560
510.4388	0.049214
510.6623	0.049425
510.8858	0.050986
511.1093	0.048096
511.3329	0.048222
511.5564	0.048898
511.7799	0.049109
512.0035	0.050163
512.2270	0.045585
512.4506	0.046239
512.6742	0.045564
512.8978	0.047273
513.1214	0.048138
513.3451	0.046429
513.5687	0.047104
513.7923	0.047231
514.0160	0.044425
514.2397	0.048012
514.4634	0.046978
514.6871	0.046176
514.9108	0.045796
515.1345	0.044573
515.3582	0.041493
515.5819	0.041113
515.8057	0.042569
516.0295	0.042105
516.2532	0.044742
516.4770	0.043307
516.7008	0.044193
516.9246	0.045332
517.1485	0.045923
517.3723	0.044868
517.5961	0.042970
517.8200	0.041219
518.0439	0.042463
518.2677	0.040965
518.4916	0.041978
518.7155	0.042885
518.9395	0.040733
519.1634	0.041366
519.3873	0.044088
519.6113	0.041809
519.8352	0.042526
520.0592	0.041345
520.2832	0.041155
520.5072	0.039636
520.7312	0.039847
520.9552	0.038940
521.1792	0.038919
521.4033	0.040438
521.6273	0.040522
521.8514	0.038581
522.0755	0.037949
522.2996	0.037168
522.5237	0.037843
522.7478	0.038835
522.9719	0.041008
523.1960	0.037084
523.4202	0.036746
523.6443	0.039088
523.8685	0.039763
524.0927	0.041451
524.3169	0.039109
524.5411	0.039826
524.7653	0.039953
524.9895	0.040754
525.2138	0.038138
525.4380	0.037653
525.6623	0.038455
525.8865	0.037906
526.1108	0.037506
526.3351	0.039320
526.5594	0.037885
526.7837	0.038117
527.0081	0.038286
527.2324	0.041366
527.4568	0.038286
527.6811	0.038687
527.9055	0.037442
528.1299	0.039299
528.3543	0.038539
528.5787	0.041261
528.8031	0.044003
529.0276	0.043729
529.2520	0.041662
529.4765	0.040649
529.7009	0.042548
529.9254	0.039742
530.1499	0.038518
530.3744	0.040227
530.5989	0.038371
530.8234	0.038476
531.0480	0.038349
531.2725	0.038223
531.4971	0.036113
531.7217	0.038603
531.9462	0.038160
532.1708	0.039531
532.3954	0.039193
532.6200	0.038476
532.8447	0.039805
533.0693	0.042083
533.2940	0.045691
533.5186	0.044657
533.7433	0.048455
533.9680	0.048033
534.1927	0.046113
534.4174	0.046261
534.6421	0.046704
534.8668	0.049889
535.0916	0.047547
535.3163	0.049214
535.5411	0.048560
535.7659	0.047632
535.9907	0.043075
536.2155	0.044826
536.4403	0.043180
536.6651	0.042083
536.8899	0.040143
537.1148	0.042400
537.3396	0.040986
537.5645	0.042442
537.7894	0.043518
538.0143	0.045649
538.2392	0.046598
538.4641	0.046450
538.6890	0.044256
538.9139	0.048940
539.1389	0.048497
539.3638	0.048138
539.5888	0.048834
539.8138	0.047990
540.0388	0.047801
540.2638	0.047505
540.4888	0.046978
540.7138	0.045712
540.9389	0.047379
541.1639	0.048370
541.3890	0.049741
541.6140	0.046514
541.8391	0.049151
542.0642	0.048138
542.2893	0.048539
542.5144	0.050585
542.7396	0.048244
542.9647	0.047400
543.1899	0.046577
543.4150	0.048518
543.6402	0.049130
543.8654	0.051872
544.0906	0.054024
544.3158	0.053180
544.5410	0.050121
544.7662	0.052589
544.9915	0.051028
545.2167	0.054826
545.4420	0.052231
545.6673	0.052020
545.8926	0.049319
546.1179	0.048222
546.3432	0.045923
546.5685	0.047062
546.7938	0.048433
547.0192	0.047801
547.2445	0.048455
547.4699	0.050838
547.6953	0.053412
547.9206	0.057842
548.1460	0.060606
548.3715	0.058475
548.5969	0.058686
548.8223	0.056218
549.0478	0.055100
549.2732	0.053307
549.4987	0.052189
549.7242	0.050986
549.9496	0.051661
550.1751	0.050649
550.4007	0.051408
550.6262	0.048623
550.8517	0.047294
551.0773	0.045902
551.3028	0.045206
551.5284	0.044826
551.7540	0.047104
551.9796	0.050838
552.2052	0.054467
552.4308	0.057273
552.6564	0.056914
552.8820	0.053159
553.1077	0.053665
553.3333	0.052167
553.5590	0.053117
553.7847	0.054045
554.0104	0.055269
554.2361	0.054551
554.4618	0.051408
554.6875	0.050416
554.9132	0.049045
555.1390	0.050395
555.3648	0.051767
555.5905	0.056007
555.8163	0.056724
556.0421	0.057062
556.2679	0.055606
556.4937	0.055838
556.7195	0.053328
556.9454	0.051429
557.1712	0.053454
557.3971	0.052695
557.6230	0.052674
557.8488	0.053264
558.0747	0.050902
558.3006	0.050353
558.5266	0.049362
558.7525	0.048834
558.9784	0.048455
559.2044	0.047526
559.4303	0.047273
559.6563	0.048813
559.8823	0.050733
560.1083	0.052167
560.3343	0.055775
560.5603	0.055311
560.7863	0.059066
561.0124	0.059488
561.2384	0.063011
561.4645	0.062441
561.6905	0.063011
561.9166	0.059614
562.1427	0.059720
562.3688	0.059994
562.5949	0.057990
562.8211	0.058686
563.0472	0.059214
563.2733	0.060606
563.4995	0.059277
563.7257	0.060015
563.9519	0.057589
564.1781	0.061049
564.4043	0.064424
564.6305	0.063897
564.8567	0.061661
565.0829	0.063686
565.3092	0.068158
565.5355	0.064467
565.7617	0.061281
565.9880	0.062673
566.2143	0.064108
566.4406	0.066639
566.6669	0.067357
566.8932	0.067652
567.1196	0.071070
567.3459	0.079361
567.5723	0.082441
567.7987	0.082230
568.0250	0.083263
568.2514	0.086807
568.4778	0.090563
568.7043	0.093748
568.9307	0.101786
569.1571	0.104908
569.3836	0.114043
569.6100	0.122988
569.8365	0.138831
570.0630	0.145750
570.2895	0.152185
570.5160	0.151868
570.7425	0.155033
570.9690	0.156974
571.1956	0.167690
571.4221	0.174462
571.6487	0.178091
571.8752	0.183913
572.1018	0.191614
572.3284	0.186339
572.5550	0.174209
572.7816	0.165771
573.0082	0.159294
573.2349	0.168935
573.4615	0.186361
573.6882	0.200453
573.9149	0.207372
574.1415	0.213090
574.3682	0.223258
574.5949	0.230009
574.8216	0.226486
575.0484	0.228405
575.2751	0.231232
575.5018	0.228785
575.7286	0.217583
575.9554	0.204862
576.1821	0.200453
576.4089	0.208976
576.6357	0.220347
576.8626	0.234059
577.0894	0.238911
577.3162	0.235452
577.5431	0.246949
577.7699	0.275977
577.9968	0.310132
578.2237	0.308466
578.4505	0.281188
578.6774	0.269627
578.9044	0.248447
579.1313	0.238131
579.3582	0.237435
579.5851	0.250367
579.8121	0.248974
580.0391	0.258974
580.2660	0.255620
580.4930	0.257307
580.7200	0.243468
580.9470	0.249375
581.1741	0.296061
581.4011	0.355257
581.6281	0.387851
581.8552	0.393652
582.0822	0.377514
582.3093	0.366290
582.5364	0.344245
582.7635	0.308170
582.9906	0.286146
583.2177	0.267180
583.4449	0.248405
583.6720	0.230599
583.8991	0.226085
584.1263	0.227667
584.3535	0.230684
584.5807	0.233363
584.8079	0.243932
585.0351	0.262391
585.2623	0.270978
585.4895	0.272349
585.7167	0.275260
585.9440	0.265471
586.1713	0.248130
586.3985	0.233342
586.6258	0.229861
586.8531	0.232899
587.0804	0.248848
587.3077	0.261780
587.5350	0.266843
587.7624	0.255767
587.9897	0.248236
588.2171	0.231253
588.4445	0.230220
588.6718	0.225726
588.8992	0.216381
589.1266	0.205157
589.3540	0.190158
589.5815	0.184420
589.8089	0.185116
590.0363	0.182521
590.2638	0.179736
590.4913	0.167585
590.7187	0.164695
590.9462	0.150919
591.1737	0.146172
591.4012	0.143957
591.6288	0.144801
591.8563	0.149948
592.0838	0.147269
592.3114	0.151763
592.5389	0.173091
592.7665	0.203470
592.9941	0.221887
593.2217	0.227456
593.4493	0.225789
593.6769	0.225958
593.9046	0.211634
594.1322	0.201065
594.3598	0.194272
594.5875	0.187711
594.8152	0.203406
595.0429	0.217351
595.2705	0.217921
595.4983	0.212056
595.7260	0.202731
595.9537	0.190495
596.1814	0.178386
596.4092	0.162459
596.6369	0.160265
596.8647	0.154716
597.0925	0.159589
597.3203	0.162585
597.5481	0.168935
597.7759	0.163830
598.0037	0.158239
598.2315	0.150687
598.4594	0.153683
598.6872	0.169906
598.9151	0.191065
599.1430	0.203238
599.3709	0.200010
599.5988	0.193829
599.8267	0.187120
600.0546	0.196972
600.2825	0.202520
600.5105	0.200326
600.7384	0.197056
600.9664	0.201128
601.1944	0.203174
601.4223	0.199947
601.6503	0.194040
601.8783	0.182943
602.1064	0.182226
602.3344	0.179715
602.5624	0.177099
602.7905	0.181150
603.0185	0.186382
603.2466	0.193554
603.4747	0.200896
603.7028	0.201845
603.9309	0.194905
604.1590	0.185896
604.3871	0.181635
604.6152	0.176720
604.8434	0.165433
605.0715	0.165370
605.2997	0.166889
605.5279	0.175538
605.7561	0.180137
605.9843	0.186846
606.2125	0.187268
606.4407	0.174969
606.6689	0.168387
606.8972	0.164252
607.1254	0.164526
607.3537	0.169800
607.5819	0.172395
607.8102	0.168534
608.0385	0.162775
608.2668	0.161362
608.4951	0.155117
608.7235	0.153493
608.9518	0.150392
609.1801	0.144316
609.4085	0.141172
609.6369	0.140054
609.8653	0.145919
610.0936	0.158492
610.3220	0.160180
610.5505	0.156087
610.7789	0.148725
611.0073	0.146489
611.2357	0.145750
611.4642	0.145413
611.6927	0.147607
611.9211	0.144738
612.1496	0.136510
612.3781	0.133388
612.6066	0.134780
612.8351	0.136658
613.0637	0.135392
613.2922	0.133620
613.5208	0.131405
613.7493	0.132101
613.9779	0.133852
614.2065	0.137670
614.4351	0.133873
614.6637	0.132185
614.8923	0.132734
615.1209	0.127819
615.3495	0.132924
615.5782	0.136890
615.8068	0.136384
616.0355	0.131764
616.2642	0.123304
616.4929	0.121321
616.7216	0.115076
616.9503	0.114823
617.1790	0.110182
617.4077	0.117924
617.6365	0.113853
617.8652	0.114127
618.0940	0.118178
618.3227	0.108769
618.5515	0.105815
618.7803	0.099739
619.0091	0.095541
619.2379	0.096216
619.4667	0.092968
619.6956	0.096828
619.9244	0.100182
620.1533	0.100815
620.3821	0.103642
620.6110	0.100984
620.8399	0.093115
621.0688	0.081723
621.2977	0.078411
621.5266	0.076597
621.7556	0.078496
621.9845	0.083896
622.2135	0.083917
622.4424	0.086006
622.6714	0.086829
622.9004	0.089381
623.1294	0.091575
623.3584	0.093875
623.5874	0.094571
623.8164	0.093242
624.0454	0.091765
624.2745	0.088854
624.5035	0.094529
624.7326	0.094107
624.9617	0.096048
625.1908	0.088664
625.4199	0.086702
625.6490	0.083284
625.8781	0.081744
626.1072	0.079614
626.3364	0.077272
626.5655	0.076829
626.7947	0.073475
627.0238	0.071892
627.2530	0.075732
627.4822	0.074023
627.7114	0.070753
627.9406	0.067357
628.1698	0.067125
628.3991	0.062146
628.6283	0.060943
628.8576	0.062547
629.0868	0.062884
629.3161	0.065078
629.5454	0.065648
629.7747	0.066239
630.0040	0.063348
630.2333	0.064066
630.4626	0.059509
630.6920	0.059193
630.9213	0.057125
631.1507	0.057378
631.3801	0.055669
631.6094	0.055606
631.8388	0.055691
632.0682	0.054361
632.2976	0.054172
632.5271	0.053117
632.7565	0.051007
632.9859	0.048117
633.2154	0.047379
633.4448	0.044362
633.6743	0.046050
633.9038	0.049446
634.1333	0.044446
634.3628	0.045374
634.5923	0.043413
634.8218	0.043792
635.0514	0.043244
635.2809	0.042632
635.5105	0.041999
635.7400	0.042358
635.9696	0.044573
636.1992	0.043982
636.4288	0.045839
636.6584	0.048455
636.8880	0.047273
637.1177	0.046893
637.3473	0.042864
637.5770	0.043687
637.8066	0.042927
638.0363	0.041029
638.2660	0.043877
638.4957	0.043602
638.7254	0.044404
638.9551	0.046218
639.1848	0.042716
639.4145	0.040986
639.6443	0.040484
639.8740	0.041305
640.1038	0.039580
640.3336	0.038728
640.5633	0.039295
640.7931	0.036406
641.0229	0.037109
641.2528	0.035515
641.4826	0.034104
641.7124	0.033314
641.9423	0.034386
642.1721	0.032603
642.4020	0.032900
642.6319	0.031497
642.8617	0.030869
643.0916	0.031831
643.3216	0.028847
643.5515	0.032400
643.7814	0.029531
644.0113	0.031606
644.2413	0.029630
644.4712	0.028595
644.7012	0.026964
644.9312	0.029124
645.1612	0.030191
645.3912	0.027660
645.6212	0.026724
645.8512	0.028471
646.0812	0.028550
646.3113	0.027018
646.5413	0.025080
646.7714	0.026603
647.0015	0.025529
647.2316	0.026349
647.4616	0.024662
647.6918	0.027242
647.9219	0.029246
648.1520	0.031816
648.3821	0.031319
648.6123	0.032553
648.8424	0.035346
649.0726	0.035001
649.3028	0.035153
649.5329	0.034623
649.7631	0.036290
649.9933	0.034968
650.2236	0.032128
650.4538	0.030693
650.6840	0.031674
650.9143	0.030256
651.1445	0.031584
651.3748	0.029771
651.6051	0.031560
651.8354	0.030983
652.0657	0.032051
652.2960	0.032532
652.5263	0.031292
652.7566	0.033807
652.9870	0.032944
653.2173	0.032072
653.4477	0.031129
653.6780	0.034732
653.9084	0.032499
654.1388	0.035549
654.3692	0.035277
654.5996	0.038709
654.8300	0.042731
655.0605	0.065172
655.2909	0.185501
655.5213	0.526762
655.7518	0.985649
655.9823	1.000000
656.2128	1.000000
656.4433	1.000000
656.6738	1.000000
656.9043	1.000000
657.1348	0.890263
657.3653	0.725386
657.5959	0.619385
657.8264	0.538959
658.0570	0.489712
658.2875	0.451397
658.5181	0.413536
658.7487	0.385860
658.9793	0.366028
659.2099	0.324791
659.4406	0.234532
659.6712	0.150252
659.9018	0.089744
660.1325	0.056437
660.3632	0.039029
660.5938	0.031538
660.8245	0.026064
661.0552	0.025222
661.2859	0.025029
661.5166	0.025148
661.7474	0.024038
661.9781	0.025535
662.2088	0.025080
662.4396	0.023042
662.6704	0.021619
662.9011	0.022574
663.1319	0.020971
663.3627	0.023899
663.5935	0.021066
663.8243	0.022657
664.0552	0.023294
664.2860	0.024786
664.5168	0.024534
664.7477	0.022969
664.9786	0.023389
665.2094	0.024248
665.4403	0.023401
665.6712	0.025390
665.9021	0.025044
666.1330	0.025138
666.3640	0.023009
666.5949	0.021575
666.8259	0.020933
667.0568	0.021551
667.2878	0.022854
667.5188	0.021789
667.7497	0.021155
667.9807	0.023447
668.2117	0.022388
668.4428	0.020460
668.6738	0.020101
668.9048	0.020903
669.1359	0.021747
669.3669	0.023856
669.5980	0.024215
669.8291	0.022633
670.0602	0.023160
670.2913	0.023561
670.5224	0.022675
670.7535	0.021726
670.9846	0.022928
671.2157	0.024384
671.4469	0.028097
671.6781	0.030270
671.9092	0.031240
672.1404	0.034826
672.3716	0.034805
672.6028	0.035712
672.8340	0.033877
673.0652	0.033518
673.2964	0.035269
673.5277	0.032274
673.7589	0.031219
673.9902	0.028877
674.2214	0.028983
674.4527	0.031029
674.6840	0.028434
674.9153	0.027759
675.1466	0.026725
675.3779	0.028371
675.6093	0.028983
675.8406	0.026008
676.0719	0.026747
676.3033	0.026093
676.5347	0.026388
676.7661	0.024616
676.9974	0.024278
677.2288	0.024447
677.4602	0.027190
677.6917	0.030839
677.9231	0.029510
678.1545	0.030101
678.3860	0.032210
678.6174	0.029426
678.8489	0.032253
679.0804	0.030691
679.3119	0.033455
679.5434	0.036113
679.7749	0.035185
680.0064	0.037063
680.2379	0.036873
680.4694	0.034953
680.7010	0.036050
680.9325	0.033455
681.1641	0.034679
681.3957	0.034953
681.6273	0.035312
681.8589	0.035501
682.0905	0.031177
682.3221	0.034953
682.5537	0.033518
682.7854	0.030417
683.0170	0.028835
683.2487	0.031662
683.4803	0.031683
683.7120	0.033603
683.9437	0.034025
684.1754	0.035143
684.4071	0.033582
684.6388	0.037548
684.8705	0.038708
685.1023	0.044088
685.3340	0.046134
685.5658	0.044510
685.7975	0.047568
686.0293	0.045543
686.2611	0.045374
686.4929	0.047990
686.7247	0.043602
686.9565	0.044045
687.1883	0.042548
687.4202	0.047147
687.6520	0.045754
687.8838	0.044341
688.1157	0.039594
688.3476	0.040965
688.5795	0.040501
688.8114	0.037337
689.0433	0.038560
689.2752	0.039193
689.5071	0.037674
689.7390	0.036261
689.9710	0.035290
690.2029	0.035670
690.4349	0.033603
690.6669	0.034763
690.8988	0.036641
691.1308	0.038349
691.3628	0.040248
691.5948	0.038750
691.8269	0.037442
692.0589	0.037674
692.2909	0.038792
692.5230	0.040649
692.7550	0.036683
692.9871	0.041725
693.2192	0.039446
693.4513	0.041957
693.6834	0.042780
693.9155	0.039889
694.1476	0.035987
694.3797	0.036767
694.6119	0.033244
694.8440	0.034573
695.0762	0.037147
695.3083	0.035480
695.5405	0.032590
695.7727	0.033012
696.0049	0.030248
696.2371	0.029299
696.4693	0.032864
696.7016	0.036852
696.9338	0.040797
697.1660	0.041704
697.3983	0.039784
697.6306	0.038560
697.8628	0.038054
698.0951	0.036978
698.3274	0.039446
698.5597	0.038539
698.7920	0.037780
699.0243	0.037864
699.2567	0.036704
699.4890	0.035523
699.7214	0.034805
699.9537	0.033983
700.1861	0.033244
700.4185	0.032442
700.6509	0.031092
700.8833	0.030438
701.1157	0.030354
701.3481	0.028434
701.5806	0.029384
701.8130	0.030438
702.0454	0.031135
702.2779	0.030839
702.5104	0.031514
702.7429	0.030797
702.9753	0.031662
703.2078	0.030016
703.4403	0.029911
703.6729	0.030755
703.9054	0.028350
704.1379	0.029616
704.3705	0.029130
704.6030	0.028202
704.8356	0.027443
705.0682	0.026873
705.3008	0.023983
705.5334	0.025354
705.7660	0.024510
705.9986	0.027147
706.2312	0.029236
706.4638	0.031999
706.6965	0.034046
706.9291	0.035523
707.1618	0.037611
707.3945	0.038539
707.6272	0.037442
707.8599	0.038919
708.0926	0.038771
708.3253	0.039847
708.5580	0.037548
708.7907	0.037801
709.0235	0.037358
709.2562	0.035501
709.4890	0.034426
709.7217	0.036472
709.9545	0.036683
710.1873	0.034784
710.4201	0.033582
710.6529	0.037041
710.8857	0.035649
711.1186	0.033033
711.3514	0.032189
711.5842	0.033814
711.8171	0.031345
712.0500	0.030101
712.2828	0.027949
712.5157	0.026620
712.7486	0.030607
712.9815	0.031514
713.2144	0.029848
713.4474	0.033434
713.6803	0.033413
713.9132	0.035206
714.1462	0.037126
714.3791	0.035966
714.6121	0.034911
714.8451	0.036472
715.0781	0.037274
715.3111	0.036282
715.5441	0.035839
715.7771	0.031894
716.0102	0.032253
716.2432	0.032274
716.4762	0.031198
716.7093	0.029130
716.9424	0.030101
717.1754	0.028519
717.4085	0.027675
717.6416	0.028223
717.8747	0.030734
718.1078	0.030101
718.3410	0.029911
718.5741	0.029763
718.8072	0.031662
719.0404	0.029890
719.2736	0.030565
719.5067	0.031113
719.7399	0.031092
719.9731	0.029194
720.2063	0.030059
720.4395	0.027485
720.6727	0.031430
720.9060	0.030417
721.1392	0.030059
721.3725	0.030248
721.6057	0.030417
721.8390	0.030670
722.0723	0.031599
722.3055	0.030080
722.5388	0.028497
722.7721	0.028603
723.0055	0.025671
723.2388	0.028898
723.4721	0.030333
723.7055	0.030101
723.9388	0.029299
724.1722	0.028497
724.4056	0.027379
724.6389	0.028160
724.8723	0.027738
725.1057	0.030544
725.3391	0.032210
725.5726	0.034594
725.8060	0.032843
726.0394	0.032485
726.2729	0.033434
726.5063	0.037506
726.7398	0.034510
726.9733	0.030902
727.2068	0.033350
727.4403	0.031704
727.6738	0.032548
727.9073	0.035206
728.1408	0.035459
728.3743	0.037337
728.6079	0.034004
728.8414	0.035544
729.0750	0.035122
729.3086	0.035185
729.5421	0.038371
729.7757	0.036957
730.0093	0.038413
730.2429	0.036831
730.4766	0.038434
730.7102	0.041113
730.9438	0.042590
731.1775	0.045480
731.4111	0.043581
731.6448	0.044763
731.8785	0.044109
732.1122	0.045796
732.3458	0.041324
732.5795	0.042548
732.8133	0.043476
733.0470	0.045501
733.2807	0.043328
733.5145	0.046619
733.7482	0.046661
733.9820	0.047231
734.2157	0.053707
734.4495	0.054277
734.6833	0.051851
734.9171	0.050395
735.1509	0.050184
735.3847	0.048222
735.6185	0.048644
735.8524	0.049973
736.0862	0.049003
736.3201	0.046324
736.5539	0.049826
736.7878	0.051345
737.0217	0.049109
737.2556	0.050438
737.4895	0.050923
737.7234	0.046872
737.9573	0.043349
738.1912	0.044573
738.4252	0.040396
738.6591	0.039700
738.8931	0.043159
739.1271	0.045417
739.3610	0.048497
739.5950	0.049066
739.8290	0.046282
740.0630	0.043455
740.2970	0.043771
740.5310	0.042294
740.7651	0.039868
740.9991	0.038729
741.2332	0.038012
741.4672	0.035480
741.7013	0.036071
741.9354	0.033919
742.1695	0.033772
742.4036	0.033940
742.6377	0.037252
742.8718	0.035987
743.1059	0.034468
743.3400	0.034700
743.5742	0.031767
743.8083	0.031746
744.0425	0.032442
744.2767	0.029447
744.5108	0.029067
744.7450	0.032210
744.9792	0.030459
745.2134	0.029890
745.4477	0.029932
745.6819	0.027126
745.9161	0.031535
746.1504	0.030122
746.3846	0.030059
746.6189	0.029468
746.8532	0.028772
747.0874	0.030755
747.3217	0.033708
747.5560	0.032780
747.7903	0.031367
748.0247	0.031008
748.2590	0.028118
748.4933	0.029784
748.7277	0.028962
748.9620	0.030270
749.1964	0.032548
749.4308	0.034362
749.6652	0.037653
749.8995	0.037231
750.1339	0.038750
750.3684	0.041155
750.6028	0.041788
750.8372	0.040754
751.0717	0.040058
751.3061	0.039446
751.5406	0.040628
751.7750	0.040164
752.0095	0.041915
752.2440	0.042041
752.4785	0.042168
752.7130	0.037906
752.9475	0.039193
753.1820	0.038982
753.4166	0.038012
753.6511	0.042316
753.8856	0.044130
754.1202	0.042822
754.3548	0.040944
754.5894	0.040417
754.8239	0.041957
755.0585	0.041788
755.2931	0.042105
755.5278	0.043244
755.7624	0.044446
755.9970	0.044109
756.2317	0.047568
756.4663	0.048961
756.7010	0.050142
756.9356	0.053307
757.1703	0.053454
757.4050	0.058433
757.6397	0.061977
757.8744	0.060943
758.1091	0.058581
758.3438	0.057969
758.5786	0.055142
758.8133	0.053328
759.0481	0.055669
759.2828	0.058264
759.5176	0.056640
759.7524	0.062294
759.9872	0.062462
760.2220	0.064213
760.4568	0.064277
760.6916	0.065732
760.9264	0.065585
761.1613	0.061998
761.3961	0.059889
761.6310	0.056387
761.8658	0.053876
762.1007	0.050944
762.3356	0.050142
762.5705	0.050965
762.8054	0.050923
763.0403	0.050079
763.2752	0.051999
763.5101	0.053686
763.7450	0.049256
763.9800	0.048898
764.2149	0.052589
764.4499	0.055923
764.6849	0.060416
764.9198	0.061429
765.1548	0.059277
765.3898	0.056218
765.6248	0.056555
765.8599	0.055226
766.0949	0.050881
766.3299	0.048412
766.5650	0.043159
766.8000	0.040628
767.0351	0.042970
767.2701	0.038792
767.5052	0.040164
767.7403	0.041155
767.9754	0.040543
768.2105	0.044362
768.4456	0.045142
768.6808	0.050564
768.9159	0.049341
769.1510	0.048455
769.3862	0.047737
769.6214	0.048201
769.8565	0.046134
770.0917	0.043645
770.3269	0.046893
770.5621	0.047379
770.7973	0.048876
771.0325	0.048033
771.2677	0.049931
771.5030	0.047020
771.7382	0.045522
771.9735	0.043602
772.2087	0.042463
772.4440	0.043202
772.6793	0.041725
772.9146	0.041640
773.1499	0.042231
773.3852	0.040691
773.6205	0.040839
773.8558	0.039025
774.0911	0.036788
774.3265	0.034447
774.5618	0.035269
774.7972	0.032189
775.0326	0.032590
775.2679	0.032611
775.5033	0.031324
775.7387	0.029721
775.9741	0.027886
776.2095	0.028793
776.4450	0.028033
776.6804	0.026451
776.9158	0.026852
777.1513	0.025903
777.3868	0.024848
777.6222	0.026578
777.8577	0.023814
778.0932	0.026683
778.3287	0.027084
778.5642	0.029637
778.7997	0.029088
779.0352	0.029257
779.2707	0.030776
779.5063	0.030459
779.7418	0.032653
779.9774	0.032232
780.2130	0.029974
780.4485	0.027590
780.6841	0.028497
780.9197	0.031029
781.1553	0.033497
781.3909	0.036535
781.6265	0.034046
781.8622	0.035628
782.0978	0.034805
782.3335	0.034953
782.5691	0.036894
782.8048	0.035902
783.0405	0.032864
783.2761	0.035164
783.5118	0.034784
783.7475	0.032907
783.9832	0.033793
784.2190	0.034995
784.4547	0.030544
784.6904	0.031641
784.9262	0.029932
785.1619	0.029320
785.3977	0.029721
785.6335	0.029173
785.8692	0.029742
786.1050	0.029995
786.3408	0.030248
786.5766	0.028054
786.8124	0.029616
787.0483	0.029447
787.2841	0.029067
787.5199	0.029257
787.7558	0.029637
787.9917	0.030691
788.2275	0.032991
788.4634	0.029742
788.6993	0.032696
788.9352	0.033814
789.1711	0.034067
789.4070	0.031388
789.6429	0.028983
789.8789	0.028561
790.1148	0.025502
790.3507	0.025755
790.5867	0.025607
790.8227	0.025734
791.0586	0.024595
791.2946	0.024552
791.5306	0.025544
791.7666	0.024869
792.0026	0.023561
792.2387	0.024531
792.4747	0.023730
792.7107	0.022464
792.9468	0.022485
793.1828	0.023751
793.4189	0.021557
793.6550	0.025755
793.8910	0.027021
794.1271	0.031050
794.3632	0.033624
794.5993	0.032907
794.8355	0.033729
795.0716	0.033223
795.3077	0.032379
795.5439	0.033350
795.7800	0.030438
796.0162	0.028392
796.2523	0.026093
796.4885	0.024363
796.7247	0.020840
796.9609	0.021937
797.1971	0.020523
797.4333	0.024152
797.6695	0.025628
797.9058	0.025101
798.1420	0.024595
798.3783	0.023856
798.6145	0.023350
798.8508	0.025523
799.0871	0.023350
799.3233	0.024721
799.5596	0.022759
799.7959	0.021430
800.0322	0.019764
800.2686	0.020375
800.5049	0.021325
800.7412	0.020017
800.9776	0.018941
801.2139	0.018582
801.4503	0.019110
801.6867	0.019658
801.9230	0.018097
802.1594	0.017570
802.3958	0.016768
802.6322	0.017654
802.8686	0.017527
803.1051	0.018392
803.3415	0.019089
803.5779	0.019236
803.8144	0.019658
804.0508	0.020397
804.2873	0.017886
804.5238	0.017970
804.7603	0.017232
804.9968	0.017295
805.2333	0.018435
805.4698	0.019447
805.7063	0.019426
805.9428	0.019764
806.1794	0.023350
806.4159	0.024574
806.6525	0.025839
806.8890	0.025143
807.1256	0.024785
807.3622	0.022865
807.5988	0.023730
807.8354	0.024405
808.0720	0.022633
808.3086	0.024932
808.5452	0.021937
808.7818	0.022780
809.0185	0.025354
809.2551	0.023709
809.4918	0.022970
809.7284	0.021873
809.9651	0.018751
810.2018	0.021156
810.4385	0.019806
810.6752	0.021114
810.9119	0.019848
811.1486	0.019932
811.3853	0.020186
811.6221	0.018835
811.8588	0.018034
812.0956	0.017802
812.3323	0.015502
812.5691	0.017485
812.8059	0.013836
813.0427	0.015165
813.2795	0.014764
813.5163	0.017612
813.7531	0.018540
813.9899	0.021388
814.2267	0.020207
814.4636	0.020502
814.7004	0.019342
814.9373	0.018667
815.1742	0.018667
815.4110	0.015228
815.6479	0.015692
815.8848	0.015333
816.1217	0.013034
816.3586	0.014722
816.5955	0.014764
816.8324	0.013118
817.0694	0.015734
817.3063	0.015840
817.5433	0.016388
817.7802	0.014025
818.0172	0.015038
818.2542	0.014173
818.4912	0.014279
818.7282	0.013393
818.9652	0.014595
819.2022	0.012570
819.4392	0.013266
819.6762	0.013055
819.9133	0.012844
820.1503	0.011958
820.3874	0.015882
820.6244	0.016430
820.8615	0.015650
821.0986	0.015270
821.3357	0.016747
821.5727	0.013625
821.8099	0.015186
822.0470	0.013793
822.2841	0.013414
822.5212	0.012907
822.7584	0.013582
822.9955	0.014194
823.2327	0.012106
823.4698	0.012485
823.7070	0.013097
823.9442	0.012802
824.1814	0.011262
824.4186	0.012886
824.6558	0.013013
824.8930	0.012886
825.1302	0.014194
825.3675	0.013013
825.6047	0.013857
825.8419	0.014363
826.0792	0.013414
826.3165	0.012464
826.5537	0.014110
826.7910	0.014616
827.0283	0.015376
827.2656	0.014363
827.5029	0.014426
827.7402	0.015397
827.9776	0.015819
828.2149	0.013182
828.4522	0.012274
828.6896	0.012507
828.9270	0.013793
829.1643	0.013920
829.4017	0.013646
829.6391	0.013287
829.8765	0.012085
830.1139	0.013013
830.3513	0.011262
830.5887	0.011431
830.8261	0.011241
831.0636	0.008308
831.3010	0.009258
831.5385	0.009342
831.7759	0.009173
832.0134	0.007865
832.2509	0.008308
832.4884	0.009342
832.7259	0.009532
832.9634	0.010481
833.2009	0.009954
833.4384	0.009806
833.6759	0.010587
833.9135	0.011262
834.1510	0.011642
834.3886	0.009553
834.6261	0.011705
834.8637	0.010713
835.1013	0.011135
835.3389	0.010566
835.5765	0.011009
835.8141	0.009595
836.0517	0.009426
836.2893	0.009954
836.5269	0.008920
836.7646	0.008456
837.0022	0.009152
837.2399	0.008287
837.4775	0.007465
837.7152	0.008477
837.9529	0.007338
838.1906	0.006853
838.4283	0.008667
838.6660	0.007338
838.9037	0.007950
839.1414	0.007612
839.3791	0.008477
839.6169	0.008498
839.8546	0.009363
840.0924	0.007633
840.3302	0.008245
840.5679	0.006789
840.8057	0.007570
841.0435	0.007865
841.2813	0.007633
841.5191	0.007633
841.7569	0.007570
841.9947	0.006473
842.2326	0.007654
842.4704	0.005671
842.7082	0.005671
842.9461	0.004954
843.1840	0.006030
843.4218	0.003857
843.6597	0.005460
843.8976	0.004448
844.1355	0.005946
844.3734	0.004701
844.6113	0.007591
844.8492	0.006368
845.0872	0.006726
845.3251	0.005376
845.5631	0.005334
845.8010	0.006178
846.0390	0.007127
846.2770	0.005629
846.5149	0.005397
846.7529	0.003984
846.9909	0.005144
847.2289	0.004342
847.4669	0.006579
847.7050	0.006557
847.9430	0.004912
848.1810	0.005376
848.4191	0.004806
848.6571	0.004258
848.8952	0.004954
849.1333	0.005903
849.3713	0.005988
849.6094	0.005102
849.8475	0.005102
850.0856	0.005102
850.3237	0.005587
850.5619	0.004469
850.8000	0.006832
851.0381	0.003794
851.2763	0.005882
851.5144	0.004595
851.7526	0.007043
851.9908	0.005587
852.2289	0.007465
852.4671	0.008266
852.7053	0.009363
852.9435	0.011621
853.1817	0.013667
853.4200	0.014722
853.6582	0.015122
853.8964	0.015439
854.1347	0.013625
854.3729	0.013962
854.6112	0.016135
854.8495	0.013139
855.0877	0.015776
855.3260	0.015291
855.5643	0.011473
855.8026	0.011726
856.0409	0.012169
856.2792	0.013477
856.5176	0.013414
856.7559	0.013625
856.9942	0.013266
857.2326	0.012570
857.4710	0.012042
857.7093	0.011072
857.9477	0.011874
858.1861	0.010777
858.4245	0.010840
858.6629	0.011199
858.9013	0.010587
859.1397	0.009321
859.3781	0.008140
859.6166	0.008815
859.8550	0.007422
860.0935	0.006642
860.3319	0.009152
860.5704	0.007697
860.8089	0.006663
861.0473	0.008055
861.2858	0.007718
861.5243	0.006431
861.7628	0.007106
862.0013	0.006621
862.2399	0.005566
862.4784	0.005524
862.7169	0.007380
862.9555	0.005060
863.1940	0.007211
863.4326	0.006663
863.6712	0.007465
863.9098	0.005988
864.1483	0.007507
864.3869	0.006473
864.6255	0.007275
864.8642	0.006452
865.1028	0.007169
865.3414	0.005882
865.5800	0.005460
865.8187	0.004785
866.0573	0.005692
866.2960	0.005629
866.5347	0.003878
866.7733	0.004342
867.0120	0.005988
867.2507	0.005081
867.4894	0.005207
867.7281	0.006072
867.9669	0.005882
868.2056	0.004300
868.4443	0.005038
868.6831	0.007886
868.9218	0.006768
869.1606	0.005840
869.3993	0.005081
869.6381	0.005503
869.8769	0.006262
870.1157	0.005165
870.3545	0.005671
870.5933	0.005524
870.8321	0.005714
871.0709	0.007676
871.3097	0.007760
871.5486	0.004659
871.7874	0.007465
872.0263	0.005313
872.2651	0.004595
872.5040	0.006431
872.7429	0.004553
872.9818	0.006220
873.2207	0.005798
873.4596	0.005165
873.6985	0.006325
873.9374	0.005482
874.1763	0.005903
874.4153	0.005714
874.6542	0.005482
874.8932	0.005460
875.1321	0.007823
875.3711	0.005692
875.6101	0.005692
875.8491	0.006747
876.0880	0.007169
876.3270	0.007106
876.5661	0.005946
876.8051	0.005650
877.0441	0.003688
877.2831	0.005671
877.5222	0.005038
877.7612	0.006832
878.0003	0.008709
878.2393	0.006979
878.4784	0.007359
878.7175	0.008161
878.9566	0.007422
879.1957	0.007950
879.4348	0.007211
879.6739	0.009131
879.9130	0.008266
880.1521	0.008266
880.3913	0.008414
880.6304	0.008140
880.8696	0.006304
881.1087	0.008034
881.3479	0.007676
881.5871	0.007844
881.8262	0.006895
882.0654	0.006283
882.3046	0.006916
882.5438	0.007422
882.7831	0.007254
883.0223	0.007190
883.2615	0.007443
883.5007	0.008435
883.7400	0.006241
883.9792	0.006009
884.2185	0.007000
884.4578	0.005123
884.6971	0.006726
884.9363	0.007064
885.1756	0.006684
885.4149	0.006114
885.6542	0.007612
885.8936	0.007718
886.1329	0.006958
886.3722	0.007127
886.6116	0.007043
886.8509	0.006178
887.0903	0.006726
887.3296	0.006726
887.5690	0.006410
887.8084	0.005587
888.0478	0.006093
888.2872	0.005735
888.5266	0.005756
888.7660	0.005777
889.0054	0.005334
889.2448	0.004005
889.4843	0.004849
889.7237	0.005334
889.9632	0.004996
890.2026	0.004743
890.4421	0.003414
890.6816	0.005967
890.9211	0.004279
891.1606	0.004026
891.4001	0.004469
891.6396	0.004975
891.8791	0.004954
892.1186	0.006325
892.3581	0.005503
892.5977	0.005946
892.8372	0.004743
893.0768	0.005397
893.3163	0.006346
893.5559	0.005165
893.7955	0.003752
894.0351	0.005798
894.2747	0.004785
894.5143	0.004954
894.7539	0.004532
894.9935	0.005376
895.2331	0.004722
895.4727	0.005102
895.7124	0.005376
895.9520	0.005882
896.1917	0.003245
896.4314	0.005714
896.6710	0.006346
896.9107	0.004680
897.1504	0.005840
897.3901	0.005714
897.6298	0.004638
897.8695	0.004659
898.1092	0.004659
898.3489	0.006220
898.5887	0.005207
898.8284	0.003773
899.0682	0.005503
899.3079	0.006072
899.5477	0.005102
899.7875	0.005186
900.0272	0.002823
900.2670	0.004068
900.5068	0.003857
900.7466	0.005903
900.9864	0.004933
901.2263	0.005376
901.4661	0.004553
901.7059	0.006072
901.9458	0.003815
902.1856	0.005714
902.4255	0.003984
902.6654	0.005418
902.9052	0.004743
903.1451	0.006410
903.3850	0.005165
903.6249	0.004131
903.8648	0.004912
904.1047	0.005545
904.3446	0.004342
904.5846	0.006368
904.8245	0.004849
905.0644	0.005017
905.3044	0.005988
905.5444	0.004490
905.7843	0.006157
906.0243	0.004490
906.2643	0.005334
906.5043	0.004954
906.7443	0.005249
906.9843	0.004363
907.2243	0.005292
907.4643	0.004321
907.7043	0.005503
907.9444	0.003857
908.1844	0.005102
908.4245	0.004553
908.6645	0.004174
908.9046	0.004321
909.1447	0.004005
909.3847	0.005144
909.6248	0.004110
909.8649	0.002950
910.1050	0.003646
910.3452	0.003119
910.5853	0.003709
910.8254	0.005017
911.0655	0.003414
911.3057	0.003161
911.5458	0.003878
911.7860	0.003963
912.0262	0.003773
912.2663	0.004511
912.5065	0.004553
912.7467	0.004532
912.9869	0.006114
913.2271	0.005038
913.4673	0.004279
913.7075	0.004785
913.9478	0.004870
914.1880	0.005460
914.4283	0.002823
914.6685	0.004384
914.9088	0.004532
915.1490	0.003984
915.3893	0.002844
915.6296	0.004131
915.8699	0.002802
916.1102	0.003034
916.3505	0.004722
916.5908	0.004448
916.8311	0.002971
917.0714	0.005207
917.3118	0.004131
917.5521	0.005249
917.7925	0.005228
918.0328	0.004321
918.2732	0.002401
918.5136	0.005608
918.7539	0.005355
918.9943	0.002634
919.2347	0.003752
919.4751	0.004216
919.7155	0.003963
919.9560	0.004743
920.1964	0.002950
920.4368	0.004427
920.6773	0.003182
920.9177	0.003899
921.1582	0.004342
921.3986	0.003309
921.6391	0.003477
921.8796	0.002908
922.1201	0.004152
922.3606	0.004300
922.6011	0.004068
922.8416	0.003899
923.0821	0.003077
923.3226	0.003878
923.5631	0.003625
923.8037	0.003456
924.0442	0.003709
924.2848	0.003941
924.5254	0.002718
924.7659	0.003984
925.0065	0.003077
925.2471	0.003520
925.4877	0.003140
925.7283	0.003604
925.9689	0.002929
926.2095	0.003646
926.4501	0.002887
926.6908	0.003330
926.9314	0.003224
927.1720	0.002971
927.4127	0.003920
927.6533	0.003077
927.8940	0.002338
928.1347	0.003773
928.3754	0.002507
928.6161	0.003773
928.8568	0.001853
929.0975	0.002929
929.3382	0.001178
929.5789	0.004828
929.8196	0.000714
930.0604	0.002929
930.3011	0.001473
930.5419	0.002233
930.7826	0.002507
931.0234	0.002212
931.2642	0.001790
931.5049	0.003309
931.7457	0.002064
931.9865	0.003435
932.2273	0.001199
932.4681	0.002507
932.7089	0.001916
932.9498	0.003857
933.1906	0.001283
933.4314	0.004068
933.6723	0.002148
933.9131	0.003245
934.1540	0.001030
934.3949	0.003520
934.6358	0.004026
934.8766	0.003309
935.1175	0.002338
935.3584	0.002655
935.5993	0.002760
935.8403	0.003266
936.0812	0.001747
936.3221	0.002338
936.5630	0.003604
936.8040	0.001431
937.0449	0.001347
937.2859	0.002676
937.5269	0.003351
937.7678	0.002275
938.0088	0.001136
938.2498	0.002423
938.4908	0.001241
938.7318	0.002549
938.9728	0.000756
939.2138	0.003055
939.4549	0.001874
939.6959	0.001832
939.9369	0.002823
940.1780	0.000819
940.4190	0.003161
940.6601	0.003752
940.9012	0.002359
941.1422	0.002507
941.3833	0.001452
941.6244	0.001558
941.8655	0.001832
942.1066	0.002212
942.3477	0.002549
942.5889	0.001283
942.8300	0.002043
943.0711	0.001009
943.3123	0.000988
943.5534	0.002380
943.7946	0.002212
944.0357	0.001072
944.2769	0.000693
944.5181	0.000587
944.7593	0.002233
945.0005	0.001747
945.2417	0.001389
945.4829	-0.000594
945.7241	0.000946
945.9653	0.000524
946.2066	0.002844
946.4478	0.000988
946.6891	0.002001
946.9303	0.001283
947.1716	0.001283
947.4128	0.001115
947.6541	0.002001
947.8954	0.001410
948.1367	0.002022
948.3780	0.001663
948.6193	0.001072
948.8606	0.001747
949.1019	0.002338
949.3433	0.000250
949.5846	0.001874
949.8259	0.001684
950.0673	0.002655
950.3086	0.002591
950.5500	0.001537
950.7914	0.001368
951.0327	0.001389
951.2741	0.000440
951.5155	0.002043
951.7569	0.000524
951.9983	0.000925
952.2398	0.001431
952.4812	0.001642
952.7226	0.000714
952.9640	0.002718
953.2055	0.001980
953.4469	0.002106
953.6884	0.001262
953.9299	0.002465
954.1713	0.001199
954.4128	0.001178
954.6543	0.001051
954.8958	0.001051
955.1373	0.000904
955.3788	0.001537
955.6203	0.000102
955.8618	0.001368
956.1034	0.000819
956.3449	0.000798
956.5865	0.001030
956.8280	0.002444
957.0696	0.000123
957.3111	0.000313
957.5527	-0.000130
957.7943	0.003077
958.0359	0.000461
958.2775	0.000883
958.5191	0.000461
958.7607	0.000313
959.0023	0.002718
959.2439	0.001515
959.4856	0.000461
959.7272	0.000672
959.9688	0.001600
960.2105	0.000250
960.4522	0.000503
960.6938	0.002612
960.9355	0.000693
961.1772	-0.000130
961.4189	0.001832
961.6606	0.000967
961.9023	0.001009
962.1440	0.001958
962.3857	0.000840
962.6274	0.001009
962.8692	0.001157
963.1109	0.001452
963.3527	0.001326
963.5944	0.001347
963.8362	0.000060
964.0779	0.001642
964.3197	0.000861
964.5615	0.002380
964.8033	0.000629
965.0451	0.000840
965.2869	0.001621
965.5287	0.001790
965.7705	-0.000214
966.0123	0.000925
966.2542	0.000967
966.4960	0.001241
966.7379	0.001537
966.9797	0.000144
967.2216	0.000545
967.4634	0.001241
967.7053	-0.000257
967.9472	0.002106
968.1891	0.001473
968.4310	0.000693
968.6729	0.000355
968.9148	0.001304
969.1567	0.000524
969.3987	0.001347
969.6406	0.000144
969.8825	0.000039
970.1245	0.001072
970.3664	0.002401
970.6084	0.001473
970.8504	0.001157
971.0923	0.000018
971.3343	0.001347
971.5763	0.000777
971.8183	0.002043
972.0603	0.000756
972.3023	0.000039
972.5443	0.000250
972.7864	0.001705
973.0284	0.002127
973.2704	0.001030
973.5125	0.001304
973.7545	0.002275
973.9966	0.001747
974.2387	0.001515
974.4807	0.000756
974.7228	0.000524
974.9649	0.000503
975.2070	0.001663
975.4491	0.001115
975.6912	0.000883
975.9333	0.000250
976.1755	0.001537
976.4176	0.001579
976.6597	0.000904
976.9019	0.001958
977.1440	0.001874
977.3862	0.001262
977.6283	0.000819
977.8705	0.000524
978.1127	0.001368
978.3549	0.000672
978.5971	0.001347
978.8393	-0.000278
979.0815	0.000629
979.3237	0.000629
979.5659	0.001389
979.8082	0.001241
980.0504	-0.000109
980.2926	0.000482
980.5349	0.001136
980.7771	0.000650
981.0194	0.000819
981.2617	0.002781
981.5040	0.000292
981.7462	0.001537
981.9885	0.000207
982.2308	0.001642
982.4731	0.001283
982.7155	-0.000531
982.9578	-0.000573
983.2001	0.000545
983.4424	0.001030
983.6848	0.001579
983.9271	0.000988
984.1695	0.000440
984.4118	0.001537
984.6542	-0.000468
984.8966	0.000883
985.1390	0.000777
985.3814	0.001178
985.6238	0.000693
985.8662	0.001051
986.1086	0.000482
986.3510	-0.001902
986.5934	0.000545
986.8358	0.000608
987.0783	0.001874
987.3207	0.001389
987.5632	0.000418
987.8056	0.000946
988.0481	0.001642
988.2906	0.000672
988.5331	0.000629
988.7756	0.000524
989.0180	0.001980
989.2605	0.001199
989.5031	0.000376
989.7456	0.000461
989.9881	-0.000489
990.2306	0.001220
990.4732	-0.000214
990.7157	0.001241
990.9582	-0.000299
991.2008	0.000798
991.4434	-0.000510
991.6859	0.001431
991.9285	-0.000214
992.1711	0.001642
992.4137	0.000418
992.6563	0.000650
992.8989	-0.000004
993.1415	0.000039
993.3841	-0.000573
993.6267	0.000271
993.8694	0.000524
994.1120	-0.000531
994.3547	-0.000468
994.5973	0.000186
994.8400	0.001853
995.0826	0.000482
995.3253	0.000376
995.5680	-0.000552
995.8107	-0.000995
996.0534	-0.000257
996.2961	-0.000046
996.5388	0.001832
996.7815	0.000524
997.0242	0.002022
997.2670	0.000904
997.5097	0.001389
997.7524	0.001452
997.9952	0.001621
998.2379	0.000186
998.4807	0.001515
998.7235	0.000946
998.9662	0.000904
999.2090	0.000292
999.4518	0.000714
999.6946	-0.000151
999.9374	0.000925
1000.1802	0.000904
1000.4230	0.000524
1000.6659	0.001304
1000.9087	0.000672
1001.1515	0.000840
1001.3944	0.000988
1001.6372	0.001980
1001.8801	0.001726
1002.1230	0.001558
1002.3658	0.001220
1002.6087	0.000861
1002.8516	0.000102
1003.0945	0.001916
1003.3374	0.000777
1003.5803	0.000165
1003.8232	-0.000341
1004.0661	0.001431
1004.3091	0.000482
1004.5520	0.000988
1004.7949	0.001115
1005.0379	0.000988
1005.2808	-0.000531
1005.5238	0.001684
1005.7667	0.000946
1006.0097	0.000503
1006.2527	-0.000362
1006.4957	0.000271
1006.7387	0.000650
1006.9817	0.000967
1007.2247	0.000397
1007.4677	0.001093
1007.7107	0.000503
1007.9538	0.000819
1008.1968	0.000292
1008.4398	0.000587
1008.6829	0.000123
1008.9259	0.000756
1009.1690	0.001326
1009.4121	0.000650
1009.6551	0.000440
1009.8982	0.001115
1010.1413	-0.000025
1010.3844	0.000650
1010.6275	0.000714
1010.8706	0.001093
1011.1137	0.001220
1011.3568	0.000904
1011.6000	-0.000193
1011.8431	0.001368
1012.0863	0.001030
1012.3294	-0.000130
1012.5726	-0.000236
1012.8157	0.000861
1013.0589	0.000524
1013.3021	0.001684
1013.5452	0.001621
1013.7884	0.000735
1014.0316	0.000904
1014.2748	0.001304
1014.5180	-0.000236
1014.7613	0.001241
1015.0045	-0.000404
1015.2477	0.000376
1015.4909	-0.000636
1015.7342	0.000376
1015.9774	0.000018
1016.2207	0.000714
1016.4640	0.000967
1016.7072	0.000018
1016.9505	-0.000236
1017.1938	-0.000151
1017.4371	-0.000341
1017.6804	0.000102
1017.9237	0.000271
1018.1670	0.000693
1018.4103	0.001916
1018.6536	0.000650
1018.8969	-0.000257
1019.1403	0.001157
1019.3836	0.001515
1019.6270	0.000629
1019.8703	-0.000383
1020.1137	0.000735
1020.3571	0.000650
1020.6004	-0.000700
1020.8438	0.001157
1021.0872	0.000524
1021.3306	0.001051
1021.5740	0.000693
1021.8174	0.000376
1022.0608	0.000186
1022.3042	0.000629
1022.5477	0.000355
1022.7911	-0.000109
1023.0345	0.001072
