# Wavelength (nm)	Intensity (a.u.)
197.7802	0.001242
197.9842	-0.000679
198.1882	0.001094
198.3922	-0.000215
198.5963	0.001706
198.8003	0.000271
199.0044	0.001938
199.2085	-0.000341
199.4126	0.001368
199.6168	0.001579
199.8209	-0.000468
200.0251	0.000925
200.2292	0.000208
200.4334	-0.000046
200.6376	0.000904
200.8418	0.000819
201.0461	-0.000383
201.2503	0.000587
201.4546	0.001854
201.6589	-0.000616
201.8631	0.001009
202.0674	-0.000109
202.2718	0.001009
202.4761	0.000186
202.6805	-0.000362
202.8848	-0.001080
203.0892	0.001389
203.2936	0.000419
203.4980	-0.000278
203.7024	-0.000151
203.9069	0.001220
204.1113	0.000967
204.3158	-0.000278
204.5203	0.000566
204.7248	0.000186
204.9293	0.000419
205.1338	0.001326
205.3384	0.000271
205.5430	0.000651
205.7475	0.001178
205.9521	0.000250
206.1567	-0.000594
206.3614	0.000883
206.5660	-0.001650
206.7706	-0.001143
206.9753	-0.000341
207.1800	-0.000932
207.3847	0.000397
207.5894	-0.001861
207.7941	0.000819
207.9989	0.000102
208.2036	-0.000679
208.4084	0.000419
208.6132	-0.001270
208.8180	0.000250
209.0228	0.000988
209.2276	-0.000172
209.4325	-0.001122
209.6373	0.000545
209.8422	0.001199
210.0471	0.001537
210.2520	0.000630
210.4569	0.000271
210.6618	-0.000953
210.8668	0.000208
211.0718	-0.000046
211.2767	0.001389
211.4817	0.001368
211.6867	0.000165
211.8918	0.000587
212.0968	-0.000088
212.3018	-0.000193
212.5069	0.001094
212.7120	0.001157
212.9171	-0.000130
213.1222	0.000651
213.3273	0.001052
213.5325	0.000440
213.7376	0.000334
213.9428	0.000355
214.1480	-0.000447
214.3532	0.000144
214.5584	0.000165
214.7636	-0.000890
214.9689	0.000545
215.1741	-0.000763
215.3794	-0.000383
215.5847	-0.000784
215.7900	0.000566
215.9953	-0.000383
216.2007	0.000735
216.4060	0.001558
216.6114	0.000967
216.8168	-0.000742
217.0222	0.001157
217.2276	-0.000067
217.4330	-0.000404
217.6384	0.001115
217.8439	0.000292
218.0494	-0.000193
218.2548	0.000208
218.4603	-0.000700
218.6659	0.000292
218.8714	-0.000193
219.0769	0.001073
219.2825	-0.000742
219.4881	0.001094
219.6936	0.000608
219.8992	-0.000004
220.1049	-0.000004
220.3105	0.000967
220.5161	0.000165
220.7218	0.001242
220.9275	-0.000341
221.1332	-0.000004
221.3389	0.000039
221.5446	-0.000805
221.7503	0.000482
221.9561	0.000545
222.1618	-0.000383
222.3676	0.000587
222.5734	0.000524
222.7792	0.000841
222.9850	0.000165
223.1909	0.001474
223.3967	0.000440
223.6026	0.000229
223.8085	-0.000067
224.0144	0.000777
224.2203	0.000608
224.4262	0.000883
224.6322	-0.000278
224.8381	0.000081
225.0441	0.000039
225.2501	0.000862
225.4561	0.001136
225.6621	-0.000046
225.8681	-0.000383
226.0742	0.001094
226.2802	0.000503
226.4863	-0.000320
226.6924	0.000925
226.8985	0.000208
227.1046	0.001727
227.3107	0.001115
227.5169	0.000777
227.7230	0.001664
227.9292	0.000841
228.1354	0.000123
228.3416	0.000841
228.5478	0.001115
228.7541	0.000292
228.9603	0.000608
229.1666	0.000081
229.3729	-0.000404
229.5791	-0.000848
229.7855	-0.001016
229.9918	0.000397
230.1981	0.000208
230.4045	0.000144
230.6108	0.001516
230.8172	0.000355
231.0236	0.000292
231.2300	0.000819
231.4364	-0.000046
231.6429	-0.000616
231.8493	-0.000426
232.0558	-0.000468
232.2623	0.001284
232.4688	0.001685
232.6753	0.000397
232.8818	-0.000046
233.0884	0.000376
233.2949	-0.001861
233.5015	0.000482
233.7081	0.001094
233.9147	-0.000700
234.1213	0.001980
234.3279	0.001052
234.5346	-0.000299
234.7413	-0.000067
234.9479	0.000397
235.1546	0.000397
235.3613	0.001389
235.5680	0.001115
235.7748	0.000608
235.9815	0.000397
236.1883	0.000165
236.3951	0.000503
236.6018	0.000524
236.8087	0.000883
237.0155	0.000292
237.2223	-0.000109
237.4292	0.000440
237.6360	0.000440
237.8429	-0.000341
238.0498	0.000334
238.2567	0.000524
238.4636	0.001643
238.6706	-0.000109
238.8775	0.000756
239.0845	0.000440
239.2915	0.001136
239.4985	-0.000130
239.7055	0.001284
239.9125	-0.000932
240.1195	0.000397
240.3266	0.000144
240.5337	0.000672
240.7407	0.001115
240.9478	-0.000383
241.1549	0.001052
241.3621	0.000482
241.5692	0.000545
241.7764	0.000461
241.9835	0.000102
242.1907	0.001115
242.3979	0.000566
242.6051	0.000630
242.8124	-0.000679
243.0196	0.000503
243.2269	0.000714
243.4341	0.000186
243.6414	-0.000426
243.8487	0.000946
244.0560	-0.000531
244.2634	-0.000046
244.4707	0.001199
244.6781	0.001790
244.8854	0.000672
245.0928	0.000608
245.3002	0.000271
245.5076	-0.000130
245.7151	0.000693
245.9225	0.001495
246.1300	0.001052
246.3375	0.000292
246.5449	-0.001607
246.7524	-0.000004
246.9600	0.000271
247.1675	0.001537
247.3750	-0.000004
247.5826	0.000841
247.7902	0.000039
247.9978	-0.000025
248.2054	0.000587
248.4130	0.000165
248.6206	0.000376
248.8283	0.000566
249.0359	-0.000362
249.2436	0.000081
249.4513	-0.000468
249.6590	-0.000025
249.8667	0.000608
250.0745	-0.000172
250.2822	0.000925
250.4900	-0.000067
250.6978	0.001073
250.9056	0.000482
251.1134	-0.000151
251.3212	0.002001
251.5290	0.001178
251.7369	-0.000763
251.9447	-0.000721
252.1526	0.001326
252.3605	-0.000215
252.5684	0.000651
252.7763	-0.001016
252.9843	-0.000341
253.1922	0.000756
253.4002	0.000208
253.6082	0.001009
253.8162	0.000545
254.0242	0.000714
254.2322	0.000735
254.4402	0.001284
254.6483	0.000334
254.8564	-0.000193
255.0644	0.000355
255.2725	-0.000594
255.4806	0.000841
255.6888	0.000397
255.8969	0.000292
256.1051	0.000039
256.3132	0.001453
256.5214	0.001516
256.7296	-0.000067
256.9378	0.000756
257.1460	0.000630
257.3543	0.000461
257.5625	0.000292
257.7708	-0.000531
257.9791	-0.000763
258.1874	-0.000426
258.3957	0.001178
258.6040	0.000229
258.8124	-0.000109
259.0207	0.000144
259.2291	0.000461
259.4375	0.000060
259.6459	0.000102
259.8543	0.001052
260.0627	0.000545
260.2711	0.000419
260.4796	-0.000236
260.6881	-0.000679
260.8965	-0.000573
261.1050	0.000798
261.3135	0.000482
261.5221	0.001347
261.7306	0.000102
261.9392	-0.000594
262.1477	0.001009
262.3563	-0.002219
262.5649	0.000714
262.7735	0.000904
262.9822	-0.000932
263.1908	0.000461
263.3995	0.000735
263.6081	-0.001417
263.8168	0.000376
264.0255	0.000819
264.2342	-0.000742
264.4429	-0.000637
264.6517	-0.000510
264.8604	0.000165
265.0692	0.000988
265.2780	-0.000236
265.4868	-0.000932
265.6956	0.000798
265.9044	0.001474
266.1133	-0.001270
266.3221	0.000566
266.5310	-0.000320
266.7399	0.000819
266.9488	0.000419
267.1577	0.001094
267.3666	0.001094
267.5755	0.000988
267.7845	0.000482
267.9935	0.001389
268.2024	-0.000890
268.4114	0.001495
268.6205	-0.000784
268.8295	0.000186
269.0385	0.000018
269.2476	0.000545
269.4566	-0.000510
269.6657	0.000925
269.8748	-0.000320
270.0839	-0.002367
270.2931	-0.000362
270.5022	0.001052
270.7114	-0.000426
270.9205	0.000081
271.1297	0.000355
271.3389	0.000883
271.5481	0.000039
271.7573	-0.000109
271.9666	-0.001312
272.1758	-0.000932
272.3851	-0.000531
272.5944	-0.000510
272.8037	-0.000067
273.0130	0.000081
273.2223	0.000397
273.4316	0.001558
273.6410	-0.001291
273.8504	0.000355
274.0597	0.001115
274.2691	0.000925
274.4785	-0.001354
274.6880	0.000630
274.8974	0.001220
275.1069	0.000186
275.3163	-0.001059
275.5258	0.002149
275.7353	-0.000573
275.9448	0.000904
276.1543	0.001368
276.3639	0.001136
276.5734	0.000186
276.7830	0.000208
276.9926	0.001199
277.2022	0.000229
277.4118	-0.000151
277.6214	-0.000995
277.8310	0.000735
278.0407	-0.000172
278.2503	-0.000236
278.4600	0.000651
278.6697	-0.000320
278.8794	0.000608
279.0891	-0.000320
279.2989	0.001495
279.5086	0.000060
279.7184	-0.000658
279.9281	-0.000088
280.1379	0.000229
280.3477	-0.000088
280.5576	0.001537
280.7674	-0.000193
280.9772	0.000819
281.1871	0.000988
281.3970	-0.000299
281.6069	-0.000299
281.8168	0.001178
282.0267	-0.000510
282.2366	0.000608
282.4466	0.000756
282.6565	-0.000088
282.8665	0.000208
283.0765	0.001242
283.2865	-0.001059
283.4965	0.001178
283.7065	-0.000257
283.9166	0.000988
284.1266	0.001052
284.3367	-0.000109
284.5468	0.001685
284.7569	0.001389
284.9670	0.001199
285.1771	0.002423
285.3873	0.000461
285.5974	0.001980
285.8076	0.000461
286.0178	0.001811
286.2280	0.000904
286.4382	0.000503
286.6484	0.000229
286.8587	0.001136
287.0689	0.000440
287.2792	-0.000426
287.4895	0.000482
287.6998	-0.000784
287.9101	0.001389
288.1204	-0.000784
288.3308	-0.000594
288.5411	0.001326
288.7515	-0.001417
288.9619	0.000524
289.1723	0.000313
289.3827	-0.000088
289.5931	0.000292
289.8035	0.000735
290.0140	-0.000468
290.2245	-0.000573
290.4349	-0.000679
290.6454	0.000862
290.8559	-0.000025
291.0665	0.000693
291.2770	-0.000341
291.4875	0.000440
291.6981	-0.001143
291.9087	0.000419
292.1193	-0.000700
292.3299	0.000735
292.5405	-0.000447
292.7511	0.001896
292.9618	0.001220
293.1724	0.001178
293.3831	-0.000088
293.5938	-0.000215
293.8045	0.001305
294.0152	0.000039
294.2260	0.000461
294.4367	0.000988
294.6475	0.000208
294.8582	0.001347
295.0690	0.001537
295.2798	0.000777
295.4906	0.000250
295.7015	0.001980
295.9123	0.000566
296.1232	0.000186
296.3340	0.000165
296.5449	0.000397
296.7558	-0.000404
296.9667	-0.000383
297.1777	0.000630
297.3886	0.000608
297.5995	-0.001185
297.8105	0.001389
298.0215	-0.000172
298.2325	0.000672
298.4435	0.001431
298.6545	-0.000447
298.8656	-0.000383
299.0766	0.001495
299.2877	0.000081
299.4988	0.001643
299.7099	0.000503
299.9210	0.000503
300.1321	0.000819
300.3432	0.000123
300.5544	-0.000046
300.7655	0.000376
300.9767	0.000672
301.1879	0.000925
301.3991	-0.000341
301.6103	0.000419
301.8215	0.001579
302.0328	0.000545
302.2441	-0.000447
302.4553	0.000419
302.6666	-0.000299
302.8779	0.000461
303.0892	0.000545
303.3006	-0.000130
303.5119	-0.000215
303.7233	-0.000004
303.9346	0.000123
304.1460	0.001875
304.3574	-0.000531
304.5688	-0.000362
304.7803	0.000229
304.9917	0.001474
305.2031	0.000018
305.4146	0.001643
305.6261	0.000587
305.8376	0.000123
306.0491	0.000651
306.2606	0.000144
306.4722	-0.000848
306.6837	0.000081
306.8953	0.000440
307.1069	0.000271
307.3184	0.000630
307.5301	0.000440
307.7417	0.000630
307.9533	0.000798
308.1650	-0.000193
308.3766	-0.000172
308.5883	0.000630
308.8000	-0.000046
309.0117	0.000060
309.2234	-0.000362
309.4351	-0.000278
309.6469	-0.000046
309.8586	0.000144
310.0704	-0.000109
310.2822	-0.000510
310.4940	0.001769
310.7058	0.001811
310.9176	-0.000341
311.1295	0.000672
311.3413	0.000229
311.5532	0.000946
311.7651	-0.000151
311.9770	0.000250
312.1889	0.000376
312.4008	-0.000299
312.6127	0.000186
312.8247	-0.000004
313.0366	0.000419
313.2486	0.000841
313.4606	0.002128
313.6726	0.001094
313.8846	-0.000468
314.0967	0.000419
314.3087	-0.000067
314.5208	0.000651
314.7328	-0.000067
314.9449	-0.000109
315.1570	0.000250
315.3692	0.000186
315.5813	-0.000130
315.7934	-0.000805
316.0056	-0.000299
316.2177	0.000060
316.4299	0.001220
316.6421	-0.000658
316.8543	-0.000890
317.0666	0.000524
317.2788	0.000440
317.4911	-0.000447
317.7033	0.001431
317.9156	0.000756
318.1279	-0.000911
318.3402	0.001643
318.5525	0.000862
318.7649	-0.000362
318.9772	0.000419
319.1896	0.000292
319.4019	0.000566
319.6143	0.000735
319.8267	0.000841
320.0392	-0.000088
320.2516	0.000904
320.4640	-0.000616
320.6765	0.001094
320.8890	-0.000067
321.1014	0.000777
321.3139	0.000672
321.5265	0.000503
321.7390	-0.000299
321.9515	-0.001080
322.1641	0.000165
322.3766	0.001431
322.5892	0.000102
322.8018	0.000313
323.0144	-0.000172
323.2270	0.000081
323.4397	-0.000236
323.6523	0.000250
323.8650	-0.000299
324.0777	-0.000679
324.2904	-0.000067
324.5031	0.000165
324.7158	0.000904
324.9285	-0.000278
325.1412	0.000123
325.3540	0.000123
325.5668	0.000988
325.7796	0.001242
325.9924	0.000229
326.2052	0.001009
326.4180	0.001094
326.6308	0.000756
326.8437	-0.000995
327.0566	-0.000215
327.2694	-0.000932
327.4823	-0.000151
327.6952	0.000587
327.9082	-0.000784
328.1211	-0.000299
328.3340	0.000946
328.5470	0.000313
328.7600	-0.000004
328.9730	-0.000193
329.1860	0.000841
329.3990	-0.001164
329.6120	0.000988
329.8251	-0.000067
330.0381	0.000735
330.2512	0.001558
330.4643	0.001220
330.6774	0.000608
330.8905	-0.000130
331.1036	0.001052
331.3167	0.000735
331.5299	0.000102
331.7431	0.002170
331.9562	-0.000510
332.1694	0.001790
332.3826	0.000440
332.5959	0.000250
332.8091	0.001347
333.0223	0.000397
333.2356	-0.000278
333.4489	-0.000447
333.6622	-0.000088
333.8755	0.000925
334.0888	-0.000025
334.3021	0.001431
334.5154	-0.000679
334.7288	0.000841
334.9422	0.000735
335.1555	0.000334
335.3689	0.000313
335.5823	0.000608
335.7958	0.001579
336.0092	0.001643
336.2227	0.000186
336.4361	0.000419
336.6496	-0.000341
336.8631	0.000461
337.0766	0.000545
337.2901	-0.000278
337.5036	-0.000616
337.7172	-0.000383
337.9307	0.000102
338.1443	0.001368
338.3579	-0.001143
338.5715	0.001199
338.7851	0.000102
338.9987	0.000461
339.2124	-0.000447
339.4260	0.000841
339.6397	0.000693
339.8533	0.000841
340.0670	0.000229
340.2807	0.000355
340.4945	0.000883
340.7082	-0.000362
340.9219	0.000566
341.1357	0.000735
341.3495	-0.000468
341.5633	-0.000025
341.7771	-0.000890
341.9909	0.000334
342.2047	0.000292
342.4185	0.002360
342.6324	-0.000404
342.8463	0.000060
343.0601	-0.000468
343.2740	0.000081
343.4879	-0.000341
343.7019	0.000229
343.9158	-0.000869
344.1297	0.000144
344.3437	0.000313
344.5577	-0.000341
344.7717	0.000250
344.9857	0.000566
345.1997	0.000081
345.4137	0.000440
345.6277	0.000313
345.8418	0.000735
346.0559	-0.000869
346.2699	0.000208
346.4840	0.000165
346.6981	-0.001164
346.9123	0.000039
347.1264	-0.000109
347.3406	0.000081
347.5547	-0.000067
347.7689	-0.000257
347.9831	0.000419
348.1973	-0.000616
348.4115	0.001748
348.6257	-0.000616
348.8400	-0.000004
349.0542	-0.000088
349.2685	0.001558
349.4828	0.000144
349.6971	0.000165
349.9114	0.000819
350.1257	0.001368
350.3400	-0.000004
350.5544	0.001537
350.7687	0.000777
350.9831	-0.000404
351.1975	-0.000489
351.4119	-0.001164
351.6263	0.000186
351.8407	0.000566
352.0552	0.001410
352.2696	0.000798
352.4841	0.000630
352.6986	0.001115
352.9131	0.000355
353.1276	-0.000025
353.3421	-0.000215
353.5566	0.001474
353.7712	-0.000700
353.9858	0.000186
354.2003	0.000630
354.4149	0.000229
354.6295	0.000967
354.8441	0.000018
355.0588	-0.000215
355.2734	0.000165
355.4881	-0.000151
355.7027	0.000714
355.9174	-0.000594
356.1321	0.000355
356.3468	0.000229
356.5615	0.000313
356.7763	-0.000700
356.9910	0.000229
357.2058	-0.000594
357.4206	0.000334
357.6353	-0.000025
357.8501	-0.000193
358.0650	0.000608
358.2798	0.001284
358.4946	0.000735
358.7095	0.000144
358.9243	-0.000088
359.1392	0.001284
359.3541	-0.000236
359.5690	-0.000130
359.7839	-0.000046
359.9989	-0.000383
360.2138	0.000946
360.4288	-0.000088
360.6438	0.001009
360.8587	0.000798
361.0737	-0.000784
361.2888	0.000503
361.5038	0.001136
361.7188	0.000060
361.9339	-0.000236
362.1489	0.000250
362.3640	-0.001628
362.5791	0.000355
362.7942	-0.000341
363.0093	0.000397
363.2245	0.000334
363.4396	0.000714
363.6548	-0.000531
363.8699	0.001643
364.0851	0.000503
364.3003	0.000883
364.5155	-0.000320
364.7308	0.001094
364.9460	0.000186
365.1612	-0.000172
365.3765	0.001558
365.5918	0.000355
365.8071	0.000693
366.0224	-0.000109
366.2377	-0.000426
366.4530	-0.000362
366.6684	-0.000489
366.8837	0.000208
367.0991	0.001643
367.3145	0.000292
367.5299	-0.001122
367.7453	-0.000278
367.9607	0.000883
368.1761	0.001368
368.3916	-0.001185
368.6070	0.000735
368.8225	0.000714
369.0380	0.000018
369.2535	0.000714
369.4690	0.001031
369.6845	0.000587
369.9001	0.002529
370.1156	0.000672
370.3312	0.000672
370.5468	-0.001375
370.7624	0.000988
370.9780	-0.000130
371.1936	0.001431
371.4092	-0.000299
371.6249	0.001410
371.8405	0.000419
372.0562	0.001685
372.2719	-0.000004
372.4876	0.001389
372.7033	0.000039
372.9190	0.000904
373.1348	0.000018
373.3505	0.000165
373.5663	0.000461
373.7820	0.001980
373.9978	0.000714
374.2136	0.001242
374.4294	0.002086
374.6453	0.002761
374.8611	0.000862
375.0770	0.002487
375.2928	-0.000594
375.5087	0.002318
375.7246	0.001896
375.9405	0.002022
376.1564	0.001305
376.3724	0.002402
376.5883	0.002655
376.8043	0.003120
377.0203	0.002065
377.2362	0.004428
377.4522	0.002508
377.6682	0.002592
377.8843	0.002613
378.1003	0.003331
378.3164	0.003331
378.5324	0.003289
378.7485	0.004006
378.9646	0.005547
379.1807	0.004006
379.3968	0.004217
379.6129	0.004956
379.8291	0.005715
380.0452	0.005040
380.2614	0.005061
380.4776	0.004513
380.6938	0.004766
380.9100	0.005800
381.1262	0.005441
381.3424	0.006517
381.5587	0.005842
381.7749	0.007741
381.9912	0.006960
382.2075	0.006201
382.4238	0.007678
382.6401	0.006918
382.8564	0.009493
383.0728	0.008733
383.2891	0.007994
383.5055	0.008206
383.7219	0.008269
383.9382	0.009493
384.1546	0.010506
384.3711	0.009936
384.5875	0.010675
384.8039	0.011455
385.0204	0.009830
385.2368	0.009007
385.4533	0.012553
385.6698	0.011687
385.8863	0.010843
386.1028	0.011118
386.3194	0.011983
386.5359	0.012764
386.7525	0.011899
386.9690	0.012933
387.1856	0.013291
387.4022	0.014431
387.6188	0.015950
387.8355	0.015992
388.0521	0.015106
388.2687	0.017174
388.4854	0.016710
388.7021	0.015507
388.9188	0.016689
389.1355	0.015528
389.3522	0.016182
389.5689	0.018250
389.7856	0.017069
390.0024	0.014895
390.2192	0.017301
390.4359	0.015824
390.6527	0.018314
390.8695	0.016520
391.0863	0.018440
391.3032	0.016330
391.5200	0.018419
391.7369	0.018166
391.9537	0.020044
392.1706	0.020867
392.3875	0.021247
392.6044	0.020909
392.8213	0.022724
393.0383	0.023104
393.2552	0.021901
393.4722	0.021880
393.6891	0.021395
393.9061	0.021479
394.1231	0.022577
394.3401	0.021585
394.5572	0.023990
394.7742	0.023758
394.9912	0.025025
395.2083	0.024560
395.4254	0.023969
395.6425	0.022176
395.8596	0.023379
396.0767	0.023653
396.2938	0.023125
396.5109	0.021944
396.7281	0.025425
396.9453	0.023927
397.1624	0.025784
397.3796	0.024898
397.5968	0.027451
397.8140	0.026249
398.0313	0.026565
398.2485	0.028802
398.4658	0.029836
398.6830	0.030680
398.9003	0.028950
399.1176	0.029435
399.3349	0.027873
399.5522	0.028844
399.7696	0.029055
399.9869	0.027240
400.2043	0.027114
400.4216	0.027768
400.6390	0.028950
400.8564	0.028739
401.0738	0.031102
401.2912	0.028760
401.5087	0.029942
401.7261	0.028211
401.9436	0.029013
402.1610	0.028485
402.3785	0.028190
402.5960	0.028507
402.8135	0.026818
403.0310	0.028042
403.2486	0.028570
403.4661	0.029984
403.6837	0.029519
403.9013	0.029920
404.1189	0.030469
404.3365	0.031018
404.5541	0.031693
404.7717	0.030005
404.9893	0.031524
405.2070	0.031946
405.4246	0.030786
405.6423	0.033318
405.8600	0.031440
406.0777	0.032094
406.2954	0.033571
406.5131	0.030258
406.7309	0.030553
406.9486	0.030596
407.1664	0.028401
407.3842	0.029287
407.6020	0.029245
407.8198	0.031609
408.0376	0.028443
408.2554	0.029794
408.4733	0.030933
408.6911	0.031398
408.9090	0.031609
409.1269	0.032917
409.3448	0.030427
409.5627	0.030659
409.7806	0.030216
409.9985	0.031714
410.2165	0.030765
410.4344	0.030406
410.6524	0.029583
410.8704	0.030997
411.0884	0.030342
411.3064	0.031229
411.5244	0.031651
411.7424	0.030553
411.9605	0.031925
412.1785	0.032706
412.3966	0.030997
412.6147	0.031102
412.8328	0.033951
413.0509	0.032284
413.2690	0.033023
413.4871	0.034289
413.7053	0.032558
413.9234	0.033930
414.1416	0.032812
414.3598	0.032031
414.5780	0.032242
414.7962	0.032495
415.0144	0.031229
415.2326	0.031862
415.4509	0.033402
415.6692	0.032368
415.8874	0.030807
416.1057	0.033719
416.3240	0.032980
416.5423	0.034289
416.7606	0.031714
416.9790	0.032812
417.1973	0.032242
417.4157	0.032010
417.6341	0.033255
417.8524	0.031461
418.0708	0.033803
418.2893	0.032010
418.5077	0.032706
418.7261	0.032052
418.9446	0.034669
419.1630	0.033297
419.3815	0.035428
419.6000	0.035006
419.8185	0.032917
420.0370	0.034521
420.2555	0.034204
420.4741	0.036251
420.6926	0.035724
420.9112	0.035977
421.1298	0.038404
421.3483	0.038931
421.5669	0.038193
421.7856	0.040831
422.0042	0.040936
422.2228	0.041506
422.4415	0.037876
422.6601	0.040430
422.8788	0.040873
423.0975	0.042245
423.3162	0.039986
423.5349	0.040514
423.7536	0.038383
423.9724	0.036019
424.1911	0.035660
424.4099	0.038699
424.6287	0.037285
424.8475	0.037539
425.0663	0.038910
425.2851	0.036061
425.5039	0.036082
425.7228	0.038277
425.9416	0.032685
426.1605	0.035133
426.3793	0.033677
426.5982	0.035850
426.8171	0.032706
427.0361	0.033023
427.2550	0.035745
427.4739	0.038193
427.6929	0.037412
427.9118	0.035977
428.1308	0.034753
428.3498	0.035386
428.5688	0.035027
428.7878	0.036209
429.0068	0.036568
429.2259	0.036547
429.4449	0.035576
429.6640	0.041506
429.8831	0.041337
430.1022	0.042076
430.3213	0.041274
430.5404	0.041865
430.7595	0.042793
430.9787	0.041970
431.1978	0.040113
431.4170	0.039459
431.6362	0.037707
431.8553	0.035597
432.0745	0.033107
432.2938	0.033782
432.5130	0.033909
432.7322	0.034584
432.9515	0.033677
433.1707	0.034331
433.3900	0.033571
433.6093	0.040788
433.8286	0.043300
434.0479	0.041590
434.2673	0.039965
434.4866	0.039375
434.7059	0.035048
434.9253	0.038319
435.1447	0.035829
435.3641	0.037728
435.5835	0.036104
435.8029	0.038889
436.0223	0.037285
436.2418	0.036863
436.4612	0.039142
436.6807	0.038636
436.9001	0.040324
437.1196	0.036061
437.3391	0.038362
437.5586	0.036652
437.7782	0.038045
437.9977	0.037095
438.2173	0.038530
438.4368	0.038383
438.6564	0.041210
438.8760	0.037750
439.0956	0.039839
439.3152	0.040345
439.5348	0.039797
439.7545	0.037750
439.9741	0.038741
440.1938	0.038847
440.4135	0.036547
440.6331	0.039775
440.8528	0.039438
441.0725	0.041780
441.2923	0.045811
441.5120	0.046212
441.7318	0.048660
441.9515	0.047837
442.1713	0.048871
442.3911	0.045136
442.6109	0.046697
442.8307	0.044735
443.0505	0.042688
443.2703	0.043764
443.4902	0.044608
443.7101	0.045684
443.9299	0.045431
444.1498	0.045748
444.3697	0.046233
444.5896	0.044861
444.8095	0.046275
445.0295	0.045431
445.2494	0.046191
445.4694	0.044587
445.6894	0.044756
445.9093	0.042645
446.1293	0.045473
446.3493	0.043574
446.5694	0.043574
446.7894	0.046212
447.0094	0.044165
447.2295	0.042540
447.4496	0.041485
447.6696	0.043574
447.8897	0.042730
448.1098	0.041696
448.3300	0.040050
448.5501	0.039522
448.7702	0.039670
448.9904	0.041210
449.2106	0.039438
449.4307	0.041084
449.6509	0.042245
449.8711	0.039775
450.0914	0.040598
450.3116	0.041147
450.5318	0.038383
450.7521	0.039881
450.9724	0.040050
451.1926	0.038024
451.4129	0.038889
451.6332	0.037517
451.8535	0.037834
452.0739	0.039860
452.2942	0.038425
452.5146	0.038615
452.7349	0.036927
452.9553	0.037517
453.1757	0.036652
453.3961	0.036652
453.6165	0.035850
453.8369	0.037074
454.0574	0.034647
454.2778	0.035703
454.4983	0.034014
454.7188	0.034310
454.9393	0.036589
455.1597	0.034943
455.3803	0.037201
455.6008	0.038235
455.8213	0.036779
456.0419	0.036251
456.2624	0.036821
456.4830	0.034141
456.7036	0.034647
456.9242	0.034647
457.1448	0.036526
457.3654	0.036568
457.5860	0.034943
457.8067	0.037623
458.0274	0.037285
458.2480	0.039248
458.4687	0.037222
458.6894	0.040261
458.9101	0.038847
459.1308	0.037264
459.3516	0.037032
459.5723	0.037391
459.7931	0.036272
460.0138	0.038657
460.2346	0.037116
460.4554	0.036441
460.6762	0.034732
460.8970	0.035597
461.1178	0.034858
461.3387	0.035449
461.5595	0.034078
461.7804	0.035217
462.0013	0.034394
462.2222	0.033466
462.4431	0.031355
462.6640	0.032896
462.8849	0.031862
463.1059	0.030891
463.3268	0.032284
463.5478	0.032980
463.7687	0.033993
463.9897	0.036251
464.2107	0.035112
464.4317	0.034901
464.6528	0.035344
464.8738	0.036716
465.0948	0.036167
465.3159	0.036969
465.5370	0.038277
465.7581	0.038298
465.9792	0.039923
466.2003	0.034922
466.4214	0.033508
466.6425	0.030933
466.8637	0.032157
467.0848	0.032094
467.3060	0.030047
467.5272	0.028696
467.7484	0.030047
467.9696	0.028211
468.1908	0.030976
468.4120	0.031609
468.6333	0.029920
468.8545	0.027430
469.0758	0.026860
469.2970	0.029477
469.5183	0.028591
469.7396	0.025067
469.9610	0.025404
470.1823	0.025784
470.4036	0.024814
470.6250	0.024856
470.8463	0.024708
471.0677	0.023927
471.2891	0.025151
471.5105	0.022724
471.7319	0.023125
471.9533	0.023505
472.1748	0.023906
472.3962	0.025468
472.6177	0.027430
472.8391	0.026860
473.0606	0.025953
473.2821	0.027747
473.5036	0.027156
473.7251	0.025172
473.9467	0.027409
474.1682	0.024877
474.3898	0.025489
474.6113	0.023315
474.8329	0.025848
475.0545	0.027726
475.2761	0.027789
475.4977	0.028443
475.7193	0.026206
475.9410	0.024497
476.1626	0.025257
476.3843	0.025046
476.6060	0.025404
476.8277	0.026396
477.0494	0.024054
477.2711	0.024349
477.4928	0.024497
477.7145	0.024202
477.9363	0.025320
478.1580	0.023590
478.3798	0.025510
478.6016	0.024898
478.8234	0.024455
479.0452	0.024012
479.2670	0.023948
479.4888	0.024814
479.7107	0.024729
479.9325	0.024054
480.1544	0.026818
480.3763	0.025974
480.5982	0.026903
480.8201	0.024180
481.0420	0.024413
481.2639	0.025615
481.4859	0.024391
481.7078	0.023421
481.9298	0.025573
482.1517	0.024792
482.3737	0.024792
482.5957	0.024982
482.8177	0.023885
483.0398	0.024455
483.2618	0.024792
483.4838	0.024476
483.7059	0.025130
483.9280	0.022619
484.1501	0.024792
484.3721	0.024898
484.5943	0.026882
484.8164	0.026122
485.0385	0.027409
485.2606	0.026755
485.4828	0.036631
485.7050	0.060984
485.9271	0.082066
486.1493	0.083712
486.3715	0.072000
486.5937	0.054083
486.8160	0.048428
487.0382	0.044270
487.2605	0.043236
487.4827	0.035365
487.7050	0.026037
487.9273	0.025214
488.1496	0.024244
488.3719	0.022682
488.5942	0.021458
488.8165	0.022112
489.0389	0.023146
489.2612	0.022492
489.4836	0.021332
489.7060	0.021669
489.9284	0.021880
490.1508	0.019707
490.3732	0.021944
490.5956	0.020741
490.8180	0.021395
491.0405	0.020171
491.2630	0.021500
491.4854	0.020150
491.7079	0.019263
491.9304	0.018862
492.1529	0.019116
492.3755	0.020234
492.5980	0.018862
492.8205	0.019791
493.0431	0.018651
493.2657	0.020129
493.4882	0.017639
493.7108	0.019411
493.9334	0.019453
494.1561	0.018250
494.3787	0.017195
494.6013	0.017913
494.8240	0.019791
495.0466	0.017934
495.2693	0.017195
495.4920	0.017850
495.7147	0.018504
495.9374	0.015971
496.1601	0.019010
496.3829	0.018947
496.6056	0.020445
496.8284	0.018884
497.0511	0.019538
497.2739	0.017406
497.4967	0.015676
497.7195	0.015106
497.9423	0.017174
498.1652	0.016773
498.3880	0.015824
498.6109	0.017406
498.8337	0.019411
499.0566	0.018250
499.2795	0.018208
499.5024	0.016225
499.7253	0.018546
499.9482	0.019052
500.1712	0.018398
500.3941	0.016837
500.6171	0.017090
500.8400	0.017195
501.0630	0.017786
501.2860	0.016583
501.5090	0.017976
501.7320	0.018039
501.9551	0.017322
502.1781	0.016794
502.4012	0.018356
502.6242	0.016689
502.8473	0.017364
503.0704	0.016056
503.2935	0.018651
503.5166	0.016858
503.7397	0.018335
503.9628	0.015760
504.1860	0.017174
504.4092	0.014726
504.6323	0.015233
504.8555	0.015570
505.0787	0.014811
505.3019	0.016689
505.5251	0.015655
505.7483	0.015423
505.9716	0.015570
506.1948	0.014051
506.4181	0.014958
506.6414	0.015676
506.8647	0.015718
507.0880	0.016520
507.3113	0.013481
507.5346	0.014262
507.7579	0.015148
507.9813	0.015486
508.2046	0.013608
508.4280	0.015507
508.6514	0.015760
508.8748	0.014368
509.0982	0.013249
509.3216	0.012996
509.5450	0.012384
509.7685	0.012067
509.9919	0.013165
510.2154	0.013819
510.4388	0.013545
510.6623	0.013080
510.8858	0.013334
511.1093	0.012511
511.3329	0.012426
511.5564	0.013671
511.7799	0.013270
512.0035	0.013186
512.2270	0.013376
512.4506	0.012299
512.6742	0.011561
512.8978	0.012911
513.1214	0.012722
513.3451	0.014030
513.5687	0.013481
513.7923	0.011687
514.0160	0.013671
514.2397	0.012700
514.4634	0.014072
514.6871	0.014895
514.9108	0.012700
515.1345	0.011793
515.3582	0.011561
515.5819	0.012700
515.8057	0.011645
516.0295	0.012278
516.2532	0.012975
516.4770	0.012637
516.7008	0.012827
516.9246	0.013334
517.1485	0.012173
517.3723	0.010759
517.5961	0.012278
517.8200	0.011920
518.0439	0.011856
518.2677	0.013334
518.4916	0.009830
518.7155	0.010843
518.9395	0.011751
519.1634	0.011308
519.3873	0.012679
519.6113	0.012637
519.8352	0.013291
520.0592	0.011033
520.2832	0.011160
520.5072	0.011350
520.7312	0.010231
520.9552	0.011413
521.1792	0.012046
521.4033	0.010653
521.6273	0.012257
521.8514	0.010105
522.0755	0.011160
522.2996	0.010548
522.5237	0.010696
522.7478	0.011097
522.9719	0.010696
523.1960	0.011793
523.4202	0.010970
523.6443	0.011033
523.8685	0.011793
524.0927	0.009852
524.3169	0.011772
524.5411	0.013228
524.7653	0.011012
524.9895	0.010295
525.2138	0.013671
525.4380	0.011540
525.6623	0.012700
525.8865	0.011097
526.1108	0.009493
526.3351	0.012278
526.5594	0.010864
526.7837	0.012004
527.0081	0.012384
527.2324	0.012299
527.4568	0.013291
527.6811	0.012827
527.9055	0.012975
528.1299	0.011983
528.3543	0.013545
528.5787	0.013059
528.8031	0.014325
529.0276	0.015085
529.2520	0.012764
529.4765	0.013713
529.7009	0.013080
529.9254	0.013903
530.1499	0.012954
530.3744	0.013207
530.5989	0.012152
530.8234	0.013523
531.0480	0.013355
531.2725	0.012088
531.4971	0.013713
531.7217	0.015212
531.9462	0.012553
532.1708	0.012933
532.3954	0.013165
532.6200	0.013418
532.8447	0.013946
533.0693	0.015507
533.2940	0.015127
533.5186	0.016668
533.7433	0.016520
533.9680	0.016984
534.1927	0.016921
534.4174	0.016499
534.6421	0.017681
534.8668	0.017702
535.0916	0.017216
535.3163	0.019517
535.5411	0.018609
535.7659	0.018018
535.9907	0.017132
536.2155	0.016794
536.4403	0.016098
536.6651	0.017174
536.8899	0.016457
537.1148	0.015655
537.3396	0.015254
537.5645	0.017786
537.7894	0.015908
538.0143	0.016604
538.2392	0.018293
538.4641	0.019664
538.6890	0.018250
538.9139	0.018588
539.1389	0.019854
539.3638	0.020171
539.5888	0.020931
539.8138	0.019411
540.0388	0.020382
540.2638	0.018272
540.4888	0.019981
540.7138	0.019496
540.9389	0.019474
541.1639	0.022830
541.3890	0.020276
541.6140	0.019074
541.8391	0.022387
542.0642	0.020994
542.2893	0.022767
542.5144	0.022366
542.7396	0.022978
542.9647	0.022302
543.1899	0.024328
543.4150	0.022851
543.6402	0.022260
543.8654	0.025341
544.0906	0.023611
544.3158	0.025214
544.5410	0.025362
544.7662	0.025341
544.9915	0.026375
545.2167	0.024391
545.4420	0.024792
545.6673	0.024497
545.8926	0.024349
546.1179	0.021163
546.3432	0.023273
546.5685	0.025425
546.7938	0.022450
547.0192	0.024687
547.2445	0.024413
547.4699	0.025257
547.6953	0.026797
547.9206	0.028760
548.1460	0.030701
548.3715	0.032769
548.5969	0.029034
548.8223	0.031545
549.0478	0.028063
549.2732	0.027958
549.4987	0.027409
549.7242	0.026903
549.9496	0.028000
550.1751	0.028696
550.4007	0.026164
550.6262	0.027430
550.8517	0.028295
551.0773	0.027726
551.3028	0.026966
551.5284	0.025911
551.7540	0.026649
551.9796	0.029794
552.2052	0.030638
552.4308	0.033023
552.6564	0.032833
552.8820	0.031777
553.1077	0.030321
553.3333	0.031777
553.5590	0.030997
553.7847	0.032537
554.0104	0.033255
554.2361	0.032622
554.4618	0.029330
554.6875	0.027852
554.9132	0.030722
555.1390	0.030954
555.3648	0.032305
555.5905	0.034690
555.8163	0.032326
556.0421	0.033381
556.2679	0.033951
556.4937	0.034394
556.7195	0.034141
556.9454	0.030997
557.1712	0.033128
557.3971	0.031904
557.6230	0.034394
557.8488	0.035555
558.0747	0.034331
558.3006	0.034647
558.5266	0.031461
558.7525	0.032980
558.9784	0.031756
559.2044	0.030448
559.4303	0.031419
559.6563	0.030342
559.8823	0.034162
560.1083	0.035196
560.3343	0.038763
560.5603	0.038319
560.7863	0.041232
561.0124	0.039965
561.2384	0.039121
561.4645	0.042266
561.6905	0.042793
561.9166	0.040556
562.1427	0.040704
562.3688	0.040577
562.5949	0.038404
562.8211	0.039839
563.0472	0.040134
563.2733	0.039037
563.4995	0.039733
563.7257	0.042519
563.9519	0.042941
564.1781	0.041548
564.4043	0.046528
564.6305	0.045769
564.8567	0.046106
565.0829	0.045304
565.3092	0.044671
565.5355	0.045663
565.7617	0.047330
565.9880	0.045790
566.2143	0.045790
566.4406	0.048006
566.6669	0.047921
566.8932	0.050981
567.1196	0.051466
567.3459	0.057840
567.5723	0.060667
567.7987	0.063791
568.0250	0.064592
568.2514	0.063495
568.4778	0.068032
568.7043	0.073034
568.9307	0.078119
569.1571	0.079554
569.3836	0.088164
569.6100	0.092617
569.8365	0.104836
570.0630	0.111800
570.2895	0.112369
570.5160	0.114058
570.7425	0.115007
570.9690	0.122457
571.1956	0.131235
571.4221	0.137419
571.6487	0.140647
571.8752	0.145754
572.1018	0.149574
572.3284	0.147991
572.5550	0.139529
572.7816	0.131151
573.0082	0.127374
573.2349	0.137925
573.4615	0.146873
573.6882	0.162637
573.9149	0.163966
574.1415	0.172260
574.3682	0.178000
574.5949	0.184140
574.8216	0.184119
575.0484	0.182178
575.2751	0.190767
575.5018	0.183803
575.7286	0.173294
575.9554	0.164831
576.1821	0.166773
576.4089	0.174222
576.6357	0.184351
576.8626	0.191632
577.0894	0.195979
577.3162	0.197857
577.5431	0.206024
577.7699	0.228246
577.9968	0.263129
578.2237	0.251881
578.4505	0.236138
578.6774	0.218834
578.9044	0.208451
579.1313	0.199524
579.3582	0.200770
579.5851	0.208641
579.8121	0.211574
580.0391	0.216175
580.2660	0.211511
580.4930	0.214275
580.7200	0.208557
580.9470	0.211363
581.1741	0.250171
581.4011	0.302021
581.6281	0.333211
581.8552	0.331713
582.0822	0.323694
582.3093	0.310378
582.5364	0.288558
582.7635	0.265323
582.9906	0.245824
583.2177	0.232403
583.4449	0.213600
583.6720	0.197161
583.8991	0.190746
584.1263	0.194164
584.3535	0.195198
584.5807	0.201909
584.8079	0.215267
585.0351	0.229512
585.2623	0.236560
585.4895	0.239789
585.7167	0.240907
585.9440	0.232740
586.1713	0.218095
586.3985	0.203471
586.6258	0.198279
586.8531	0.204568
587.0804	0.215879
587.3077	0.223202
587.5350	0.231685
587.7624	0.229153
587.9897	0.215753
588.2171	0.206425
588.4445	0.199799
588.6718	0.201403
588.8992	0.190682
589.1266	0.172872
589.3540	0.163882
589.5815	0.162025
589.8089	0.166984
590.0363	0.160526
590.2638	0.151811
590.4913	0.146535
590.7187	0.145206
590.9462	0.136638
591.1737	0.129695
591.4012	0.131446
591.6288	0.129695
591.8563	0.128788
592.0838	0.126804
592.3114	0.135266
592.5389	0.151832
592.7665	0.180912
592.9941	0.198976
593.2217	0.203112
593.4493	0.202838
593.6769	0.195810
593.9046	0.191273
594.1322	0.181228
594.3598	0.171816
594.5875	0.173294
594.8152	0.182895
595.0429	0.190682
595.2705	0.193721
595.4983	0.193320
595.7260	0.180321
595.9537	0.171331
596.1814	0.161455
596.4092	0.149405
596.6369	0.140310
596.8647	0.140500
597.0925	0.142462
597.3203	0.147696
597.5481	0.146873
597.7759	0.147105
598.0037	0.140035
598.2315	0.131805
598.4594	0.136575
598.6872	0.152402
598.9151	0.173251
599.1430	0.183001
599.3709	0.176944
599.5988	0.172534
599.8267	0.175214
600.0546	0.178063
600.2825	0.179223
600.5105	0.174729
600.7384	0.175953
600.9664	0.178569
601.1944	0.184415
601.4223	0.178886
601.6503	0.174095
601.8783	0.169242
602.1064	0.162025
602.3344	0.160864
602.5624	0.161603
602.7905	0.166351
603.0185	0.171732
603.2466	0.176353
603.4747	0.180891
603.7028	0.185048
603.9309	0.177303
604.1590	0.165802
604.3871	0.166372
604.6152	0.156812
604.8434	0.153963
605.0715	0.146197
605.2997	0.154090
605.5279	0.157551
605.7561	0.167300
605.9843	0.172027
606.2125	0.168904
606.4407	0.161666
606.6689	0.153562
606.8972	0.149785
607.1254	0.152402
607.3537	0.152571
607.5819	0.154702
607.8102	0.151684
608.0385	0.151558
608.2668	0.143792
608.4951	0.140668
608.7235	0.138748
608.9518	0.137081
609.1801	0.134971
609.4085	0.132502
609.6369	0.128577
609.8653	0.131172
610.0936	0.145923
610.3220	0.147569
610.5505	0.141745
610.7789	0.137630
611.0073	0.133599
611.2357	0.131573
611.4642	0.131320
611.6927	0.132881
611.9211	0.130307
612.1496	0.130940
612.3781	0.125707
612.6066	0.126424
612.8351	0.124820
613.0637	0.126698
613.2922	0.122457
613.5208	0.122372
613.7493	0.125369
613.9779	0.122731
614.2065	0.120853
614.4351	0.125664
614.6637	0.120156
614.8923	0.121760
615.1209	0.121507
615.3495	0.122309
615.5782	0.128872
615.8068	0.127500
616.0355	0.117962
616.2642	0.116189
616.4929	0.113066
616.7216	0.107220
616.9503	0.103591
617.1790	0.106988
617.4077	0.103949
617.6365	0.106651
617.8652	0.105954
618.0940	0.107917
618.3227	0.104118
618.5515	0.096648
618.7803	0.093947
619.0091	0.090781
619.2379	0.085632
619.4667	0.084070
619.6956	0.084746
619.9244	0.090591
620.1533	0.092765
620.3821	0.095909
620.6110	0.090338
620.8399	0.084535
621.0688	0.076516
621.2977	0.070733
621.5266	0.071915
621.7556	0.075650
621.9845	0.079217
622.2135	0.078605
622.4424	0.080968
622.6714	0.081665
622.9004	0.083501
623.1294	0.085928
623.3584	0.085126
623.5874	0.083733
623.8164	0.084155
624.0454	0.082298
624.2745	0.080652
624.5035	0.084260
624.7326	0.087278
624.9617	0.087025
625.1908	0.082889
625.4199	0.078162
625.6490	0.078774
625.8781	0.077697
626.1072	0.073688
626.3364	0.070586
626.5655	0.069910
626.7947	0.067062
627.0238	0.066407
627.2530	0.066450
627.4822	0.070966
627.7114	0.068560
627.9406	0.065922
628.1698	0.060182
628.3991	0.056953
628.6283	0.055012
628.8576	0.055919
629.0868	0.058156
629.3161	0.053872
629.5454	0.061153
629.7747	0.059021
630.0040	0.058958
630.2333	0.057038
630.4626	0.057882
630.6920	0.054505
630.9213	0.053999
631.1507	0.051699
631.3801	0.049905
631.6094	0.050369
631.8388	0.051762
632.0682	0.049462
632.2976	0.050812
632.5271	0.046972
632.7565	0.046676
632.9859	0.043342
633.2154	0.044144
633.4448	0.040852
633.6743	0.043173
633.9038	0.042413
634.1333	0.042751
634.3628	0.040767
634.5923	0.040810
634.8218	0.040240
635.0514	0.039986
635.2809	0.037454
635.5105	0.037644
635.7400	0.038868
635.9696	0.039902
636.1992	0.042392
636.4288	0.046360
636.6584	0.043426
636.8880	0.043257
637.1177	0.041295
637.3473	0.040767
637.5770	0.039670
637.8066	0.037517
638.0363	0.038108
638.2660	0.040008
638.4957	0.040810
638.7254	0.039058
638.9551	0.040008
639.1848	0.040198
639.4145	0.036167
639.6443	0.036259
639.8740	0.036490
640.1038	0.033289
640.3336	0.036059
640.5633	0.034777
640.7931	0.033819
641.0229	0.030699
641.2528	0.033793
641.4826	0.031506
641.7124	0.030754
641.9423	0.031533
642.1721	0.031379
642.4020	0.030384
642.6319	0.029485
642.8617	0.027274
643.0916	0.027418
643.3216	0.027561
643.5515	0.027678
643.7814	0.028604
644.0113	0.027754
644.2413	0.026429
644.4712	0.026911
644.7012	0.024429
644.9312	0.026393
645.1612	0.026097
645.3912	0.028430
645.6212	0.026109
645.8512	0.024549
646.0812	0.024482
646.3113	0.023060
646.5413	0.023449
646.7714	0.022746
647.0015	0.022491
647.2316	0.022793
647.4616	0.021075
647.6918	0.023494
647.9219	0.025455
648.1520	0.028533
648.3821	0.031416
648.6123	0.029531
648.8424	0.030150
649.0726	0.031042
649.3028	0.033303
649.5329	0.032066
649.7631	0.031697
649.9933	0.030476
650.2236	0.029067
650.4538	0.028937
650.6840	0.026709
650.9143	0.029204
651.1445	0.027314
651.3748	0.028481
651.6051	0.026827
651.8354	0.031120
652.0657	0.028027
652.2960	0.030746
652.5263	0.031580
652.7566	0.030937
652.9870	0.029886
653.2173	0.030713
653.4477	0.030437
653.6780	0.031249
653.9084	0.031384
654.1388	0.030486
654.3692	0.031393
654.5996	0.035220
654.8300	0.038773
655.0605	0.061909
655.2909	0.173504
655.5213	0.495841
655.7518	0.939074
655.9823	1.000000
656.2128	1.000000
656.4433	1.000000
656.6738	1.000000
656.9043	1.000000
657.1348	0.822301
657.3653	0.664409
657.5959	0.568731
657.8264	0.498772
658.0570	0.458740
658.2875	0.422913
658.5181	0.373702
658.7487	0.350834
658.9793	0.340014
659.2099	0.295475
659.4406	0.213555
659.6712	0.137683
659.9018	0.078249
660.1325	0.048623
660.3632	0.034886
660.5938	0.028302
660.8245	0.024038
661.0552	0.021834
661.2859	0.023007
661.5166	0.022209
661.7474	0.021952
661.9781	0.020125
662.2088	0.020963
662.4396	0.021191
662.6704	0.019631
662.9011	0.021819
663.1319	0.020957
663.3627	0.020891
663.5935	0.019105
663.8243	0.020842
664.0552	0.019727
664.2860	0.021849
664.5168	0.021821
664.7477	0.021108
664.9786	0.019430
665.2094	0.021672
665.4403	0.022742
665.6712	0.023116
665.9021	0.020783
666.1330	0.021997
666.3640	0.022175
666.5949	0.021202
666.8259	0.019908
667.0568	0.019143
667.2878	0.020177
667.5188	0.020995
667.7497	0.019707
667.9807	0.018797
668.2117	0.019799
668.4428	0.019158
668.6738	0.017491
668.9048	0.020804
669.1359	0.020445
669.3669	0.017850
669.5980	0.020129
669.8291	0.019643
670.0602	0.020677
670.2913	0.019432
670.5224	0.019453
670.7535	0.020509
670.9846	0.021838
671.2157	0.022366
671.4469	0.025214
671.6781	0.026818
671.9092	0.027346
672.1404	0.030954
672.3716	0.032031
672.6028	0.033044
672.8340	0.032643
673.0652	0.030828
673.2964	0.030701
673.5277	0.027958
673.7589	0.027409
673.9902	0.029730
674.2214	0.027747
674.4527	0.026375
674.6840	0.024729
674.9153	0.024413
675.1466	0.024180
675.3779	0.026438
675.6093	0.024180
675.8406	0.024349
676.0719	0.023843
676.3033	0.022956
676.5347	0.022914
676.7661	0.021521
676.9974	0.023041
677.2288	0.021648
677.4602	0.023948
677.6917	0.027072
677.9231	0.026164
678.1545	0.026713
678.3860	0.027177
678.6174	0.027852
678.8489	0.030258
679.0804	0.029878
679.3119	0.030406
679.5434	0.032516
679.7749	0.033128
680.0064	0.033677
680.2379	0.033656
680.4694	0.031883
680.7010	0.034479
680.9325	0.032453
681.1641	0.033086
681.3957	0.034479
681.6273	0.033044
681.8589	0.033803
682.0905	0.029266
682.3221	0.031904
682.5537	0.029097
682.7854	0.029182
683.0170	0.026249
683.2487	0.028169
683.4803	0.029688
683.7120	0.030954
683.9437	0.030448
684.1754	0.030490
684.4071	0.034057
684.6388	0.035112
684.8705	0.036631
685.1023	0.038235
685.3340	0.040155
685.5658	0.043511
685.7975	0.042245
686.0293	0.043426
686.2611	0.040725
686.4929	0.041928
686.7247	0.040641
686.9565	0.041189
687.1883	0.042688
687.4202	0.041232
687.6520	0.040936
687.8838	0.037517
688.1157	0.036905
688.3476	0.036927
688.5795	0.033656
688.8114	0.036251
689.0433	0.034563
689.2752	0.034732
689.5071	0.032769
689.7390	0.034626
689.9710	0.032242
690.2029	0.031630
690.4349	0.031355
690.6669	0.033487
690.8988	0.033212
691.1308	0.034563
691.3628	0.037475
691.5948	0.036631
691.8269	0.035407
692.0589	0.036082
692.2909	0.033909
692.5230	0.037792
692.7550	0.036716
692.9871	0.035639
693.2192	0.038826
693.4513	0.035956
693.6834	0.035555
693.9155	0.034373
694.1476	0.032453
694.3797	0.032980
694.6119	0.031524
694.8440	0.032769
695.0762	0.033170
695.3083	0.033677
695.5405	0.032622
695.7727	0.027641
696.0049	0.028106
696.2371	0.028190
696.4693	0.029161
696.7016	0.032453
696.9338	0.036948
697.1660	0.039754
697.3983	0.036315
697.6306	0.035365
697.8628	0.038193
698.0951	0.036019
698.3274	0.034753
698.5597	0.035112
698.7920	0.035428
699.0243	0.035576
699.2567	0.035935
699.4890	0.033149
699.7214	0.031545
699.9537	0.031377
700.1861	0.030131
700.4185	0.030553
700.6509	0.031355
700.8833	0.030216
701.1157	0.026903
701.3481	0.027683
701.5806	0.024750
701.8130	0.028338
702.0454	0.026544
702.2779	0.027472
702.5104	0.027578
702.7429	0.030448
702.9753	0.028675
703.2078	0.026797
703.4403	0.027515
703.6729	0.028021
703.9054	0.028612
704.1379	0.026713
704.3705	0.026882
704.6030	0.025383
704.8356	0.024202
705.0682	0.021416
705.3008	0.022323
705.5334	0.021648
705.7660	0.020741
705.9986	0.023167
706.2312	0.025658
706.4638	0.028443
706.6965	0.032537
706.9291	0.035893
707.1618	0.033044
707.3945	0.036441
707.6272	0.036019
707.8599	0.036568
708.0926	0.037032
708.3253	0.035154
708.5580	0.036040
708.7907	0.034542
709.0235	0.032052
709.2562	0.030786
709.4890	0.033170
709.7217	0.031609
709.9545	0.031609
710.1873	0.032748
710.4201	0.033423
710.6529	0.033001
710.8857	0.030596
711.1186	0.031165
711.3514	0.030068
711.5842	0.030047
711.8171	0.029161
712.0500	0.027261
712.2828	0.026270
712.5157	0.027747
712.7486	0.029203
712.9815	0.026797
713.2144	0.029182
713.4474	0.028760
713.6803	0.030743
713.9132	0.032622
714.1462	0.034964
714.3791	0.032453
714.6121	0.032643
714.8451	0.032938
715.0781	0.033276
715.3111	0.034584
715.5441	0.034078
715.7771	0.030954
716.0102	0.030511
716.2432	0.026396
716.4762	0.028760
716.7093	0.027261
716.9424	0.025151
717.1754	0.025362
717.4085	0.026628
717.6416	0.025531
717.8747	0.026565
718.1078	0.027662
718.3410	0.027367
718.5741	0.025214
718.8072	0.027008
719.0404	0.028971
719.2736	0.028084
719.5067	0.027240
719.7399	0.027979
719.9731	0.025637
720.2063	0.027198
720.4395	0.028063
720.6727	0.028063
720.9060	0.029245
721.1392	0.029034
721.3725	0.027135
721.6057	0.026882
721.8390	0.029942
722.0723	0.027895
722.3055	0.027135
722.5388	0.027008
722.7721	0.025658
723.0055	0.026249
723.2388	0.026059
723.4721	0.025341
723.7055	0.025763
723.9388	0.028000
724.1722	0.025236
724.4056	0.025214
724.6389	0.027283
724.8723	0.026987
725.1057	0.027789
725.3391	0.031144
725.5726	0.031060
725.8060	0.030638
726.0394	0.031440
726.2729	0.032769
726.5063	0.031355
726.7398	0.031524
726.9733	0.029730
727.2068	0.029667
727.4403	0.029646
727.6738	0.029372
727.9073	0.032263
728.1408	0.033128
728.3743	0.031714
728.6079	0.030406
728.8414	0.032368
729.0750	0.033930
729.3086	0.032432
729.5421	0.035048
729.7757	0.033360
730.0093	0.035703
730.2429	0.034584
730.4766	0.034014
730.7102	0.036884
730.9438	0.040008
731.1775	0.043068
731.4111	0.038488
731.6448	0.040472
731.8785	0.041189
732.1122	0.040451
732.3458	0.037433
732.5795	0.038045
732.8133	0.038910
733.0470	0.040008
733.2807	0.040430
733.5145	0.041844
733.7482	0.042688
733.9820	0.045663
734.2157	0.047119
734.4495	0.047984
734.6833	0.049314
734.9171	0.048660
735.1509	0.045537
735.3847	0.044481
735.6185	0.045178
735.8524	0.047183
736.0862	0.044756
736.3201	0.045452
736.5539	0.046655
736.7878	0.043680
737.0217	0.047647
737.2556	0.047204
737.4895	0.043384
737.7234	0.043511
737.9573	0.040472
738.1912	0.043595
738.4252	0.037897
738.6591	0.039586
738.8931	0.039628
739.1271	0.043701
739.3610	0.044270
739.5950	0.043342
739.8290	0.042519
740.0630	0.041400
740.2970	0.040915
740.5310	0.038657
740.7651	0.035956
740.9991	0.035175
741.2332	0.033846
741.4672	0.034141
741.7013	0.033487
741.9354	0.032326
742.1695	0.030427
742.4036	0.032875
742.6377	0.033698
742.8718	0.033044
743.1059	0.031545
743.3400	0.031440
743.5742	0.029161
743.8083	0.028675
744.0425	0.030575
744.2767	0.024687
744.5108	0.028443
744.7450	0.027578
744.9792	0.027515
745.2134	0.029034
745.4477	0.026607
745.6819	0.027261
745.9161	0.026460
746.1504	0.027388
746.3846	0.026122
746.6189	0.026945
746.8532	0.024687
747.0874	0.025995
747.3217	0.028907
747.5560	0.029857
747.7903	0.029456
748.0247	0.029815
748.2590	0.028696
748.4933	0.026818
748.7277	0.027367
748.9620	0.028000
749.1964	0.027873
749.4308	0.030089
749.6652	0.031735
749.8995	0.034647
750.1339	0.036336
750.3684	0.038172
750.6028	0.040303
750.8372	0.035977
751.0717	0.034099
751.3061	0.036272
751.5406	0.037940
751.7750	0.035555
752.0095	0.040345
752.2440	0.035998
752.4785	0.037707
752.7130	0.036673
752.9475	0.034858
753.1820	0.033719
753.4166	0.036188
753.6511	0.037876
753.8856	0.040324
754.1202	0.041400
754.3548	0.036863
754.5894	0.035070
754.8239	0.037897
755.0585	0.038151
755.2931	0.038974
755.5278	0.039269
755.7624	0.040999
755.9970	0.041253
756.2317	0.041527
756.4663	0.044545
756.7010	0.046106
756.9356	0.046592
757.1703	0.050116
757.4050	0.052796
757.6397	0.058008
757.8744	0.059654
758.1091	0.053218
758.3438	0.052775
758.5786	0.054864
758.8133	0.048174
759.0481	0.049398
759.2828	0.053176
759.5176	0.057143
759.7524	0.057228
759.9872	0.057903
760.2220	0.057755
760.4568	0.060815
760.6916	0.058874
760.9264	0.060836
761.1613	0.058135
761.3961	0.058198
761.6310	0.052690
761.8658	0.048786
762.1007	0.047773
762.3356	0.045431
762.5705	0.046254
762.8054	0.045811
763.0403	0.044714
763.2752	0.049187
763.5101	0.047668
763.7450	0.048111
763.9800	0.046972
764.2149	0.048829
764.4499	0.051382
764.6849	0.053513
764.9198	0.057164
765.1548	0.055392
765.3898	0.054336
765.6248	0.053028
765.8599	0.048533
766.0949	0.046360
766.3299	0.040999
766.5650	0.043447
766.8000	0.038995
767.0351	0.039142
767.2701	0.037180
767.5052	0.034690
767.7403	0.035470
767.9754	0.036694
768.2105	0.040556
768.4456	0.045283
768.6808	0.046212
768.9159	0.046338
769.1510	0.046127
769.3862	0.043827
769.6214	0.045410
769.8565	0.044059
770.0917	0.043110
770.3269	0.041147
770.5621	0.044228
770.7973	0.042709
771.0325	0.048196
771.2677	0.046001
771.5030	0.045684
771.7382	0.042856
771.9735	0.040788
772.2087	0.040873
772.4440	0.038425
772.6793	0.038404
772.9146	0.040261
773.1499	0.037116
773.3852	0.036694
773.6205	0.035492
773.8558	0.036420
774.0911	0.033677
774.3265	0.030638
774.5618	0.031039
774.7972	0.031039
775.0326	0.028211
775.2679	0.029773
775.5033	0.026776
775.7387	0.028359
775.9741	0.025552
776.2095	0.025278
776.4450	0.022999
776.6804	0.023526
776.9158	0.024054
777.1513	0.023864
777.3868	0.022703
777.6222	0.022007
777.8577	0.023674
778.0932	0.024075
778.3287	0.025974
778.5642	0.024560
778.7997	0.027472
779.0352	0.030638
779.2707	0.028823
779.5063	0.028443
779.7418	0.029942
779.9774	0.030490
780.2130	0.024602
780.4485	0.025953
780.6841	0.027177
780.9197	0.029013
781.1553	0.030680
781.3909	0.031883
781.6265	0.034605
781.8622	0.033001
782.0978	0.032622
782.3335	0.034225
782.5691	0.033487
782.8048	0.034099
783.0405	0.032664
783.2761	0.031777
783.5118	0.030406
783.7475	0.032917
783.9832	0.032453
784.2190	0.030828
784.4547	0.029583
784.6904	0.028232
784.9262	0.027388
785.1619	0.028317
785.3977	0.026249
785.6335	0.027093
785.8692	0.026523
786.1050	0.027873
786.3408	0.026333
786.5766	0.027029
786.8124	0.026312
787.0483	0.025193
787.2841	0.026945
787.5199	0.029878
787.7558	0.027451
787.9917	0.029604
788.2275	0.029118
788.4634	0.030532
788.6993	0.028886
788.9352	0.031756
789.1711	0.027557
789.4070	0.028190
789.6429	0.026122
789.8789	0.026481
790.1148	0.023505
790.3507	0.024413
790.5867	0.024518
790.8227	0.024645
791.0586	0.023590
791.2946	0.023379
791.5306	0.022598
791.7666	0.022830
792.0026	0.021732
792.2387	0.021901
792.4747	0.022007
792.7107	0.020741
792.9468	0.019052
793.1828	0.022281
793.4189	0.020192
793.6550	0.021901
793.8910	0.023948
794.1271	0.028781
794.3632	0.030469
794.5993	0.029942
794.8355	0.029287
795.0716	0.029709
795.3077	0.030342
795.5439	0.028443
795.7800	0.026903
796.0162	0.025151
796.2523	0.024180
796.4885	0.021690
796.7247	0.020466
796.9609	0.018841
797.1971	0.021015
797.4333	0.021268
797.6695	0.022281
797.9058	0.023463
798.1420	0.020319
798.3783	0.020424
798.6145	0.022408
798.8508	0.021817
799.0871	0.022914
799.3233	0.021796
799.5596	0.020171
799.7959	0.018039
800.0322	0.017681
800.2686	0.018462
800.5049	0.018715
800.7412	0.017554
800.9776	0.017554
801.2139	0.017955
801.4503	0.018483
801.6867	0.017639
801.9230	0.016457
802.1594	0.016246
802.3958	0.015296
802.6322	0.014705
802.8686	0.015338
803.1051	0.017871
803.3415	0.015697
803.5779	0.017976
803.8144	0.017427
804.0508	0.014515
804.2873	0.015359
804.5238	0.016309
804.7603	0.016204
804.9968	0.016773
805.2333	0.015971
805.4698	0.015739
805.7063	0.016752
805.9428	0.018673
806.1794	0.020509
806.4159	0.021775
806.6525	0.022070
806.8890	0.021458
807.1256	0.021690
807.3622	0.023104
807.5988	0.021585
807.8354	0.019496
808.0720	0.022112
808.3086	0.021564
808.5452	0.020867
808.7818	0.019728
809.0185	0.021057
809.2551	0.019263
809.4918	0.021226
809.7284	0.019770
809.9651	0.019285
810.2018	0.018799
810.4385	0.019685
810.6752	0.020129
810.9119	0.018145
811.1486	0.019369
811.3853	0.016942
811.6221	0.018905
811.8588	0.015697
812.0956	0.015275
812.3323	0.014980
812.5691	0.014536
812.8059	0.012911
813.0427	0.013207
813.2795	0.013038
813.5163	0.014452
813.7531	0.015929
813.9899	0.020382
814.2267	0.018335
814.4636	0.017512
814.7004	0.016921
814.9373	0.017385
815.1742	0.016119
815.4110	0.014220
815.6479	0.014600
815.8848	0.014958
816.1217	0.013228
816.3586	0.012489
816.5955	0.012806
816.8324	0.013756
817.0694	0.013523
817.3063	0.012574
817.5433	0.014790
817.7802	0.014557
818.0172	0.013988
818.2542	0.013439
818.4912	0.012025
818.7282	0.010569
818.9652	0.013861
819.2022	0.009261
819.4392	0.011540
819.6762	0.010675
819.9133	0.012321
820.1503	0.013080
820.3874	0.014515
820.6244	0.014536
820.8615	0.014980
821.0986	0.015212
821.3357	0.016035
821.5727	0.013418
821.8099	0.013186
822.0470	0.011941
822.2841	0.012764
822.5212	0.012152
822.7584	0.011097
822.9955	0.011223
823.2327	0.012468
823.4698	0.010295
823.7070	0.012278
823.9442	0.010020
824.1814	0.010801
824.4186	0.010337
824.6558	0.011308
824.8930	0.010548
825.1302	0.010105
825.3675	0.011772
825.6047	0.013017
825.8419	0.014030
826.0792	0.011920
826.3165	0.011392
826.5537	0.012384
826.7910	0.011941
827.0283	0.011265
827.2656	0.012025
827.5029	0.011181
827.7402	0.012110
827.9776	0.012764
828.2149	0.010717
828.4522	0.011350
828.6896	0.010527
828.9270	0.012911
829.1643	0.011519
829.4017	0.012996
829.6391	0.010970
829.8765	0.012595
830.1139	0.010421
830.3513	0.009619
830.5887	0.008649
830.8261	0.007910
831.0636	0.008142
831.3010	0.008628
831.5385	0.008438
831.7759	0.007762
832.0134	0.006897
832.2509	0.009155
832.4884	0.007467
832.7259	0.008353
832.9634	0.008121
833.2009	0.008227
833.4384	0.008269
833.6759	0.008100
833.9135	0.008269
834.1510	0.009451
834.3886	0.010843
834.6261	0.010759
834.8637	0.010822
835.1013	0.009725
835.3389	0.009894
835.5765	0.008839
835.8141	0.007298
836.0517	0.008923
836.2893	0.008374
836.5269	0.008775
836.7646	0.008606
837.0022	0.006792
837.2399	0.006538
837.4775	0.007446
837.7152	0.004956
837.9529	0.005990
838.1906	0.005884
838.4283	0.006855
838.6660	0.006581
838.9037	0.007636
839.1414	0.005715
839.3791	0.005652
839.6169	0.007868
839.8546	0.008037
840.0924	0.005779
840.3302	0.007150
840.5679	0.006876
840.8057	0.007509
841.0435	0.006180
841.2813	0.005863
841.5191	0.007193
841.7569	0.006159
841.9947	0.005061
842.2326	0.005399
842.4704	0.005293
842.7082	0.005589
842.9461	0.003795
843.1840	0.004154
843.4218	0.003753
843.6597	0.004681
843.8976	0.004766
844.1355	0.006285
844.3734	0.004850
844.6113	0.005863
844.8492	0.004977
845.0872	0.005378
845.3251	0.004829
845.5631	0.006454
845.8010	0.005314
846.0390	0.004555
846.2770	0.004597
846.5149	0.004175
846.7529	0.005694
846.9909	0.004006
847.2289	0.004787
847.4669	0.004808
847.7050	0.005905
847.9430	0.004217
848.1810	0.003922
848.4191	0.004787
848.6571	0.003246
848.8952	0.004196
849.1333	0.003394
849.3713	0.006137
849.6094	0.003732
849.8475	0.004407
850.0856	0.004365
850.3237	0.003267
850.5619	0.004745
850.8000	0.005673
851.0381	0.004344
851.2763	0.005167
851.5144	0.004956
851.7526	0.004998
851.9908	0.005293
852.2289	0.005209
852.4671	0.006834
852.7053	0.008395
852.9435	0.009007
853.1817	0.012468
853.4200	0.014009
853.6582	0.012933
853.8964	0.012468
854.1347	0.015127
854.3729	0.013186
854.6112	0.012890
854.8495	0.012616
855.0877	0.013144
855.3260	0.012342
855.5643	0.011244
855.8026	0.011856
856.0409	0.012363
856.2792	0.011223
856.5176	0.011687
856.7559	0.010063
856.9942	0.012321
857.2326	0.011392
857.4710	0.010400
857.7093	0.007657
857.9477	0.010864
858.1861	0.009577
858.4245	0.010611
858.6629	0.010442
858.9013	0.007404
859.1397	0.008965
859.3781	0.008227
859.6166	0.007066
859.8550	0.008417
860.0935	0.006159
860.3319	0.007446
860.5704	0.006876
860.8089	0.007805
861.0473	0.006370
861.2858	0.007826
861.5243	0.006159
861.7628	0.005483
862.0013	0.005990
862.2399	0.006602
862.4784	0.005167
862.7169	0.005821
862.9555	0.004745
863.1940	0.004112
863.4326	0.006011
863.6712	0.006475
863.9098	0.006918
864.1483	0.006116
864.3869	0.005652
864.6255	0.006306
864.8642	0.004407
865.1028	0.004956
865.3414	0.005547
865.5800	0.006159
865.8187	0.004069
866.0573	0.003922
866.2960	0.003563
866.5347	0.005314
866.7733	0.004892
867.0120	0.005420
867.2507	0.005230
867.4894	0.005103
867.7281	0.004702
867.9669	0.007108
868.2056	0.005441
868.4443	0.004513
868.6831	0.004090
868.9218	0.004491
869.1606	0.004090
869.3993	0.004323
869.6381	0.003352
869.8769	0.005188
870.1157	0.004301
870.3545	0.004344
870.5933	0.003922
870.8321	0.006222
871.0709	0.005061
871.3097	0.005504
871.5486	0.005631
871.7874	0.005504
872.0263	0.005061
872.2651	0.005462
872.5040	0.004555
872.7429	0.004660
872.9818	0.003542
873.2207	0.006011
873.4596	0.003943
873.6985	0.004513
873.9374	0.004323
874.1763	0.004829
874.4153	0.004048
874.6542	0.006201
874.8932	0.004892
875.1321	0.006813
875.3711	0.007003
875.6101	0.006327
875.8491	0.005293
876.0880	0.005336
876.3270	0.005990
876.5661	0.004090
876.8051	0.004618
877.0441	0.003331
877.2831	0.003795
877.5222	0.004639
877.7612	0.005694
878.0003	0.005293
878.2393	0.007361
878.4784	0.007150
878.7175	0.005863
878.9566	0.006032
879.1957	0.007277
879.4348	0.005525
879.6739	0.007657
879.9130	0.007678
880.1521	0.008585
880.3913	0.008227
880.6304	0.007910
880.8696	0.007805
881.1087	0.007720
881.3479	0.006686
881.5871	0.007868
881.8262	0.005357
882.0654	0.006285
882.3046	0.006116
882.5438	0.006180
882.7831	0.005230
883.0223	0.005188
883.2615	0.005779
883.5007	0.006897
883.7400	0.006348
883.9792	0.005715
884.2185	0.005399
884.4578	0.004766
884.6971	0.005314
884.9363	0.004681
885.1756	0.005525
885.4149	0.005884
885.6542	0.005969
885.8936	0.005293
886.1329	0.005272
886.3722	0.005842
886.6116	0.007045
886.8509	0.004090
887.0903	0.005272
887.3296	0.004323
887.5690	0.005378
887.8084	0.004724
888.0478	0.004217
888.2872	0.005103
888.5266	0.002740
888.7660	0.005610
889.0054	0.004787
889.2448	0.004470
889.4843	0.004217
889.7237	0.003584
889.9632	0.003753
890.2026	0.004386
890.4421	0.003542
890.6816	0.004660
890.9211	0.004090
891.1606	0.004090
891.4001	0.004365
891.6396	0.004534
891.8791	0.004660
892.1186	0.005209
892.3581	0.003816
892.5977	0.004217
892.8372	0.003478
893.0768	0.006137
893.3163	0.004428
893.5559	0.004745
893.7955	0.003668
894.0351	0.003795
894.2747	0.003774
894.5143	0.005124
894.7539	0.005779
894.9935	0.003521
895.2331	0.002444
895.4727	0.003099
895.7124	0.003267
895.9520	0.003457
896.1917	0.005441
896.4314	0.004090
896.6710	0.004112
896.9107	0.005103
897.1504	0.004196
897.3901	0.002866
897.6298	0.003837
897.8695	0.005019
898.1092	0.005610
898.3489	0.005061
898.5887	0.004365
898.8284	0.003183
899.0682	0.004998
899.3079	0.004470
899.5477	0.005061
899.7875	0.004998
900.0272	0.002508
900.2670	0.003689
900.5068	0.003563
900.7466	0.005610
900.9864	0.003816
901.2263	0.004766
901.4661	0.004724
901.7059	0.005230
901.9458	0.005483
902.1856	0.004576
902.4255	0.004196
902.6654	0.004639
902.9052	0.003267
903.1451	0.003901
903.3850	0.003246
903.6249	0.003373
903.8648	0.003901
904.1047	0.004090
904.3446	0.004259
904.5846	0.003901
904.8245	0.003837
905.0644	0.005314
905.3044	0.004850
905.5444	0.006053
905.7843	0.004724
906.0243	0.006412
906.2643	0.005504
906.5043	0.005061
906.7443	0.005357
906.9843	0.004449
907.2243	0.003162
907.4643	0.004259
907.7043	0.002508
907.9444	0.003162
908.1844	0.003415
908.4245	0.004133
908.6645	0.003056
908.9046	0.004386
909.1447	0.001769
909.3847	0.003394
909.6248	0.005209
909.8649	0.002550
910.1050	0.003584
910.3452	0.002888
910.5853	0.002930
910.8254	0.003563
911.0655	0.001790
911.3057	0.002866
911.5458	0.003542
911.7860	0.004513
912.0262	0.003774
912.2663	0.003816
912.5065	0.002254
912.7467	0.001896
912.9869	0.003415
913.2271	0.004259
913.4673	0.003816
913.7075	0.003267
913.9478	0.003943
914.1880	0.001790
914.4283	0.002698
914.6685	0.002086
914.9088	0.002254
915.1490	0.002951
915.3893	0.003183
915.6296	0.002613
915.8699	0.003267
916.1102	0.003436
916.3505	0.003289
916.5908	0.003120
916.8311	0.003901
917.0714	0.002487
917.3118	0.003478
917.5521	0.002972
917.7925	0.004829
918.0328	0.001664
918.2732	0.003394
918.5136	0.004745
918.7539	0.001389
918.9943	0.003563
919.2347	0.003373
919.4751	0.004301
919.7155	0.003457
919.9560	0.001917
920.1964	0.004323
920.4368	0.003500
920.6773	0.002888
920.9177	0.002698
921.1582	0.003035
921.3986	0.003373
921.6391	0.002170
921.8796	0.003035
922.1201	0.001621
922.3606	0.002782
922.6011	0.002613
922.8416	0.003985
923.0821	0.003879
923.3226	0.004259
923.5631	0.002360
923.8037	0.003858
924.0442	0.003521
924.2848	0.003415
924.5254	0.002128
924.7659	0.003289
925.0065	0.001854
925.2471	0.002930
925.4877	0.003584
925.7283	0.003500
925.9689	0.002339
926.2095	0.002402
926.4501	0.001579
926.6908	0.002571
926.9314	0.002550
927.1720	0.002233
927.4127	0.001621
927.6533	0.003331
927.8940	0.003120
928.1347	0.002444
928.3754	0.002276
928.6161	0.002212
928.8568	0.003373
929.0975	0.002065
929.3382	0.003014
929.5789	0.002318
929.8196	0.001389
930.0604	0.002951
930.3011	0.002719
930.5419	0.002276
930.7826	0.000608
931.0234	0.002001
931.2642	0.001263
931.5049	0.002761
931.7457	0.002022
931.9865	0.002592
932.2273	0.001199
932.4681	0.001811
932.7089	0.001854
932.9498	0.003141
933.1906	0.001643
933.4314	0.002698
933.6723	0.000334
933.9131	0.002719
934.1540	0.000862
934.3949	0.002086
934.6358	0.002803
934.8766	0.002086
935.1175	0.000777
935.3584	0.002001
935.5993	0.001854
935.8403	0.002550
936.0812	0.002529
936.3221	0.001896
936.5630	0.001136
936.8040	0.003331
937.0449	0.000608
937.2859	0.001516
937.5269	0.001811
937.7678	0.001875
938.0088	0.000587
938.2498	0.001558
938.4908	0.001938
938.7318	0.001410
938.9728	0.001537
939.2138	0.000904
939.4549	0.001453
939.6959	0.000693
939.9369	0.001811
940.1780	0.001410
940.4190	0.002086
940.6601	0.001115
940.9012	0.000714
941.1422	0.001347
941.3833	0.001495
941.6244	-0.000046
941.8655	0.002529
942.1066	0.001727
942.3477	0.000777
942.5889	0.001326
942.8300	0.001516
943.0711	0.001811
943.3123	0.002487
943.5534	0.000208
943.7946	0.001389
944.0357	0.000862
944.2769	0.002824
944.5181	-0.000362
944.7593	0.000883
945.0005	-0.000236
945.2417	0.001263
945.4829	0.001199
945.7241	0.000545
945.9653	-0.000573
946.2066	0.000672
946.4478	0.001875
946.6891	0.001621
946.9303	0.001220
947.1716	0.000144
947.4128	0.000292
947.6541	0.000376
947.8954	-0.000299
948.1367	0.001073
948.3780	0.001220
948.6193	0.000503
948.8606	0.000208
949.1019	0.002107
949.3433	-0.000067
949.5846	0.001094
949.8259	0.001073
950.0673	0.001811
950.3086	0.001115
950.5500	0.002444
950.7914	0.001305
951.0327	0.001980
951.2741	0.000862
951.5155	0.001178
951.7569	0.001727
951.9983	0.001073
952.2398	0.001009
952.4812	0.002065
952.7226	0.002128
952.9640	0.002402
953.2055	0.001136
953.4469	0.001579
953.6884	0.001980
953.9299	0.000482
954.1713	0.002149
954.4128	0.001643
954.6543	0.001706
954.8958	0.001052
955.1373	0.002001
955.3788	0.002529
955.6203	0.000165
955.8618	0.001094
956.1034	0.001052
956.3449	0.001305
956.5865	0.002487
956.8280	0.000946
957.0696	-0.000109
957.3111	0.002001
957.5527	0.001305
957.7943	0.000271
958.0359	0.000039
958.2775	0.002043
958.5191	0.000208
958.7607	0.000123
959.0023	-0.000383
959.2439	0.001748
959.4856	-0.000827
959.7272	0.000841
959.9688	0.001305
960.2105	0.001558
960.4522	0.000545
960.6938	-0.000257
960.9355	0.000208
961.1772	0.000883
961.4189	0.001284
961.6606	0.001621
961.9023	0.000798
962.1440	-0.000004
962.3857	0.000419
962.6274	0.000419
962.8692	0.000060
963.1109	0.001115
963.3527	0.000186
963.5944	0.002444
963.8362	0.000039
964.0779	0.001199
964.3197	0.000039
964.5615	0.001537
964.8033	0.000376
965.0451	0.001410
965.2869	0.000039
965.5287	0.002170
965.7705	0.000419
966.0123	0.001579
966.2542	0.001073
966.4960	0.000904
966.7379	0.000060
966.9797	0.001009
967.2216	-0.000341
967.4634	0.000503
967.7053	0.000397
967.9472	0.000841
968.1891	0.000503
968.4310	0.000397
968.6729	0.000397
968.9148	0.000672
969.1567	0.001664
969.3987	0.001917
969.6406	-0.000299
969.8825	0.000397
970.1245	0.000566
970.3664	0.001052
970.6084	0.000798
970.8504	0.001136
971.0923	0.001347
971.3343	0.001516
971.5763	0.000208
971.8183	0.001220
972.0603	0.001389
972.3023	0.001178
972.5443	0.000376
972.7864	0.001579
973.0284	0.000419
973.2704	0.000587
973.5125	0.000419
973.7545	0.001263
973.9966	0.001474
974.2387	0.001052
974.4807	0.000060
974.7228	0.001474
974.9649	-0.000911
975.2070	0.001600
975.4491	-0.000552
975.6912	-0.000067
975.9333	0.002254
976.1755	0.001769
976.4176	-0.000362
976.6597	-0.000004
976.9019	-0.001818
977.1440	0.001410
977.3862	0.000250
977.6283	0.000503
977.8705	0.000482
978.1127	0.001558
978.3549	-0.000025
978.5971	0.000862
978.8393	-0.000510
979.0815	0.000735
979.3237	0.000271
979.5659	0.001326
979.8082	0.002043
980.0504	0.000419
980.2926	0.000123
980.5349	-0.000383
980.7771	0.000292
981.0194	0.000714
981.2617	0.000419
981.5040	0.001220
981.7462	0.001220
981.9885	0.002381
982.2308	0.000060
982.4731	0.000250
982.7155	-0.000257
982.9578	0.000081
983.2001	0.000503
983.4424	0.001516
983.6848	0.001136
983.9271	-0.000151
984.1695	0.001495
984.4118	0.001242
984.6542	0.001368
984.8966	0.000524
985.1390	0.000735
985.3814	0.000693
985.6238	0.000123
985.8662	0.000503
986.1086	-0.002536
986.3510	0.001537
986.5934	0.000250
986.8358	0.001474
987.0783	-0.000362
987.3207	-0.000067
987.5632	-0.000130
987.8056	-0.000257
988.0481	-0.000721
988.2906	-0.000890
988.5331	-0.000088
988.7756	-0.000236
989.0180	0.001938
989.2605	0.001959
989.5031	-0.000172
989.7456	-0.000404
989.9881	0.000714
990.2306	0.001242
990.4732	0.001664
990.7157	0.000440
990.9582	-0.000700
991.2008	-0.000025
991.4434	0.000208
991.6859	-0.000426
991.9285	0.001242
992.1711	0.000819
992.4137	0.001157
992.6563	0.001516
992.8989	0.000608
993.1415	0.000714
993.3841	0.000144
993.6267	0.001242
993.8694	0.000777
994.1120	0.000018
994.3547	0.000651
994.5973	0.000714
994.8400	-0.000953
995.0826	0.001875
995.3253	-0.000109
995.5680	-0.000531
995.8107	0.000208
996.0534	0.000714
996.2961	-0.000953
996.5388	0.000862
996.7815	-0.001628
997.0242	-0.000658
997.2670	0.000313
997.5097	0.000123
997.7524	-0.000299
997.9952	0.000693
998.2379	-0.000426
998.4807	0.001220
998.7235	-0.000426
998.9662	0.000144
999.2090	-0.001333
999.4518	-0.000278
999.6946	-0.001185
999.9374	-0.000257
1000.1802	-0.000341
1000.4230	0.000524
1000.6659	0.001537
1000.9087	-0.000468
1001.1515	0.000967
1001.3944	-0.000193
1001.6372	0.001453
1001.8801	0.000419
1002.1230	-0.000067
1002.3658	-0.000215
1002.6087	-0.001291
1002.8516	-0.000130
1003.0945	0.000376
1003.3374	0.000313
1003.5803	0.000186
1003.8232	0.000672
1004.0661	-0.000404
1004.3091	-0.000784
1004.5520	-0.000025
1004.7949	-0.000531
1005.0379	0.000419
1005.2808	0.000819
1005.5238	0.000714
1005.7667	0.000334
1006.0097	-0.000616
1006.2527	0.001347
1006.4957	0.001220
1006.7387	0.000060
1006.9817	0.000798
1007.2247	0.000039
1007.4677	0.000967
1007.7107	0.001431
1007.9538	0.001558
1008.1968	-0.000046
1008.4398	0.000018
1008.6829	-0.001227
1008.9259	0.002613
1009.1690	-0.000700
1009.4121	-0.000658
1009.6551	0.000376
1009.8982	0.001600
1010.1413	-0.000320
1010.3844	0.000081
1010.6275	-0.000236
1010.8706	0.000208
1011.1137	-0.000974
1011.3568	0.001516
1011.6000	0.000798
1011.8431	0.001579
1012.0863	0.001431
1012.3294	0.000186
1012.5726	-0.000468
1012.8157	0.001832
1013.0589	0.000229
1013.3021	0.000904
1013.5452	0.000039
1013.7884	-0.000784
1014.0316	-0.000426
1014.2748	0.000693
1014.5180	0.001178
1014.7613	0.001389
1015.0045	0.000144
1015.2477	0.000608
1015.4909	0.000060
1015.7342	0.000566
1015.9774	0.000271
1016.2207	0.000440
1016.4640	-0.000236
1016.7072	-0.000236
1016.9505	-0.000827
1017.1938	-0.000447
1017.4371	0.000566
1017.6804	0.000081
1017.9237	0.001410
1018.1670	0.001073
1018.4103	-0.000426
1018.6536	0.000545
1018.8969	-0.000278
1019.1403	0.000123
1019.3836	-0.000383
1019.6270	0.001410
1019.8703	0.000566
1020.1137	0.000186
1020.3571	-0.000088
1020.6004	0.000714
1020.8438	0.000756
1021.0872	-0.000383
1021.3306	0.000123
1021.5740	0.001389
1021.8174	-0.000742
1022.0608	0.000102
1022.3042	-0.000025
1022.5477	-0.000552
1022.7911	-0.000827
1023.0345	0.001136
