# Wavelength	Intensity diff (sample - DMSO)
197.780200 0.000086
197.984200 -0.000980
198.188200 -0.000118
198.392200 -0.000138
198.596300 -0.000604
198.800300 -0.000084
199.004400 0.000209
199.208500 -0.000646
199.412600 0.000673
199.616800 -0.000041
199.820900 0.000304
200.025100 -0.000096
200.229200 0.000621
200.433400 -0.001093
200.637600 0.000722
200.841800 0.000213
201.046100 -0.000199
201.250300 -0.000737
201.454600 -0.001053
201.658900 -0.001099
201.863100 -0.000590
202.067400 0.000041
202.271800 -0.000245
202.476100 -0.000171
202.680500 -0.000196
202.884800 -0.000508
203.089200 -0.000283
203.293600 -0.000643
203.498000 0.000037
203.702400 0.000132
203.906900 0.000877
204.111300 0.000669
204.315800 -0.000439
204.520300 -0.000954
204.724800 -0.000059
204.929300 0.000185
205.133800 -0.001187
205.338400 -0.000375
205.543000 -0.000459
205.747500 0.000051
205.952100 0.000525
206.156700 -0.000010
206.361400 0.000779
206.566000 -0.000578
206.770600 -0.000273
206.975300 0.000096
207.180000 0.000574
207.384700 0.000560
207.589400 0.001123
207.794100 0.000722
207.998900 -0.000112
208.203600 -0.000888
208.408400 -0.000389
208.613200 -0.000628
208.818000 0.000233
209.022800 -0.000699
209.227600 -0.000241
209.432500 -0.000474
209.637300 0.000712
209.842200 -0.000003
210.047100 -0.000286
210.252000 0.000588
210.456900 -0.001173
210.661800 -0.001658
210.866800 -0.000840
211.071800 -0.001457
211.276700 -0.000179
211.481700 0.000128
211.686700 -0.000467
211.891800 0.000082
212.096800 -0.001222
212.301800 -0.001525
212.506900 -0.000660
212.712000 -0.000947
212.917100 -0.000962
213.122200 -0.001349
213.327300 -0.000751
213.532500 0.000680
213.737600 -0.000076
213.942800 0.000680
214.148000 -0.000529
214.353200 -0.000214
214.558400 -0.000365
214.763600 -0.001352
214.968900 -0.000073
215.174100 -0.001000
215.379400 0.002045
215.584700 -0.000790
215.790000 0.000494
215.995300 -0.000094
216.200700 0.000208
216.406000 0.000065
216.611400 0.000581
216.816800 -0.000558
217.022200 -0.000061
217.227600 -0.000680
217.433000 -0.000023
217.638400 -0.000266
217.843900 -0.000188
218.049400 0.000602
218.254800 -0.000944
218.460300 0.000138
218.665900 -0.000604
218.871400 -0.001704
219.076900 0.000173
219.282500 -0.000347
219.488100 -0.000576
219.693600 -0.000730
219.899200 -0.001538
220.104900 -0.000977
220.310500 -0.000231
220.516100 0.000735
220.721800 -0.001049
220.927500 -0.000329
221.133200 -0.000273
221.338900 -0.001145
221.544600 0.000132
221.750300 -0.001268
221.956100 -0.000205
222.161800 -0.000713
222.367600 -0.000435
222.573400 0.000036
222.779200 0.000715
222.985000 0.000180
223.190900 -0.000094
223.396700 -0.000737
223.602600 0.000553
223.808500 0.000501
224.014400 0.000184
224.220300 -0.000252
224.426200 0.000423
224.632200 -0.000114
224.838100 -0.000533
225.044100 0.000033
225.250100 0.000240
225.456100 -0.000185
225.662100 -0.000241
225.868100 0.000265
226.074200 -0.000044
226.280200 0.000585
226.486300 -0.000065
226.692400 -0.000087
226.898500 -0.000048
227.104600 0.000004
227.310700 -0.001107
227.516900 0.000216
227.723000 0.000093
227.929200 -0.000822
228.135400 -0.000234
228.341600 -0.000098
228.547800 -0.000842
228.754100 -0.000990
228.960300 0.000328
229.166600 0.000628
229.372900 -0.001036
229.579100 -0.000330
229.785500 -0.000473
229.991800 0.000377
230.198100 -0.000118
230.404500 0.000398
230.610800 -0.000470
230.817200 0.000416
231.023600 -0.000146
231.230000 -0.000295
231.436400 -0.000965
231.642900 0.000178
231.849300 0.000202
232.055800 0.000929
232.262300 -0.002302
232.468800 0.000272
232.675300 0.000324
232.881800 0.000225
233.088400 -0.000383
233.294900 0.000395
233.501500 -0.000090
233.708100 -0.000045
233.914700 -0.000123
234.121300 -0.000312
234.327900 -0.000615
234.534600 -0.000322
234.741300 -0.000523
234.947900 0.000262
235.154600 -0.002642
235.361300 -0.000035
235.568000 -0.000464
235.774800 -0.000336
235.981500 -0.000269
236.188300 -0.000042
236.395100 0.000476
236.601800 -0.000288
236.808700 -0.000818
237.015500 -0.000699
237.222300 -0.000702
237.429200 -0.001507
237.636000 -0.000199
237.842900 0.000335
238.049800 -0.000332
238.256700 -0.000270
238.463600 -0.000364
238.670600 -0.000283
238.877500 -0.000273
239.084500 0.000915
239.291500 -0.000912
239.498500 -0.000319
239.705500 0.000430
239.912500 -0.000558
240.119500 0.000933
240.326600 -0.000608
240.533700 0.001062
240.740700 -0.000230
240.947800 -0.000165
241.154900 -0.001015
241.362100 -0.000132
241.569200 -0.000213
241.776400 -0.000008
241.983500 -0.000702
242.190700 -0.000748
242.397900 -0.000241
242.605100 0.000201
242.812400 -0.000502
243.019600 -0.000490
243.226900 -0.000965
243.434100 -0.000470
243.641400 0.000170
243.848700 -0.000625
244.056000 0.000251
244.263400 0.000420
244.470700 -0.000776
244.678100 -0.000979
244.885400 -0.000554
245.092800 0.000965
245.300200 0.000149
245.507600 -0.000403
245.715100 -0.000199
245.922500 0.000145
246.130000 0.000206
246.337500 -0.000030
246.544900 0.000114
246.752400 -0.001647
246.960000 0.000054
247.167500 -0.000660
247.375000 0.000123
247.582600 -0.000578
247.790200 -0.000136
247.997800 -0.000100
248.205400 -0.000618
248.413000 0.000616
248.620600 -0.000080
248.828300 -0.000212
249.035900 -0.000611
249.243600 -0.000498
249.451300 -0.001855
249.659000 -0.001406
249.866700 -0.000892
250.074500 -0.000111
250.282200 -0.001732
250.490000 -0.000041
250.697800 -0.000579
250.905600 0.001426
251.113400 0.000237
251.321200 -0.000041
251.529000 0.000254
251.736900 -0.000699
251.944700 -0.001792
252.152600 -0.001198
252.360500 -0.000719
252.568400 -0.000349
252.776300 -0.000077
252.984300 0.000064
253.192200 0.000008
253.400200 -0.000054
253.608200 0.000078
253.816200 -0.000863
254.024200 -0.001297
254.232200 0.000209
254.440200 0.000575
254.648300 -0.000007
254.856400 0.000121
255.064400 0.000392
255.272500 -0.000804
255.480600 -0.000572
255.688800 0.001091
255.896900 0.000107
256.105100 -0.002042
256.313200 0.000585
256.521400 -0.000400
256.729600 0.000210
256.937800 -0.001107
257.146000 0.000332
257.354300 0.001644
257.562500 -0.000491
257.770800 0.000610
257.979100 -0.000677
258.187400 0.000476
258.395700 -0.000995
258.604000 -0.000734
258.812400 -0.000776
259.020700 -0.001451
259.229100 0.000100
259.437500 -0.000449
259.645900 -0.001399
259.854300 -0.000505
260.062700 -0.000613
260.271100 0.000114
260.479600 -0.000389
260.688100 -0.000037
260.896500 -0.000899
261.105000 0.000493
261.313500 -0.000097
261.522100 -0.001708
261.730600 -0.000091
261.939200 0.000571
262.147700 0.000068
262.356300 -0.000298
262.564900 0.000680
262.773500 0.000020
262.982200 -0.000997
263.190800 0.000300
263.399500 -0.001001
263.608100 -0.000731
263.816800 -0.000241
264.025500 -0.000033
264.234200 0.000311
264.442900 0.000391
264.651700 -0.000446
264.860400 0.000403
265.069200 -0.000164
265.278000 -0.000615
265.486800 -0.000048
265.695600 -0.000369
265.904400 -0.000579
266.113300 -0.000119
266.322100 0.000008
266.531000 -0.000249
266.739900 0.000525
266.948800 -0.000762
267.157700 0.000068
267.366600 -0.000977
267.575500 -0.000400
267.784500 0.000086
267.993500 0.000001
268.202400 -0.000733
268.411400 0.000241
268.620500 -0.000833
268.829500 -0.000248
269.038500 0.000280
269.247600 -0.000153
269.456600 0.000050
269.665700 0.000072
269.874800 -0.000417
270.083900 -0.000530
270.293100 0.000567
270.502200 0.000462
270.711400 -0.000094
270.920500 -0.000445
271.129700 -0.000365
271.338900 0.000141
271.548100 -0.001071
271.757300 -0.001145
271.966600 -0.000322
272.175800 -0.001419
272.385100 -0.001036
272.594400 -0.000902
272.803700 -0.000280
273.013000 0.000634
273.222300 -0.000224
273.431600 -0.001022
273.641000 -0.000864
273.850400 0.000205
274.059700 -0.000210
274.269100 -0.000596
274.478500 -0.000340
274.688000 -0.000425
274.897400 -0.000090
275.106900 0.001393
275.316300 -0.001103
275.525800 -0.000389
275.735300 0.001382
275.944800 -0.000377
276.154300 0.000529
276.363900 0.000480
276.573400 -0.000062
276.783000 -0.000308
276.992600 -0.000325
277.202200 -0.000836
277.411800 -0.000446
277.621400 0.001039
277.831000 -0.000430
278.040700 -0.000628
278.250300 -0.000692
278.460000 -0.000133
278.669700 -0.000178
278.879400 0.001056
279.089100 0.000631
279.298900 -0.000227
279.508600 -0.000451
279.718400 -0.001026
279.928100 0.000620
280.137900 -0.000477
280.347700 -0.000023
280.557600 0.000293
280.767400 -0.001188
280.977200 0.000188
281.187100 0.001862
281.397000 -0.001654
281.606900 0.000484
281.816800 -0.000431
282.026700 -0.000026
282.236600 -0.000477
282.446600 -0.001250
282.656500 0.001310
282.866500 -0.000284
283.076500 0.000778
283.286500 -0.000582
283.496500 -0.000196
283.706500 -0.000628
283.916600 -0.000175
284.126600 0.000342
284.336700 -0.000217
284.546800 -0.000235
284.756900 -0.000107
284.967000 -0.001121
285.177100 0.000307
285.387300 0.001014
285.597400 -0.000888
285.807600 -0.000228
286.017800 -0.001416
286.228000 -0.000439
286.438200 -0.000185
286.648400 -0.000544
286.858700 -0.001436
287.068900 0.000188
287.279200 -0.000220
287.489500 0.000469
287.699800 -0.000474
287.910100 0.000051
288.120400 0.000099
288.330800 0.000246
288.541100 -0.002369
288.751500 0.000213
288.961900 0.000212
289.172300 0.000504
289.382700 -0.000311
289.593100 -0.000392
289.803500 0.001847
290.014000 -0.000698
290.224500 -0.000508
290.434900 0.000929
290.645400 0.000494
290.855900 0.000237
291.066500 -0.000671
291.277000 -0.000234
291.487500 0.000093
291.698100 -0.000336
291.908700 0.001186
292.119300 -0.001184
292.329900 -0.000558
292.540500 0.000391
292.751100 0.000803
292.961800 0.000979
293.172400 -0.000776
293.383100 0.001032
293.593800 -0.000737
293.804500 0.000029
294.015200 -0.000297
294.226000 -0.000108
294.436700 0.000057
294.647500 -0.000555
294.858200 -0.000494
295.069000 -0.000618
295.279800 0.000226
295.490600 0.000111
295.701500 -0.000262
295.912300 -0.000875
296.123200 -0.001637
296.334000 -0.000104
296.544900 -0.001703
296.755800 -0.000835
296.966700 0.000364
297.177700 -0.000773
297.388600 -0.000533
297.599500 0.000853
297.810500 -0.000530
298.021500 -0.000407
298.232500 -0.000146
298.443500 0.000420
298.654500 -0.000896
298.865600 -0.001233
299.076600 -0.000590
299.287700 0.000936
299.498800 -0.000832
299.709900 -0.000414
299.921000 -0.000896
300.132100 -0.000540
300.343200 -0.000657
300.554400 -0.000344
300.765500 -0.000365
300.976700 0.000936
301.187900 -0.000191
301.399100 -0.001118
301.610300 -0.000034
301.821500 -0.001418
302.032800 -0.000641
302.244100 -0.000537
302.455300 0.000405
302.666600 -0.000435
302.877900 -0.000392
303.089200 0.000219
303.300600 -0.000161
303.511900 -0.000796
303.723300 0.000374
303.934600 -0.000221
304.146000 0.001067
304.357400 0.000655
304.568800 0.000153
304.780300 -0.001222
304.991700 0.000036
305.203100 0.000458
305.414600 -0.001061
305.626100 -0.000474
305.837600 -0.000944
306.049100 -0.000079
306.260600 -0.001331
306.472200 -0.000030
306.683700 0.000430
306.895300 0.000473
307.106900 -0.000027
307.318400 -0.000509
307.530100 -0.000600
307.741700 -0.000087
307.953300 -0.000682
308.165000 0.000863
308.376600 -0.000480
308.588300 -0.000413
308.800000 -0.000128
309.011700 -0.001151
309.223400 -0.000544
309.435100 0.000405
309.646900 0.000234
309.858600 -0.000877
310.070400 -0.000364
310.282200 0.001003
310.494000 -0.000300
310.705800 -0.001335
310.917600 -0.000337
311.129500 -0.000089
311.341300 -0.001095
311.553200 0.000016
311.765100 0.000610
311.977000 -0.000646
312.188900 0.000374
312.400800 -0.000464
312.612700 0.000023
312.824700 -0.000611
313.036600 -0.000164
313.248600 -0.000835
313.460600 -0.000305
313.672600 -0.000466
313.884600 0.000937
314.096700 0.000352
314.308700 -0.001250
314.520800 -0.000874
314.732800 -0.001398
314.944900 0.000553
315.157000 -0.000346
315.369200 0.000019
315.581300 0.000285
315.793400 0.000645
316.005600 -0.000983
316.217700 -0.000828
316.429900 -0.001321
316.642100 -0.000652
316.854300 0.000677
317.066600 -0.001369
317.278800 -0.001314
317.491100 -0.000983
317.703300 -0.000758
317.915600 -0.000687
318.127900 -0.001141
318.340200 -0.000066
318.552500 -0.000593
318.764900 -0.000009
318.977200 -0.000674
319.189600 0.000466
319.401900 -0.000856
319.614300 0.000138
319.826700 0.001296
320.039200 -0.000529
320.251600 -0.000290
320.464000 -0.000709
320.676500 -0.000262
320.889000 0.001408
321.101400 -0.000491
321.313900 -0.000428
321.526500 -0.001046
321.739000 -0.000786
321.951500 -0.001560
322.164100 0.000216
322.376600 -0.000674
322.589200 -0.000768
322.801800 0.000023
323.014400 0.000023
323.227000 -0.000023
323.439700 -0.000673
323.652300 -0.000346
323.865000 0.000307
324.077700 -0.000438
324.290400 0.000396
324.503100 -0.000389
324.715800 -0.000871
324.928500 0.000286
325.141200 -0.000209
325.354000 -0.000468
325.566800 0.000005
325.779600 -0.001205
325.992400 0.001190
326.205200 -0.000635
326.418000 -0.000093
326.630800 -0.001609
326.843700 -0.003145
327.056600 -0.000146
327.269400 0.000544
327.482300 -0.001725
327.695200 0.000252
327.908200 -0.000223
328.121100 -0.000026
328.334000 -0.000778
328.547000 -0.001908
328.760000 0.000184
328.973000 -0.000764
329.186000 -0.000673
329.399000 0.000103
329.612000 -0.001879
329.825100 -0.000104
330.038100 -0.000268
330.251200 -0.001063
330.464300 -0.000736
330.677400 -0.001038
330.890500 -0.001787
331.103600 -0.000283
331.316700 -0.000730
331.529900 -0.001074
331.743100 -0.000083
331.956200 -0.001021
332.169400 -0.000290
332.382600 -0.000353
332.595900 -0.001721
332.809100 0.000171
333.022300 -0.000026
333.235600 -0.000427
333.448900 -0.001113
333.662200 -0.000504
333.875500 -0.000392
334.088800 0.001320
334.302100 -0.001615
334.515400 -0.000170
334.728800 0.000755
334.942200 0.000439
335.155500 0.000737
335.368900 -0.002044
335.582300 0.000568
335.795800 -0.000367
336.009200 -0.000616
336.222700 0.000361
336.436100 -0.000722
336.649600 -0.001794
336.863100 0.000410
337.076600 -0.001815
337.290100 -0.000283
337.503600 -0.000054
337.717200 -0.000915
337.930700 -0.000402
338.144300 -0.001414
338.357900 0.000045
338.571500 0.001019
338.785100 -0.000508
338.998700 -0.000339
339.212400 -0.001362
339.426000 0.000252
339.639700 0.000674
339.853300 -0.000191
340.067000 -0.000634
340.280700 0.000942
340.494500 -0.000395
340.708200 0.000058
340.921900 -0.000904
341.135700 0.001596
341.349500 0.000084
341.563300 0.000305
341.777100 -0.001207
341.990900 -0.000662
342.204700 -0.001429
342.418500 -0.002057
342.632400 -0.000961
342.846300 -0.000113
343.060100 0.001297
343.274000 -0.000293
343.487900 -0.001383
343.701900 -0.000250
343.915800 -0.000957
344.129700 -0.001358
344.343700 0.000308
344.557700 -0.000788
344.771700 -0.000293
344.985700 -0.001020
345.199700 -0.000151
345.413700 -0.000992
345.627700 0.000410
345.841800 0.000003
346.055900 -0.000299
346.269900 0.000485
346.484000 -0.001007
346.698100 0.000604
346.912300 -0.000223
347.126400 -0.000988
347.340600 -0.000236
347.554700 -0.000302
347.768900 -0.001264
347.983100 -0.001178
348.197300 -0.000830
348.411500 -0.000507
348.625700 -0.000102
348.840000 0.000295
349.054200 -0.001685
349.268500 -0.001378
349.482800 -0.000506
349.697100 -0.000404
349.911400 -0.000320
350.125700 0.000024
350.340000 -0.001545
350.554400 -0.000507
350.768700 0.000292
350.983100 0.000119
351.197500 0.000443
351.411900 -0.001527
351.626300 -0.001174
351.840700 -0.000310
352.055200 0.000134
352.269600 -0.000700
352.484100 -0.001456
352.698600 -0.001997
352.913100 0.000425
353.127600 -0.000503
353.342100 -0.001016
353.556600 -0.000956
353.771200 -0.001906
353.985800 0.000421
354.200300 0.000415
354.414900 -0.000166
354.629500 -0.000017
354.844100 -0.000334
355.058800 -0.001097
355.273400 0.000229
355.488100 -0.001196
355.702700 -0.000235
355.917400 -0.000356
356.132100 -0.000907
356.346800 -0.000678
356.561500 -0.001361
356.776300 0.000081
356.991000 -0.000218
357.205800 -0.000464
357.420600 -0.001505
357.635300 -0.000285
357.850100 -0.000840
358.065000 -0.000387
358.279800 0.000064
358.494600 0.000246
358.709500 0.000043
358.924300 0.000210
359.139200 -0.001382
359.354100 -0.000697
359.569000 -0.000127
359.783900 -0.000219
359.998900 0.000995
360.213800 -0.000640
360.428800 -0.001490
360.643800 0.000654
360.858700 0.000683
361.073700 -0.001529
361.288800 -0.000844
361.503800 -0.001754
361.718800 -0.000024
361.933900 -0.000605
362.148900 -0.000531
362.364000 0.000303
362.579100 -0.001389
362.794200 0.000211
363.009300 -0.001593
363.224500 0.000274
363.439600 -0.000245
363.654800 -0.000840
363.869900 0.000391
364.085100 -0.000436
364.300300 0.000559
364.515500 -0.001514
364.730800 -0.001389
364.946000 -0.000417
365.161200 -0.000630
365.376500 -0.000907
365.591800 -0.000959
365.807100 -0.000123
366.022400 -0.001312
366.237700 -0.001230
366.453000 -0.001874
366.668400 -0.001660
366.883700 -0.000404
367.099100 -0.000438
367.314500 -0.000431
367.529900 -0.001733
367.745300 -0.000948
367.960700 -0.000886
368.176100 -0.000464
368.391600 -0.000632
368.607000 -0.001093
368.822500 -0.001266
369.038000 -0.002620
369.253500 -0.000204
369.469000 -0.000273
369.684500 -0.002084
369.900100 -0.000375
370.115600 -0.000028
370.331200 0.000215
370.546800 -0.000323
370.762400 -0.001961
370.978000 -0.000510
371.193600 -0.000066
371.409200 -0.000200
371.624900 -0.001785
371.840500 -0.001934
372.056200 -0.000797
372.271900 0.000873
372.487600 -0.003040
372.703300 -0.000780
372.919000 -0.000069
373.134800 -0.000039
373.350500 -0.000291
373.566300 -0.000396
373.782000 -0.000393
373.997800 -0.001427
374.213600 -0.000769
374.429400 -0.000674
374.645300 -0.002246
374.861100 0.001066
375.077000 0.000525
375.292800 0.001252
375.508700 -0.000219
375.724600 -0.000270
375.940500 -0.000192
376.156400 -0.000909
376.372400 -0.001432
376.588300 -0.000561
376.804300 -0.000529
377.020300 -0.002382
377.236200 -0.002149
377.452200 -0.001862
377.668200 -0.001866
377.884300 -0.000561
378.100300 -0.000167
378.316400 -0.001953
378.532400 -0.000092
378.748500 -0.001752
378.964600 -0.002087
379.180700 -0.002255
379.396800 -0.002100
379.612900 0.000266
379.829100 -0.002022
380.045200 -0.000715
380.261400 -0.001995
380.477600 -0.001995
380.693800 0.000449
380.910000 -0.002976
381.126200 0.000059
381.342400 -0.002445
381.558700 0.000977
381.774900 -0.001095
381.991200 -0.001164
382.207500 0.000214
382.423800 -0.001478
382.640100 -0.000830
382.856400 -0.002015
383.072800 0.000088
383.289100 -0.001315
383.505500 -0.001298
383.721900 -0.000975
383.938200 -0.001654
384.154600 -0.000279
384.371100 -0.000366
384.587500 -0.000623
384.803900 -0.002318
385.020400 -0.001547
385.236800 -0.000521
385.453300 -0.002227
385.669800 -0.000091
385.886300 -0.000226
386.102800 -0.001972
386.319400 -0.000855
386.535900 -0.001418
386.752500 -0.001920
386.969000 0.000017
387.185600 -0.001234
387.402200 -0.001382
387.618800 -0.001424
387.835500 -0.000794
388.052100 -0.001832
388.268700 -0.001769
388.485400 -0.001319
388.702100 -0.001241
388.918800 0.000138
389.135500 -0.002005
389.352200 -0.001272
389.568900 -0.000415
389.785600 -0.001818
390.002400 -0.000492
390.219200 -0.000992
390.435900 -0.002039
390.652700 -0.000270
390.869500 -0.002654
391.086300 -0.002000
391.303200 -0.001768
391.520000 -0.000248
391.736900 -0.001329
391.953700 -0.001747
392.170600 -0.000871
392.387500 -0.000667
392.604400 -0.002298
392.821300 -0.000146
393.038300 -0.000818
393.255200 -0.001957
393.472200 -0.002387
393.689100 -0.001967
393.906100 -0.000097
394.123100 -0.000808
394.340100 -0.000976
394.557200 -0.000919
394.774200 -0.000189
394.991200 0.000388
395.208300 -0.000108
395.425400 -0.001116
395.642500 -0.001894
395.859600 -0.001809
396.076700 -0.000846
396.293800 -0.001128
396.510900 -0.001891
396.728100 -0.000631
396.945300 -0.002207
397.162400 -0.001443
397.379600 -0.001010
397.596800 -0.001647
397.814000 -0.000525
398.031300 -0.003960
398.248500 -0.002205
398.465800 -0.004009
398.683000 -0.000524
398.900300 -0.002455
399.117600 -0.001027
399.334900 -0.002944
399.552200 -0.002097
399.769600 -0.001911
399.986900 -0.001354
400.204300 -0.001584
400.421600 -0.000972
400.639000 -0.002441
400.856400 -0.002175
401.073800 -0.000659
401.291200 -0.001918
401.508700 -0.002417
401.726100 -0.003300
401.943600 0.000589
402.161000 0.000093
402.378500 -0.002005
402.596000 -0.002054
402.813500 -0.001169
403.031000 -0.003141
403.248600 -0.001967
403.466100 -0.001137
403.683700 -0.002539
403.901300 -0.002445
404.118900 -0.001152
404.336500 -0.002300
404.554100 -0.001010
404.771700 -0.002215
404.989300 -0.000472
405.207000 -0.002744
405.424600 -0.001991
405.642300 -0.001826
405.860000 -0.002402
406.077700 -0.002768
406.295400 -0.002356
406.513100 -0.001679
406.730900 -0.001419
406.948600 -0.001221
407.166400 -0.003036
407.384200 -0.000873
407.602000 -0.001654
407.819800 -0.002132
408.037600 -0.003682
408.255400 0.000023
408.473300 -0.000490
408.691100 -0.001832
408.909000 -0.001871
409.126900 -0.000708
409.344800 -0.000423
409.562700 -0.000352
409.780600 -0.003939
409.998500 -0.001889
410.216500 -0.000388
410.434400 -0.003251
410.652400 -0.002657
410.870400 -0.003317
411.088400 -0.001467
411.306400 -0.001486
411.524400 -0.003489
411.742400 -0.000834
411.960500 -0.001852
412.178500 0.000031
412.396600 -0.001147
412.614700 -0.000633
412.832800 -0.000729
413.050900 -0.004132
413.269000 -0.001446
413.487100 -0.002367
413.705300 -0.002454
413.923400 -0.002223
414.141600 -0.002571
414.359800 -0.001502
414.578000 -0.000722
414.796200 -0.000296
415.014400 -0.003949
415.232600 -0.001608
415.450900 -0.002029
415.669200 -0.000469
415.887400 -0.003035
416.105700 -0.002927
416.324000 -0.002627
416.542300 -0.001548
416.760600 -0.000946
416.979000 -0.002287
417.197300 -0.001657
417.415700 -0.000897
417.634100 -0.001435
417.852400 -0.001130
418.070800 -0.001207
418.289300 -0.001586
418.507700 -0.002122
418.726100 -0.001844
418.944600 -0.001661
419.163000 0.001066
419.381500 -0.001414
419.600000 -0.002680
419.818500 -0.001171
420.037000 -0.000873
420.255500 -0.002493
420.474100 -0.003252
420.692600 -0.001543
420.911200 -0.001037
421.129800 -0.002263
421.348300 -0.002583
421.566900 -0.002197
421.785600 -0.002130
422.004200 -0.002211
422.222800 -0.002422
422.441500 -0.004158
422.660100 -0.001508
422.878800 -0.002946
423.097500 -0.002422
423.316200 -0.001880
423.534900 -0.000935
423.753600 -0.000207
423.972400 -0.002298
424.191100 -0.001846
424.409900 -0.002074
424.628700 -0.001969
424.847500 -0.001111
425.066300 -0.003175
425.285100 -0.001842
425.503900 -0.002098
425.722800 -0.002675
425.941600 -0.002050
426.160500 -0.000813
426.379300 -0.002061
426.598200 -0.002107
426.817100 -0.000658
427.036100 -0.001681
427.255000 -0.002458
427.473900 -0.003119
427.692900 -0.002580
427.911800 -0.002212
428.130800 -0.002303
428.349800 -0.001245
428.568800 -0.001431
428.787800 -0.001655
429.006800 -0.002148
429.225900 -0.002078
429.444900 -0.002700
429.664000 -0.000807
429.883100 -0.002544
430.102200 -0.002787
430.321300 -0.003215
430.540400 -0.003253
430.759500 -0.002818
430.978700 -0.003124
431.197800 -0.002273
431.417000 -0.000748
431.636200 -0.002063
431.855300 -0.002362
432.074500 -0.001716
432.293800 -0.002950
432.513000 -0.002967
432.732200 -0.001094
432.951500 -0.002781
433.170700 -0.003780
433.390000 0.000092
433.609300 -0.003462
433.828600 -0.002962
434.047900 -0.003447
434.267300 -0.004293
434.486600 -0.001202
434.705900 -0.001968
434.925300 -0.003406
435.144700 -0.003154
435.364100 -0.002769
435.583500 -0.002323
435.802900 -0.001110
436.022300 -0.001614
436.241800 -0.001867
436.461200 -0.003196
436.680700 -0.003114
436.900100 -0.002937
437.119600 -0.001500
437.339100 -0.002162
437.558600 -0.001125
437.778200 -0.000969
437.997700 -0.001736
438.217300 -0.001469
438.436800 -0.000385
438.656400 -0.002794
438.876000 -0.000790
439.095600 0.000704
439.315200 -0.002879
439.534800 -0.001817
439.754500 -0.001018
439.974100 -0.004141
440.193800 -0.003392
440.413500 -0.004014
440.633100 -0.001377
440.852800 -0.003075
441.072500 -0.004745
441.292300 -0.003257
441.512000 -0.004477
441.731800 -0.004677
441.951500 -0.002219
442.171300 -0.002425
442.391100 -0.002635
442.610900 -0.002995
442.830700 -0.001791
443.050500 -0.002747
443.270300 -0.000247
443.490200 -0.002265
443.710100 -0.004157
443.929900 -0.003034
444.149800 -0.003252
444.369700 -0.002673
444.589600 -0.001372
444.809500 -0.002176
445.029500 -0.004656
445.249400 -0.003647
445.469400 -0.002992
445.689400 -0.001385
445.909300 -0.000545
446.129300 -0.003133
446.349300 -0.003805
446.569400 -0.003506
446.789400 -0.003583
447.009400 -0.005043
447.229500 -0.002339
447.449600 -0.001762
447.669600 -0.001745
447.889700 -0.002574
448.109800 -0.001488
448.330000 -0.002596
448.550100 -0.005064
448.770200 -0.001635
448.990400 -0.002979
449.210600 -0.004758
449.430700 -0.001586
449.650900 -0.002289
449.871100 -0.002343
450.091400 -0.003067
450.311600 -0.002767
450.531800 -0.002459
450.752100 -0.003715
450.972400 -0.000444
451.192600 -0.003796
451.412900 -0.004337
451.633200 -0.000374
451.853500 -0.002223
452.073900 -0.002019
452.294200 -0.003609
452.514600 -0.002582
452.734900 0.001775
452.955300 -0.001074
453.175700 -0.002611
453.396100 -0.002154
453.616500 -0.002010
453.836900 -0.002916
454.057400 -0.002249
454.277800 -0.002375
454.498300 -0.002970
454.718800 -0.002253
454.939300 -0.001668
455.159700 -0.002464
455.380300 -0.001844
455.600800 -0.000865
455.821300 -0.002364
456.041900 -0.001502
456.262400 -0.002868
456.483000 -0.002892
456.703600 -0.000476
456.924200 -0.002653
457.144800 -0.000832
457.365400 -0.002730
457.586000 -0.002307
457.806700 -0.001741
458.027400 -0.004396
458.248000 -0.000521
458.468700 -0.002902
458.689400 -0.001650
458.910100 -0.002553
459.130800 -0.004037
459.351600 -0.000919
459.572300 -0.002751
459.793100 -0.002846
460.013800 -0.002574
460.234600 -0.003583
460.455400 -0.004146
460.676200 -0.002002
460.897000 -0.002582
461.117800 -0.003028
461.338700 -0.001977
461.559500 -0.002526
461.780400 -0.000117
462.001300 -0.003286
462.222200 0.000194
462.443100 -0.001774
462.664000 -0.001384
462.884900 -0.000670
463.105900 -0.000642
463.326800 -0.001619
463.547800 -0.002867
463.768700 -0.003014
463.989700 -0.003295
464.210700 -0.002454
464.431700 -0.001987
464.652800 -0.001567
464.873800 -0.002925
465.094800 -0.004195
465.315900 -0.002007
465.537000 -0.003002
465.758100 -0.004119
465.979200 -0.002591
466.200300 -0.002320
466.421400 -0.001709
466.642500 -0.002324
466.863700 -0.002536
467.084800 -0.003285
467.306000 -0.003112
467.527200 -0.002226
467.748400 -0.002726
467.969600 -0.002561
468.190800 -0.004429
468.412000 -0.003694
468.633300 -0.004296
468.854500 -0.002045
469.075800 -0.001004
469.297000 -0.000231
469.518300 -0.001514
469.739600 -0.002697
469.961000 0.000049
470.182300 0.000418
470.403600 -0.001357
470.625000 -0.002992
470.846300 -0.003274
471.067700 -0.001125
471.289100 -0.002043
471.510500 -0.000053
471.731900 -0.000693
471.953300 -0.000105
472.174800 -0.002640
472.396200 -0.001455
472.617700 -0.002878
472.839100 -0.001399
473.060600 -0.003705
473.282100 -0.003550
473.503600 -0.003110
473.725100 -0.003103
473.946700 -0.003008
474.168200 -0.002379
474.389800 -0.002460
474.611300 -0.003416
474.832900 -0.000938
475.054500 -0.002329
475.276100 -0.002065
475.497700 -0.001236
475.719300 -0.000648
475.941000 -0.000856
476.162600 -0.003246
476.384300 -0.002920
476.606000 -0.001725
476.827700 -0.004267
477.049400 -0.001851
477.271100 -0.003075
477.492800 -0.002390
477.714500 -0.001096
477.936300 -0.004295
478.158000 -0.001939
478.379800 -0.003555
478.601600 -0.003033
478.823400 -0.002969
479.045200 -0.004076
479.267000 -0.002568
479.488800 -0.001285
479.710700 -0.001865
479.932500 -0.002726
480.154400 -0.002824
480.376300 -0.001168
480.598200 -0.004318
480.820100 -0.000465
481.042000 -0.002350
481.263900 -0.002898
481.485900 -0.001573
481.707800 -0.003865
481.929800 -0.000823
482.151700 -0.003062
482.373700 -0.002419
482.595700 -0.001091
482.817700 -0.003815
483.039800 -0.002417
483.261800 -0.003095
483.483800 -0.004123
483.705900 -0.001171
483.928000 -0.001850
484.150100 -0.003671
484.372100 -0.003273
484.594300 -0.001378
484.816400 -0.001349
485.038500 -0.003374
485.260600 -0.004260
485.482800 -0.005236
485.705000 -0.006081
485.927100 -0.009857
486.149300 -0.010687
486.371500 -0.008293
486.593700 -0.008136
486.816000 -0.007029
487.038200 -0.004615
487.260500 -0.004138
487.482700 -0.004892
487.705000 -0.002355
487.927300 -0.002484
488.149600 -0.003333
488.371900 -0.003355
488.594200 -0.002429
488.816500 -0.000225
489.038900 -0.002831
489.261200 -0.002310
489.483600 -0.001470
489.706000 -0.001712
489.928400 -0.002850
490.150800 -0.001501
490.373200 -0.001685
490.595600 -0.000932
490.818000 -0.003618
491.040500 -0.001828
491.263000 -0.000450
491.485400 -0.002057
491.707900 -0.002972
491.930400 -0.003710
492.152900 -0.001569
492.375500 -0.001298
492.598000 -0.001355
492.820500 -0.004115
493.043100 -0.003626
493.265700 -0.002806
493.488200 -0.003355
493.710800 -0.000801
493.933400 -0.001638
494.156100 -0.002164
494.378700 -0.003098
494.601300 -0.003232
494.824000 -0.001734
495.046600 -0.001780
495.269300 -0.003081
495.492000 -0.002858
495.714700 -0.001960
495.937400 -0.002156
496.160100 -0.002918
496.382900 -0.003786
496.605600 -0.002443
496.828400 -0.003268
497.051100 -0.003892
497.273900 -0.004328
497.496700 -0.003830
497.719500 -0.001538
497.942300 -0.001724
498.165200 -0.003010
498.388000 -0.003278
498.610900 -0.001584
498.833700 -0.002384
499.056600 -0.002381
499.279500 -0.002192
499.502400 -0.002260
499.725300 -0.004110
499.948200 -0.002510
500.171200 -0.000703
500.394100 -0.003453
500.617100 -0.001225
500.840000 -0.002121
501.063000 -0.004125
501.286000 -0.003644
501.509000 -0.001104
501.732000 -0.002999
501.955100 -0.001392
502.178100 -0.002891
502.401200 -0.001055
502.624200 -0.001574
502.847300 0.000261
503.070400 -0.003817
503.293500 -0.003139
503.516600 -0.001576
503.739700 -0.001051
503.962800 -0.001326
504.186000 -0.001488
504.409200 -0.002694
504.632300 -0.001793
504.855500 -0.004853
505.078700 -0.001295
505.301900 -0.003787
505.525100 -0.004582
505.748300 -0.003696
505.971600 -0.001165
506.194800 -0.003335
506.418100 -0.003214
506.641400 -0.002778
506.864700 -0.002975
507.088000 0.001177
507.311300 -0.001077
507.534600 -0.002828
507.757900 -0.003345
507.981300 -0.002427
508.204600 -0.001245
508.428000 -0.002209
508.651400 -0.001038
508.874800 -0.003276
509.098200 -0.002649
509.321600 -0.002010
509.545000 -0.003113
509.768500 -0.003673
509.991900 -0.003464
510.215400 -0.003317
510.438800 0.000023
510.662300 -0.001801
510.885800 -0.002552
511.109300 -0.003369
511.332900 -0.002030
511.556400 -0.002115
511.779900 -0.003704
512.003500 -0.003307
512.227000 -0.004742
512.450600 -0.000277
512.674200 -0.002066
512.897800 -0.001731
513.121400 -0.003419
513.345100 -0.001362
513.568700 -0.000117
513.792300 -0.001630
514.016000 -0.001290
514.239700 -0.003586
514.463400 -0.001369
514.687100 -0.002217
514.910800 -0.000048
515.134500 -0.002966
515.358200 -0.002798
515.581900 -0.000780
515.805700 -0.001503
516.029500 -0.001923
516.253200 -0.002333
516.477000 -0.002654
516.700800 -0.001691
516.924600 -0.000372
517.148500 -0.001289
517.372300 -0.002597
517.596100 0.000148
517.820000 -0.004236
518.043900 -0.003417
518.267700 -0.002732
518.491600 -0.001944
518.715500 -0.001465
518.939500 -0.003042
519.163400 -0.001125
519.387300 -0.003378
519.611300 -0.002277
519.835200 -0.001445
520.059200 -0.001374
520.283200 -0.002651
520.507200 -0.002184
520.731200 -0.000971
520.955200 -0.004662
521.179200 -0.001058
521.403300 -0.002102
521.627300 0.000998
521.851400 -0.000647
522.075500 -0.000406
522.299600 -0.002568
522.523700 -0.000634
522.747800 -0.000454
522.971900 -0.002995
523.196000 -0.002515
523.420200 -0.000897
523.644300 0.000126
523.868500 -0.001998
524.092700 -0.001882
524.316900 -0.001723
524.541100 -0.001653
524.765300 -0.002173
524.989500 -0.001808
525.213800 -0.003383
525.438000 -0.002764
525.662300 -0.004382
525.886500 -0.001185
526.110800 0.000081
526.335100 -0.002047
526.559400 0.001076
526.783700 -0.000880
527.008100 -0.001735
527.232400 -0.001130
527.456800 -0.001325
527.681100 -0.000682
527.905500 -0.000081
528.129900 -0.001411
528.354300 -0.001041
528.578700 -0.001983
528.803100 -0.001551
529.027600 -0.000549
529.252000 -0.003266
529.476500 -0.002472
529.700900 -0.000931
529.925400 -0.002169
530.149900 -0.001463
530.374400 -0.003018
530.598900 -0.001154
530.823400 -0.003927
531.048000 -0.000625
531.272500 -0.002479
531.497100 -0.000827
531.721700 -0.002237
531.946200 -0.001407
532.170800 -0.000859
532.395400 -0.000408
532.620000 -0.000675
532.844700 -0.001307
533.069300 -0.001303
533.294000 -0.000297
533.518600 -0.000965
533.743300 -0.002573
533.968000 -0.003627
534.192700 -0.002809
534.417400 -0.002986
534.642100 -0.004140
534.866800 -0.001423
535.091600 -0.002333
535.316300 -0.002576
535.541100 -0.001324
535.765900 0.000586
535.990700 -0.002105
536.215500 -0.000569
536.440300 -0.000784
536.665100 -0.001737
536.889900 0.000277
537.114800 0.000036
537.339600 -0.001656
537.564500 -0.003583
537.789400 -0.001888
538.014300 -0.001297
538.239200 -0.000666
538.464100 -0.002827
538.689000 -0.001268
538.913900 -0.002741
539.138900 -0.001001
539.363800 -0.002713
539.588800 -0.002923
539.813800 -0.004692
540.038800 -0.003092
540.263800 -0.001803
540.488800 -0.002039
540.713800 -0.001204
540.938900 -0.000628
541.163900 -0.002903
541.389000 -0.001017
541.614000 -0.001510
541.839100 -0.002653
542.064200 -0.000093
542.289300 -0.002624
542.514400 -0.002090
542.739600 -0.001846
542.964700 -0.002702
543.189900 -0.003613
543.415000 -0.004130
543.640200 -0.002171
543.865400 -0.003517
544.090600 -0.001784
544.315800 -0.002378
544.541000 -0.002779
544.766200 -0.002898
544.991500 -0.002912
545.216700 -0.001389
545.442000 -0.003092
545.667300 -0.004420
545.892600 -0.002607
546.117900 -0.002098
546.343200 -0.004000
546.568500 -0.001084
546.793800 -0.002734
547.019200 -0.001053
547.244500 -0.002389
547.469900 -0.002500
547.695300 -0.002462
547.920600 -0.002574
548.146000 -0.003063
548.371500 -0.002246
548.596900 -0.003164
548.822300 -0.001838
549.047800 -0.002546
549.273200 -0.001876
549.498700 -0.000684
549.724200 -0.002405
549.949600 -0.002149
550.175100 -0.002736
550.400700 0.000122
550.626200 -0.003261
550.851700 -0.003050
551.077300 -0.003079
551.302800 -0.001683
551.528400 -0.000673
551.754000 -0.002977
551.979600 -0.003316
552.205200 -0.000489
552.430800 -0.003649
552.656400 -0.001143
552.882000 -0.003415
553.107700 -0.002852
553.333300 -0.002501
553.559000 -0.001689
553.784700 -0.001434
554.010400 -0.004135
554.236100 -0.001396
554.461800 -0.002171
554.687500 -0.001499
554.913200 -0.002662
555.139000 -0.002589
555.364800 -0.000901
555.590500 -0.002739
555.816300 -0.001126
556.042100 -0.004240
556.267900 -0.002714
556.493700 -0.003689
556.719500 -0.001175
556.945400 -0.002346
557.171200 -0.000855
557.397100 -0.001651
557.623000 -0.002118
557.848800 -0.000717
558.074700 -0.001717
558.300600 -0.002937
558.526600 -0.000299
558.752500 -0.002927
558.978400 -0.001606
559.204400 -0.000392
559.430300 -0.000705
559.656300 -0.002407
559.882300 -0.000772
560.108300 -0.000644
560.334300 -0.000679
560.560300 -0.001916
560.786300 -0.002556
561.012400 -0.001380
561.238400 -0.001081
561.464500 -0.002323
561.690500 -0.002411
561.916600 -0.004058
562.142700 -0.001837
562.368800 -0.002970
562.594900 -0.004694
562.821100 -0.003445
563.047200 -0.003916
563.273300 -0.001072
563.499500 -0.001592
563.725700 -0.003638
563.951900 -0.000502
564.178100 -0.002449
564.404300 -0.004538
564.630500 -0.002843
564.856700 -0.003519
565.082900 -0.002002
565.309200 -0.002294
565.535500 -0.003251
565.761700 -0.001520
565.988000 -0.002140
566.214300 0.000564
566.440600 -0.000613
566.666900 -0.000771
566.893200 -0.003583
567.119600 -0.000860
567.345900 -0.001865
567.572300 -0.003159
567.798700 -0.002398
568.025000 -0.002751
568.251400 -0.005612
568.477800 -0.002467
568.704300 -0.002540
568.930700 -0.003320
569.157100 -0.004458
569.383600 -0.002093
569.610000 -0.003466
569.836500 -0.005576
570.063000 -0.003039
570.289500 -0.007872
570.516000 -0.007915
570.742500 -0.006240
570.969000 -0.005358
571.195600 -0.005444
571.422100 -0.004898
571.648700 -0.006568
571.875200 -0.008659
572.101800 -0.008661
572.328400 -0.009800
572.555000 -0.009957
572.781600 -0.012591
573.008200 -0.008341
573.234900 -0.008488
573.461500 -0.008833
573.688200 -0.009269
573.914900 -0.011652
574.141500 -0.009056
574.368200 -0.011097
574.594900 -0.008740
574.821600 -0.009236
575.048400 -0.013003
575.275100 -0.011776
575.501800 -0.011974
575.728600 -0.010357
575.955400 -0.007191
576.182100 -0.013741
576.408900 -0.013843
576.635700 -0.011797
576.862600 -0.013024
577.089400 -0.007328
577.316200 -0.011374
577.543100 -0.014494
577.769900 -0.012238
577.996800 -0.017162
578.223700 -0.017192
578.450500 -0.013649
578.677400 -0.013700
578.904400 -0.013074
579.131300 -0.008889
579.358200 -0.010007
579.585100 -0.011194
579.812100 -0.011687
580.039100 -0.011406
580.266000 -0.009771
580.493000 -0.010999
580.720000 -0.012073
580.947000 -0.007960
581.174100 -0.012139
581.401100 -0.011365
581.628100 -0.018208
581.855200 -0.016881
582.082200 -0.019158
582.309300 -0.018181
582.536400 -0.014825
582.763500 -0.008999
582.990600 -0.010049
583.217700 -0.006983
583.444900 -0.007634
583.672000 -0.009671
583.899100 -0.010224
584.126300 -0.007063
584.353500 -0.006661
584.580700 -0.005260
584.807900 -0.014151
585.035100 -0.014959
585.262300 -0.015490
585.489500 -0.015050
585.716700 -0.011546
585.944000 -0.013037
586.171300 -0.008381
586.398500 -0.009121
586.625800 -0.009394
586.853100 -0.007979
587.080400 -0.008598
587.307700 -0.004496
587.535000 -0.011097
587.762400 -0.008367
587.989700 -0.007877
588.217100 -0.012999
588.444500 -0.013902
588.671800 -0.007399
588.899200 -0.007336
589.126600 -0.008901
589.354000 -0.013691
589.581500 -0.009154
589.808900 -0.008459
590.036300 -0.010881
590.263800 -0.007535
590.491300 -0.006310
590.718700 -0.002879
590.946200 -0.006055
591.173700 -0.006107
591.401200 -0.011013
591.628800 -0.007369
591.856300 -0.005322
592.083800 -0.006216
592.311400 -0.005169
592.538900 -0.006127
592.766500 -0.010995
592.994100 -0.010568
593.221700 -0.013494
593.449300 -0.010850
593.676900 -0.009286
593.904600 -0.010581
594.132200 -0.006847
594.359800 -0.009951
594.587500 -0.009040
594.815200 -0.007888
595.042900 -0.012200
595.270500 -0.011903
595.498300 -0.009376
595.726000 -0.011678
595.953700 -0.011442
596.181400 -0.010407
596.409200 -0.006650
596.636900 -0.010875
596.864700 -0.009171
597.092500 -0.009367
597.320300 -0.009995
597.548100 -0.009035
597.775900 -0.011345
598.003700 -0.009983
598.231500 -0.009393
598.459400 -0.008958
598.687200 -0.012174
598.915100 -0.012496
599.143000 -0.012279
599.370900 -0.013861
599.598800 -0.012488
599.826700 -0.009456
600.054600 -0.009790
600.282500 -0.012712
600.510500 -0.009052
600.738400 -0.008269
600.966400 -0.009472
601.194400 -0.007540
601.422300 -0.007620
601.650300 -0.007092
601.878300 -0.007625
602.106400 -0.009626
602.334400 -0.010668
602.562400 -0.009886
602.790500 -0.012111
603.018500 -0.006692
603.246600 -0.010176
603.474700 -0.011285
603.702800 -0.012107
603.930900 -0.012715
604.159000 -0.014115
604.387100 -0.013607
604.615200 -0.009347
604.843400 -0.008996
605.071500 -0.010471
605.299700 -0.007899
605.527900 -0.006703
605.756100 -0.007603
605.984300 -0.006738
606.212500 -0.005847
606.440700 -0.005838
606.668900 -0.003895
606.897200 -0.004001
607.125400 -0.007505
607.353700 -0.005708
607.581900 -0.009931
607.810200 -0.007752
608.038500 -0.009588
608.266800 -0.006611
608.495100 -0.005823
608.723500 -0.001282
608.951800 -0.007836
609.180100 -0.003959
609.408500 -0.005937
609.636900 -0.006306
609.865300 -0.006395
610.093600 -0.008708
610.322000 -0.008974
610.550500 -0.006281
610.778900 -0.007781
611.007300 -0.005524
611.235700 -0.010210
611.464200 -0.010334
611.692700 -0.005590
611.921100 -0.007008
612.149600 -0.010286
612.378100 -0.006831
612.606600 -0.006896
612.835100 -0.006620
613.063700 -0.006778
613.292200 -0.005874
613.520800 -0.005009
613.749300 -0.007734
613.977900 -0.009574
614.206500 -0.007503
614.435100 -0.006215
614.663700 -0.008681
614.892300 -0.006765
615.120900 -0.002377
615.349500 -0.011233
615.578200 -0.008022
615.806800 -0.009102
616.035500 -0.006909
616.264200 -0.004973
616.492900 -0.005828
616.721600 -0.005227
616.950300 -0.006136
617.179000 -0.002841
617.407700 -0.005088
617.636500 -0.003878
617.865200 -0.004656
618.094000 -0.005774
618.322700 -0.003713
618.551500 -0.002535
618.780300 -0.004740
619.009100 -0.005019
619.237900 -0.006021
619.466700 -0.004695
619.695600 -0.003169
619.924400 -0.005774
620.153300 -0.004269
620.382100 -0.005604
620.611000 -0.004653
620.839900 -0.001409
621.068800 -0.001885
621.297700 -0.002934
621.526600 -0.002323
621.755600 -0.002385
621.984500 -0.004698
622.213500 -0.003196
622.442400 -0.004322
622.671400 -0.007152
622.900400 -0.002724
623.129400 -0.004130
623.358400 -0.003482
623.587400 -0.004604
623.816400 -0.001701
624.045400 -0.005196
624.274500 -0.004521
624.503500 -0.002675
624.732600 -0.001587
624.961700 -0.006963
625.190800 -0.002725
625.419900 -0.002939
625.649000 -0.004065
625.878100 -0.004611
626.107200 -0.001686
626.336400 -0.003614
626.565500 -0.004657
626.794700 -0.004452
627.023800 -0.001639
627.253000 -0.002151
627.482200 -0.002671
627.711400 -0.000516
627.940600 -0.004806
628.169800 -0.003057
628.399100 -0.002073
628.628300 -0.000842
628.857600 -0.001486
629.086800 -0.002330
629.316100 -0.002797
629.545400 -0.001429
629.774700 -0.003900
630.004000 -0.003186
630.233300 -0.004720
630.462600 -0.002860
630.692000 -0.002376
630.921300 -0.003343
631.150700 -0.003885
631.380100 -0.002504
631.609400 -0.002679
631.838800 -0.003202
632.068200 -0.001421
632.297600 -0.001741
632.527100 -0.002835
632.756500 -0.001894
632.985900 -0.002056
633.215400 -0.001415
633.444800 -0.000796
633.674300 -0.002449
633.903800 -0.001109
634.133300 -0.000182
634.362800 -0.002341
634.592300 -0.001705
634.821800 -0.002088
635.051400 -0.003049
635.280900 -0.001459
635.510500 0.001249
635.740000 -0.002665
635.969600 -0.004120
636.199200 -0.002520
636.428800 -0.001460
636.658400 -0.000951
636.888000 -0.001764
637.117700 -0.001423
637.347300 -0.001441
637.577000 -0.001750
637.806600 -0.003794
638.036300 -0.001511
638.266000 -0.001222
638.495700 -0.002563
638.725400 -0.001029
638.955100 -0.001704
639.184800 -0.000117
639.414500 -0.002785
639.644300 -0.000673
639.874000 -0.000698
640.103800 -0.000905
640.333600 -0.000314
640.563300 -0.000239
640.793100 -0.002065
641.022900 -0.001015
641.252800 -0.001466
641.482600 -0.002502
641.712400 -0.001997
641.942300 -0.000861
642.172100 -0.000895
642.402000 -0.001410
642.631900 -0.000375
642.861700 -0.000986
643.091600 -0.001975
643.321600 -0.002075
643.551500 0.001230
643.781400 -0.001499
644.011300 -0.000519
644.241300 -0.001547
644.471200 -0.000330
644.701200 0.000093
644.931200 -0.002197
645.161200 -0.001133
645.391200 -0.001268
645.621200 -0.001687
645.851200 0.000387
646.081200 -0.000085
646.311300 -0.001596
646.541300 -0.003266
646.771400 0.000018
647.001500 -0.000708
647.231600 -0.000442
647.461600 -0.000790
647.691800 0.000130
647.921900 -0.000504
648.152000 -0.001385
648.382100 -0.000893
648.612300 -0.002360
648.842400 -0.000814
649.072600 -0.002179
649.302800 -0.000838
649.532900 -0.001402
649.763100 -0.001823
649.993300 -0.001927
650.223600 -0.001870
650.453800 -0.000457
650.684000 -0.001230
650.914300 -0.000810
651.144500 -0.002351
651.374800 -0.001000
651.605100 -0.000236
651.835400 -0.001089
652.065700 -0.001814
652.296000 0.001105
652.526300 -0.001106
652.756600 -0.000287
652.987000 -0.000800
653.217300 -0.000489
653.447700 -0.002813
653.678000 -0.001274
653.908400 -0.000787
654.138800 -0.003298
654.369200 -0.003281
654.599600 -0.003413
654.830000 -0.002966
655.060500 -0.007812
655.290900 -0.016317
655.521300 -0.055476
655.751800 -0.081972
655.982300 -0.006724
656.212800 -0.002245
656.443300 -0.003363
656.673800 -0.002840
656.904300 -0.006585
657.134800 -0.080520
657.365300 -0.067125
657.595900 -0.050000
657.826400 -0.047815
658.057000 -0.044287
658.287500 -0.042785
658.518100 -0.032598
658.748700 -0.031093
658.979300 -0.033627
659.209900 -0.028215
659.440600 -0.019583
659.671200 -0.011313
659.901800 -0.007373
660.132500 -0.002981
660.363200 -0.003681
660.593800 -0.002902
660.824500 -0.000793
661.055200 -0.000994
661.285900 -0.002202
661.516600 -0.001263
661.747400 -0.001646
661.978100 -0.001287
662.208800 -0.002232
662.439600 -0.001252
662.670400 -0.002533
662.901100 -0.002552
663.131900 -0.001578
663.362700 -0.001477
663.593500 -0.002711
663.824300 -0.000790
664.055200 0.000154
664.286000 -0.000083
664.516800 -0.000858
664.747700 -0.002207
664.978600 -0.000142
665.209400 -0.002201
665.440300 -0.002105
665.671200 -0.001992
665.902100 -0.002318
666.133000 -0.001875
666.364000 -0.001918
666.594900 -0.001002
666.825900 -0.001029
667.056800 -0.001328
667.287800 -0.001301
667.518800 -0.000770
667.749700 -0.001353
667.980700 -0.001471
668.211700 -0.000447
668.442800 -0.001151
668.673800 -0.002370
668.904800 -0.001291
669.135900 -0.002670
669.366900 -0.001374
669.598000 -0.001309
669.829100 -0.000518
670.060200 -0.000458
670.291300 -0.002374
670.522400 -0.000826
670.753500 -0.001357
670.984600 -0.001638
671.215700 -0.001283
671.446900 -0.003878
671.678100 -0.001405
671.909200 -0.002013
672.140400 -0.003047
672.371600 -0.001018
672.602800 -0.000834
672.834000 -0.001246
673.065200 -0.000639
673.296400 -0.000108
673.527700 -0.002115
673.758900 -0.001026
673.990200 -0.001880
674.221400 -0.002305
674.452700 -0.001290
674.684000 -0.002193
674.915300 -0.003695
675.146600 -0.001476
675.377900 0.001211
675.609300 -0.002601
675.840600 -0.002679
676.071900 -0.001473
676.303300 -0.001033
676.534700 0.000000
676.766100 -0.002313
676.997400 -0.000798
677.228800 -0.001147
677.460200 -0.001420
677.691700 -0.001746
677.923100 -0.000777
678.154500 -0.001655
678.386000 -0.000875
678.617400 -0.000842
678.848900 -0.001507
679.080400 -0.000445
679.311900 -0.002006
679.543400 -0.000396
679.774900 -0.001756
680.006400 -0.003302
680.237900 -0.001369
680.469400 -0.003999
680.701000 -0.002655
680.932500 -0.000701
681.164100 -0.002049
681.395700 -0.000895
681.627300 -0.002581
681.858900 -0.002613
682.090500 -0.001914
682.322100 -0.001408
682.553700 -0.001284
682.785400 -0.001511
683.017000 -0.002667
683.248700 -0.001215
683.480300 -0.000845
683.712000 0.001405
683.943700 -0.001169
684.175400 -0.002994
684.407100 -0.002811
684.638800 -0.000356
684.870500 -0.001732
685.102300 -0.002655
685.334000 -0.000969
685.565800 -0.003744
685.797500 -0.003557
686.029300 -0.001327
686.261100 -0.004215
686.492900 -0.001320
686.724700 -0.002317
686.956500 0.000039
687.188300 -0.002091
687.420200 -0.002435
687.652000 -0.001229
687.883800 -0.001630
688.115700 -0.000636
688.347600 -0.002183
688.579500 -0.002103
688.811400 -0.001779
689.043300 -0.003493
689.275200 -0.002022
689.507100 -0.001994
689.739000 -0.001646
689.971000 -0.001301
690.202900 -0.002311
690.434900 -0.001242
690.666900 -0.002473
690.898800 -0.002458
691.130800 -0.002689
691.362800 -0.001185
691.594800 -0.002208
691.826900 -0.003087
692.058900 -0.001727
692.290900 -0.003450
692.523000 -0.003478
692.755000 -0.003925
692.987100 -0.000784
693.219200 -0.002387
693.451300 -0.001709
693.683400 -0.001783
693.915500 -0.000074
694.147600 -0.000240
694.379700 -0.003415
694.611900 -0.002065
694.844000 -0.001393
695.076200 -0.000327
695.308300 -0.001902
695.540500 -0.001984
695.772700 0.000521
696.004900 -0.002407
696.237100 -0.001680
696.469300 -0.000811
696.701600 -0.002069
696.933800 -0.001597
697.166000 -0.001403
697.398300 -0.003850
697.630600 -0.003882
697.862800 -0.004005
698.095100 -0.003313
698.327400 -0.002063
698.559700 -0.002317
698.792000 -0.001562
699.024300 -0.000893
699.256700 -0.003267
699.489000 -0.001413
699.721400 -0.002342
699.953700 -0.000529
700.186100 -0.000100
700.418500 -0.001035
700.650900 -0.000761
700.883300 -0.001334
701.115700 -0.002231
701.348100 -0.000490
701.580600 -0.001627
701.813000 -0.002306
702.045400 -0.000304
702.277900 -0.001469
702.510400 -0.003405
702.742900 -0.000160
702.975300 -0.000214
703.207800 -0.001803
703.440300 -0.003812
703.672900 -0.003082
703.905400 -0.000235
704.137900 -0.001616
704.370500 -0.000694
704.603000 -0.000411
704.835600 -0.001620
705.068200 -0.000398
705.300800 -0.000622
705.533400 -0.001691
705.766000 -0.001133
705.998600 -0.002229
706.231200 -0.001624
706.463800 -0.001852
706.696500 -0.002325
706.929100 -0.000405
707.161800 0.000266
707.394500 -0.002546
707.627200 -0.001280
707.859900 -0.004185
708.092600 -0.003847
708.325300 -0.001966
708.558000 -0.001277
708.790700 -0.002145
709.023500 -0.004705
709.256200 -0.001014
709.489000 -0.000405
709.721700 0.000746
709.954500 -0.000525
710.187300 -0.000364
710.420100 -0.002237
710.652900 0.000611
710.885700 -0.001530
711.118600 -0.002080
711.351400 -0.000147
711.584200 -0.000746
711.817100 -0.001872
712.050000 -0.001962
712.282800 -0.000530
712.515700 -0.001332
712.748600 -0.001978
712.981500 -0.001261
713.214400 -0.002249
713.447400 -0.000624
713.680300 -0.000835
713.913200 -0.001938
714.146200 -0.000300
714.379100 -0.001284
714.612100 -0.001344
714.845100 -0.001457
715.078100 -0.002370
715.311100 -0.000139
715.544100 -0.001611
715.777100 -0.000638
716.010200 -0.001409
716.243200 0.001267
716.476200 -0.003340
716.709300 -0.003237
716.942400 -0.001268
717.175400 -0.001209
717.408500 -0.001712
717.641600 -0.000361
717.874700 -0.001670
718.107800 -0.002011
718.341000 -0.001578
718.574100 -0.001314
718.807200 -0.001929
719.040400 -0.002031
719.273600 -0.000618
719.506700 -0.001369
719.739900 -0.001195
719.973100 -0.000183
720.206300 -0.000199
720.439500 -0.001364
720.672700 -0.000361
720.906000 -0.001341
721.139200 0.000447
721.372500 -0.002439
721.605700 -0.001894
721.839000 -0.002217
722.072300 -0.001123
722.305500 -0.000800
722.538800 -0.001163
722.772100 0.000244
723.005500 0.000120
723.238800 -0.001132
723.472100 -0.000312
723.705500 -0.001240
723.938800 -0.000589
724.172200 -0.001431
724.405600 -0.001090
724.638900 -0.003518
724.872300 -0.000734
725.105700 -0.001608
725.339100 -0.003005
725.572600 -0.001317
725.806000 -0.000139
726.039400 -0.001464
726.272900 -0.003075
726.506300 -0.002492
726.739800 -0.002227
726.973300 -0.000698
727.206800 -0.001985
727.440300 -0.001854
727.673800 -0.001686
727.907300 -0.002628
728.140800 -0.001700
728.374300 -0.001120
728.607900 -0.001379
728.841400 -0.001517
729.075000 -0.002256
729.308600 -0.000008
729.542100 -0.001956
729.775700 -0.001920
730.009300 -0.000303
730.242900 -0.001516
730.476600 -0.001965
730.710200 -0.002837
730.943800 -0.004077
731.177500 -0.003902
731.411100 -0.002650
731.644800 -0.002583
731.878500 -0.001482
732.112200 -0.000800
732.345800 -0.001954
732.579500 -0.004359
732.813300 -0.003318
733.047000 -0.003569
733.280700 -0.004166
733.514500 -0.001237
733.748200 -0.003022
733.982000 -0.003310
734.215700 -0.001482
734.449500 -0.003343
734.683300 -0.004895
734.917100 -0.001179
735.150900 -0.001235
735.384700 -0.002505
735.618500 -0.001647
735.852400 -0.004228
736.086200 -0.003436
736.320100 -0.001147
736.553900 -0.004909
736.787800 -0.002878
737.021700 -0.001911
737.255600 -0.002399
737.489500 -0.001457
737.723400 -0.000822
737.957300 -0.000637
738.191200 -0.001121
738.425200 -0.001639
738.659100 -0.002338
738.893100 0.001277
739.127100 -0.002984
739.361000 -0.003511
739.595000 -0.003089
739.829000 -0.001746
740.063000 -0.001014
740.297000 -0.002615
740.531000 -0.000830
740.765100 -0.001621
740.999100 -0.003302
741.233200 -0.002507
741.467200 -0.001540
741.701300 -0.000479
741.935400 -0.003040
742.169500 -0.000346
742.403600 -0.000334
742.637700 -0.001203
742.871800 0.000481
743.105900 -0.001472
743.340000 -0.000750
743.574200 -0.000681
743.808300 -0.001848
744.042500 0.000370
744.276700 -0.000554
744.510800 0.000824
744.745000 -0.000100
744.979200 -0.001342
745.213400 -0.000994
745.447700 -0.000685
745.681900 0.000299
745.916100 -0.001065
746.150400 -0.001169
746.384600 -0.002302
746.618900 -0.000527
746.853200 -0.001476
747.087400 -0.000217
747.321700 -0.001405
747.556000 -0.001685
747.790300 -0.002654
748.024700 0.000237
748.259000 -0.001244
748.493300 -0.001782
748.727700 -0.001610
748.962000 -0.001690
749.196400 -0.001190
749.430800 -0.002154
749.665200 -0.000304
749.899500 -0.000651
750.133900 -0.001452
750.368400 -0.003175
750.602800 -0.002469
750.837200 -0.000801
751.071700 -0.001617
751.306100 -0.002968
751.540600 -0.001089
751.775000 -0.001628
752.009500 -0.001494
752.244000 -0.002078
752.478500 -0.000064
752.713000 -0.001031
752.947500 -0.000573
753.182000 -0.002993
753.416600 -0.001353
753.651100 -0.004012
753.885600 -0.002605
754.120200 -0.002299
754.354800 -0.000387
754.589400 -0.001572
754.823900 -0.001361
755.058500 -0.003076
755.293100 -0.001177
755.527800 -0.002935
755.762400 -0.001100
755.997000 -0.002091
756.231700 -0.003634
756.466300 -0.001967
756.701000 -0.003116
756.935600 -0.002697
757.170300 -0.002976
757.405000 -0.004103
757.639700 -0.003782
757.874400 -0.004702
758.109100 -0.004569
758.343800 -0.002470
758.578600 -0.002388
758.813300 -0.002946
759.048100 -0.002902
759.282800 -0.001524
759.517600 -0.002657
759.752400 -0.003610
759.987200 -0.003296
760.222000 -0.004712
760.456800 -0.003071
760.691600 -0.004161
760.926400 -0.004317
761.161300 -0.003573
761.396100 -0.000449
761.631000 -0.003547
761.865800 -0.006462
762.100700 -0.004276
762.335600 -0.004031
762.570500 -0.002283
762.805400 -0.001960
763.040300 -0.002146
763.275200 -0.003154
763.510100 -0.003513
763.745000 -0.004280
763.980000 -0.005247
764.214900 -0.003042
764.449900 -0.005158
764.684900 -0.003803
764.919800 -0.001039
765.154800 -0.002303
765.389800 -0.003442
765.624800 -0.004831
765.859900 -0.000974
766.094900 -0.003068
766.329900 -0.003437
766.565000 -0.001774
766.800000 -0.000467
767.035100 -0.001867
767.270100 -0.001772
767.505200 -0.001720
767.740300 -0.002011
767.975400 -0.002662
768.210500 -0.003660
768.445600 -0.000315
768.680800 -0.002167
768.915900 -0.005409
769.151000 -0.001984
769.386200 -0.001778
769.621400 -0.000849
769.856500 -0.003989
770.091700 -0.002488
770.326900 -0.000783
770.562100 -0.002804
770.797300 -0.001591
771.032500 -0.001872
771.267700 -0.001892
771.503000 -0.001963
771.738200 -0.003852
771.973500 0.000406
772.208700 -0.001068
772.444000 -0.002963
772.679300 -0.000038
772.914600 -0.001811
773.149900 -0.001325
773.385200 -0.000604
773.620500 -0.001305
773.855800 -0.001175
774.091100 -0.002265
774.326500 -0.001492
774.561800 -0.002399
774.797200 -0.003778
775.032600 -0.004723
775.267900 -0.000681
775.503300 -0.001767
775.738700 -0.000882
775.974100 -0.001409
776.209500 -0.001532
776.445000 -0.001916
776.680400 -0.002748
776.915800 -0.000858
777.151300 -0.001508
777.386800 -0.000862
777.622200 -0.000397
777.857700 -0.000921
778.093200 -0.000278
778.328700 -0.001410
778.564200 -0.001118
778.799700 -0.001990
779.035200 -0.000350
779.270700 -0.000188
779.506300 -0.001693
779.741800 -0.000913
779.977400 -0.000881
780.213000 -0.002844
780.448500 0.000005
780.684100 -0.001750
780.919700 -0.003205
781.155300 -0.000627
781.390900 -0.004234
781.626500 -0.001720
781.862200 -0.002050
782.097800 -0.002325
782.333500 -0.000599
782.569100 -0.002265
782.804800 -0.000975
783.040500 -0.000872
783.276100 -0.000683
783.511800 -0.000809
783.747500 -0.002184
783.983200 0.000009
784.219000 -0.002160
784.454700 -0.000167
784.690400 -0.002214
784.926200 -0.002259
785.161900 -0.002742
785.397700 -0.001550
785.633500 0.000505
785.869200 -0.001581
786.105000 -0.001422
786.340800 -0.001394
786.576600 -0.002032
786.812400 -0.002165
787.048300 -0.002169
787.284100 -0.002383
787.519900 -0.001346
787.755800 -0.002224
787.991700 -0.000782
788.227500 -0.000836
788.463400 -0.002344
788.699300 -0.001128
788.935200 -0.001099
789.171100 -0.002252
789.407000 -0.001380
789.642900 -0.002639
789.878900 -0.002580
790.114800 -0.001687
790.350700 -0.001121
790.586700 -0.001325
790.822700 -0.001736
791.058600 0.000225
791.294600 -0.002219
791.530600 -0.000900
791.766600 -0.002528
792.002600 -0.001889
792.238700 -0.000264
792.474700 -0.001748
792.710700 -0.000348
792.946800 0.001078
793.182800 -0.001716
793.418900 -0.000686
793.655000 -0.001445
793.891000 -0.001927
794.127100 -0.003748
794.363200 -0.003343
794.599300 -0.001559
794.835500 -0.000526
795.071600 -0.002972
795.307700 -0.002818
795.543900 -0.001967
795.780000 -0.000919
796.016200 -0.001370
796.252300 -0.002032
796.488500 -0.002409
796.724700 -0.002199
796.960900 -0.002684
797.197100 -0.000457
797.433300 -0.000725
797.669500 -0.001326
797.905800 -0.001227
798.142000 -0.001334
798.378300 -0.001354
798.614500 -0.000485
798.850800 -0.001149
799.087100 -0.001925
799.323300 -0.001199
799.559600 -0.000254
799.795900 -0.001294
800.032200 -0.002892
800.268600 -0.000603
800.504900 -0.001281
800.741200 -0.001352
800.977600 -0.001724
801.213900 -0.000462
801.450300 -0.003349
801.686700 -0.000993
801.923000 -0.002307
802.159400 -0.001567
802.395800 -0.001036
802.632200 -0.001524
802.868600 0.000934
803.105100 -0.001351
803.341500 -0.000762
803.577900 -0.001981
803.814400 -0.000793
804.050800 -0.000945
804.287300 -0.000870
804.523800 -0.000799
804.760300 -0.000300
804.996800 0.000199
805.233300 -0.001355
805.469800 -0.001376
805.706300 -0.000114
805.942800 -0.001133
806.179400 -0.000239
806.415900 -0.001298
806.652500 -0.000960
806.889000 -0.003609
807.125600 -0.001497
807.362200 -0.000646
807.598800 -0.001649
807.835400 -0.001892
808.072000 -0.001048
808.308600 -0.000460
808.545200 -0.001505
808.781800 0.000566
809.018500 -0.003189
809.255100 -0.000092
809.491800 -0.000476
809.728400 -0.000504
809.965100 -0.000096
810.201800 -0.001081
810.438500 0.000927
810.675200 0.000182
810.911900 -0.001418
811.148600 -0.000936
811.385300 -0.001633
811.622100 -0.001155
811.858800 -0.000030
812.095600 -0.000006
812.332300 -0.001357
812.569100 0.000033
812.805900 0.000012
813.042700 -0.000428
813.279500 -0.001113
813.516300 0.001190
813.753100 -0.001183
813.989900 -0.001348
814.226700 -0.001992
814.463600 -0.001292
814.700400 -0.001359
814.937300 -0.000417
815.174200 -0.001363
815.411000 -0.000446
815.647900 0.001351
815.884800 -0.000287
816.121700 -0.001086
816.358600 -0.000070
816.595500 -0.001483
816.832400 -0.000516
817.069400 0.000329
817.306300 -0.001707
817.543300 -0.000055
817.780200 0.000239
818.017200 -0.001161
818.254200 -0.001308
818.491200 0.000757
818.728200 -0.001549
818.965200 -0.001442
819.202200 -0.000787
819.439200 -0.000154
819.676200 0.000088
819.913300 -0.000225
820.150300 -0.000053
820.387400 -0.002207
820.624400 -0.001683
820.861500 -0.000692
821.098600 -0.001743
821.335700 -0.002555
821.572700 -0.000416
821.809900 -0.001018
822.047000 -0.002038
822.284100 -0.000038
822.521200 -0.001053
822.758400 -0.001442
822.995500 -0.001884
823.232700 -0.002482
823.469800 -0.001649
823.707000 0.000000
823.944200 -0.000991
824.181400 -0.001301
824.418600 -0.000337
824.655800 -0.000018
824.893000 -0.000590
825.130200 -0.000738
825.367500 -0.000302
825.604700 -0.001210
825.841900 -0.000197
826.079200 -0.000772
826.316500 -0.001002
826.553700 -0.000188
826.791000 -0.002014
827.028300 -0.001342
827.265600 -0.001251
827.502900 -0.002091
827.740200 -0.001247
827.977600 -0.000667
828.214900 -0.000664
828.452200 -0.000734
828.689600 -0.000159
828.927000 0.000131
829.164300 0.000170
829.401700 -0.000888
829.639100 -0.000611
829.876500 -0.000288
830.113900 -0.001796
830.351300 -0.001255
830.588700 -0.000639
830.826100 -0.000039
831.063600 0.000773
831.301000 -0.001298
831.538500 -0.000377
831.775900 0.000028
832.013400 0.000220
832.250900 0.000045
832.488400 -0.001611
832.725900 -0.000618
832.963400 -0.002198
833.200900 -0.000760
833.438400 -0.000643
833.675900 -0.001927
833.913500 -0.000850
834.151000 -0.001005
834.388600 -0.001935
834.626100 -0.000088
834.863700 -0.001490
835.101300 -0.000425
835.338900 -0.000598
835.576500 -0.000785
835.814100 0.000541
836.051700 -0.000099
836.289300 -0.002260
836.526900 0.001098
836.764600 -0.000641
837.002200 -0.000517
837.239900 -0.001028
837.477500 -0.000584
837.715200 0.000411
837.952900 -0.000728
838.190600 -0.001210
838.428300 0.000594
838.666000 -0.001760
838.903700 0.000221
839.141400 -0.000703
839.379100 0.000042
839.616900 -0.000398
839.854600 0.000175
840.092400 -0.000145
840.330200 0.000292
840.567900 -0.001032
840.805700 -0.000798
841.043500 -0.001758
841.281300 -0.000908
841.519100 -0.000721
841.756900 -0.000047
841.994700 0.000734
842.232600 -0.000451
842.470400 -0.001956
842.708200 0.000664
842.946100 0.000023
843.184000 0.001152
843.421800 -0.000690
843.659700 -0.000712
843.897600 0.000837
844.135500 -0.001052
844.373400 0.000200
844.611300 -0.000264
844.849200 0.000129
845.087200 -0.001394
845.325100 -0.000582
845.563100 -0.001102
845.801000 -0.001302
846.039000 -0.000194
846.277000 0.000537
846.514900 0.000699
846.752900 0.000100
846.990900 0.000206
847.228900 0.000311
847.466900 -0.002131
847.705000 0.000091
847.943000 0.000422
848.181000 0.000351
848.419100 -0.001049
848.657100 -0.000898
848.895200 -0.000240
849.133300 -0.001802
849.371300 0.000400
849.609400 -0.000191
849.847500 -0.000212
850.085600 -0.000648
850.323700 -0.001382
850.561900 -0.000019
850.800000 -0.000581
851.038100 -0.000589
851.276300 0.000276
851.514400 0.000010
851.752600 -0.000964
851.990800 0.000301
852.228900 0.000671
852.467100 -0.000472
852.705300 0.000348
852.943500 -0.000499
853.181700 -0.001747
853.420000 0.000011
853.658200 -0.000125
853.896400 -0.000717
854.134700 -0.000228
854.372900 -0.000203
854.611200 -0.000787
854.849500 -0.002734
855.087700 -0.000245
855.326000 -0.002502
855.564300 -0.000348
855.802600 -0.002422
856.040900 -0.001694
856.279200 -0.001396
856.517600 -0.000840
856.755900 0.000272
856.994200 -0.000017
857.232600 -0.000133
857.471000 -0.000764
857.709300 -0.000383
857.947700 0.000078
858.186100 -0.001114
858.424500 0.000728
858.662900 0.000419
858.901300 -0.000998
859.139700 -0.001351
859.378100 0.001163
859.616600 0.000012
859.855000 0.000164
860.093500 0.000084
860.331900 0.000640
860.570400 -0.001408
860.808900 0.000242
861.047300 -0.000852
861.285800 0.000270
861.524300 -0.002560
861.762800 -0.000796
862.001300 0.000144
862.239900 -0.001333
862.478400 0.000147
862.716900 0.000421
862.955500 -0.000834
863.194000 -0.000380
863.432600 -0.000046
863.671200 -0.000313
863.909800 0.000154
864.148300 -0.000451
864.386900 -0.000177
864.625500 -0.001214
864.864200 -0.000644
865.102800 0.000603
865.341400 -0.000602
865.580000 0.000895
865.818700 -0.000722
866.057300 -0.000496
866.296000 -0.000982
866.534700 -0.000187
866.773300 -0.000334
867.012000 -0.000855
867.250700 -0.000757
867.489400 -0.000276
867.728100 0.000203
867.966900 -0.001443
868.205600 0.000438
868.444300 0.000210
868.683100 0.000425
868.921800 0.000037
869.160600 -0.000708
869.399300 -0.001094
869.638100 -0.000483
869.876900 -0.000103
870.115700 0.000253
870.354500 -0.000498
870.593300 0.000290
870.832100 -0.000623
871.070900 0.000080
871.309700 0.000010
871.548600 -0.001608
871.787400 0.000312
872.026300 0.000098
872.265100 0.000833
872.504000 -0.000152
872.742900 -0.000610
872.981800 -0.000508
873.220700 -0.000855
873.459600 -0.001650
873.698500 -0.000891
873.937400 -0.000468
874.176300 -0.000447
874.415300 -0.001295
874.654200 -0.000971
874.893200 -0.001038
875.132100 0.000997
875.371100 0.000094
875.610100 0.000049
875.849100 -0.000728
876.088000 -0.000124
876.327000 -0.000352
876.566100 -0.000275
876.805100 0.000017
877.044100 -0.000037
877.283100 0.001058
877.522200 0.000885
877.761200 0.000260
878.000300 -0.000936
878.239300 -0.001298
878.478400 -0.000092
878.717500 -0.000560
878.956600 -0.001087
879.195700 -0.001885
879.434800 0.000924
879.673900 -0.001185
879.913000 -0.000053
880.152100 -0.000950
880.391300 -0.000288
880.630400 -0.001776
880.869600 0.000626
881.108700 0.000232
881.347900 0.000193
881.587100 -0.000657
881.826200 -0.000577
882.065400 -0.000721
882.304600 0.000097
882.543800 -0.000568
882.783100 -0.000886
883.022300 0.000326
883.261500 -0.000240
883.500700 -0.000532
883.740000 0.000115
883.979200 -0.000398
884.218500 -0.000141
884.457800 0.000122
884.697100 -0.000007
884.936300 -0.001090
885.175600 -0.000743
885.414900 -0.000138
885.654200 -0.000058
885.893600 -0.000078
886.132900 -0.001836
886.372200 -0.000225
886.611600 0.001278
886.850900 -0.001077
887.090300 -0.000697
887.329600 0.000168
887.569000 -0.000669
887.808400 0.000031
888.047800 0.001050
888.287200 -0.000113
888.526600 0.000794
888.766000 0.000322
889.005400 -0.000686
889.244800 0.000635
889.484300 0.001085
889.723700 -0.001548
889.963200 -0.000310
890.202600 -0.000283
890.442100 -0.000688
890.681600 -0.000022
890.921100 -0.000177
891.160600 -0.000539
891.400100 0.000533
891.639600 -0.001021
891.879100 0.000196
892.118600 0.000011
892.358100 0.000118
892.597700 -0.001182
892.837200 -0.001651
893.076800 -0.000276
893.316300 -0.000324
893.555900 -0.000493
893.795500 -0.000937
894.035100 0.000163
894.274700 -0.000368
894.514300 0.000003
894.753900 0.000393
894.993500 -0.001046
895.233100 0.000983
895.472700 -0.000758
895.712400 -0.000514
895.952000 0.000221
896.191700 -0.000177
896.431400 0.000311
896.671000 -0.000483
896.910700 -0.000715
897.150400 0.000304
897.390100 0.000073
897.629800 -0.000588
897.869500 0.001317
898.109200 -0.000923
898.348900 -0.000580
898.588700 -0.000919
898.828400 -0.000654
899.068200 -0.000131
899.307900 -0.001253
899.547700 -0.000226
899.787500 -0.000591
900.027200 0.000269
900.267000 -0.001419
900.506800 -0.000863
900.746600 -0.000145
900.986400 0.000196
901.226300 -0.000416
901.466100 -0.000329
901.705900 -0.001070
901.945800 -0.000332
902.185600 -0.000800
902.425500 -0.000989
902.665400 0.000452
902.905200 -0.000631
903.145100 0.000434
903.385000 0.000808
903.624900 -0.000547
903.864800 -0.000280
904.104700 -0.000310
904.344600 -0.000082
904.584600 0.001310
904.824500 0.000291
905.064400 -0.001326
905.304400 -0.000687
905.544400 -0.000219
905.784300 -0.002149
906.024300 -0.001260
906.264300 0.000354
906.504300 -0.000113
906.744300 -0.000356
906.984300 0.000815
907.224300 -0.000395
907.464300 -0.001123
907.704300 -0.000342
907.944400 0.000716
908.184400 0.000297
908.424500 -0.000030
908.664500 0.000492
908.904600 0.000160
909.144700 -0.000926
909.384700 0.000066
909.624800 0.000086
909.864900 -0.000532
910.105000 -0.000276
910.345200 0.000776
910.585300 0.000587
910.825400 -0.000449
911.065500 0.000196
911.305700 -0.000311
911.545800 -0.000887
911.786000 -0.000574
912.026200 0.000203
912.266300 -0.001454
912.506500 -0.000809
912.746700 0.000643
912.986900 -0.000159
913.227100 0.000610
913.467300 -0.000684
913.707500 0.000249
913.947800 -0.002125
914.188000 -0.000859
914.428300 0.000301
914.668500 -0.000395
914.908800 0.000206
915.149000 0.000888
915.389300 -0.001070
915.629600 -0.000863
915.869900 -0.000617
916.110200 0.000237
916.350500 0.000304
916.590800 0.000262
916.831100 -0.000216
917.071400 0.000146
917.311800 0.000126
917.552100 -0.000635
917.792500 0.000069
918.032800 -0.000655
918.273200 -0.000346
918.513600 -0.000515
918.753900 -0.000725
918.994300 -0.001010
919.234700 -0.000852
919.475100 0.000421
919.715500 0.000163
919.956000 -0.000968
920.196400 0.000125
920.436800 0.000941
920.677300 0.000178
920.917700 -0.001331
921.158200 -0.001218
921.398600 -0.000040
921.639100 -0.001098
921.879600 0.001067
922.120100 -0.000321
922.360600 -0.000691
922.601100 -0.000463
922.841600 0.000012
923.082100 -0.000669
923.322600 -0.000251
923.563100 0.000431
923.803700 -0.000382
924.044200 -0.000913
924.284800 -0.000096
924.525400 0.000027
924.765900 -0.001303
925.006500 0.000434
925.247100 -0.000421
925.487700 0.000122
925.728300 -0.001496
925.968900 0.000164
926.209500 -0.000244
926.450100 0.000754
926.690800 -0.002617
926.931400 0.000572
927.172000 -0.000568
927.412700 -0.000297
927.653300 -0.000322
927.894000 -0.000902
928.134700 -0.001039
928.375400 0.000339
928.616100 -0.000856
928.856800 -0.000677
929.097500 -0.000150
929.338200 -0.000551
929.578900 -0.001124
929.819600 -0.000926
930.060400 0.000466
930.301100 -0.000399
930.541900 -0.000244
930.782600 -0.000821
931.023400 -0.000258
931.264200 -0.000916
931.504900 -0.001295
931.745700 -0.000248
931.986500 -0.000279
932.227300 -0.000873
932.468100 -0.001074
932.708900 -0.000258
932.949800 -0.000121
933.190600 -0.000411
933.431400 0.000417
933.672300 -0.000173
933.913100 0.000645
934.154000 -0.000314
934.394900 -0.000332
934.635800 -0.000090
934.876600 -0.000237
935.117500 -0.001050
935.358400 -0.000300
935.599300 -0.000431
935.840300 0.000383
936.081200 -0.000706
936.322100 0.000695
936.563000 -0.002249
936.804000 -0.000311
937.044900 0.000106
937.285900 0.000294
937.526900 0.000192
937.767800 -0.001113
938.008800 0.000607
938.249800 -0.001441
938.490800 -0.000480
938.731800 -0.000787
938.972800 -0.001451
939.213800 0.000480
939.454900 -0.000729
939.695900 0.000287
939.936900 -0.000734
940.178000 -0.000723
940.419000 -0.000186
940.660100 -0.001324
940.901200 -0.000701
941.142200 0.000978
941.383300 -0.001018
941.624400 -0.000543
941.865500 -0.000828
942.106600 -0.000727
942.347700 0.000392
942.588900 -0.000892
942.830000 -0.000502
943.071100 -0.000259
943.312300 -0.001070
943.553400 -0.000291
943.794600 -0.000340
944.035700 -0.000357
944.276900 -0.000287
944.518100 0.000757
944.759300 -0.001137
945.000500 0.000092
945.241700 -0.000676
945.482900 -0.001497
945.724100 -0.001778
945.965300 0.000184
946.206600 -0.000505
946.447800 -0.000189
946.689100 -0.000329
946.930300 -0.000220
947.171600 -0.000062
947.412800 -0.000572
947.654100 0.000170
947.895400 -0.001193
948.136700 -0.000354
948.378000 0.000858
948.619300 -0.000948
948.860600 -0.000360
949.101900 0.000213
949.343300 -0.000478
949.584600 -0.000438
949.825900 -0.000185
950.067300 -0.001232
950.308600 -0.000097
950.550000 0.000104
950.791400 0.001067
951.032700 0.000285
951.274100 0.000503
951.515500 -0.000979
951.756900 -0.000948
951.998300 -0.000565
952.239800 -0.000638
952.481200 0.000410
952.722600 0.000571
952.964000 -0.000589
953.205500 -0.000217
953.446900 0.001145
953.688400 -0.000132
953.929900 -0.001781
954.171300 0.001106
954.412800 0.000656
954.654300 -0.000160
954.895800 0.001120
955.137300 -0.000259
955.378800 0.000012
955.620300 0.001165
955.861800 -0.000890
956.103400 -0.000642
956.344900 -0.000315
956.586500 -0.000709
956.828000 -0.000312
957.069600 -0.000333
957.311100 0.000413
957.552700 -0.001936
957.794300 -0.000080
958.035900 0.000318
958.277500 0.000628
958.519100 0.000089
958.760700 0.000210
959.002300 0.000729
959.243900 -0.000051
959.485600 -0.000184
959.727200 0.000008
959.968800 -0.000374
960.210500 0.000673
960.452200 -0.000456
960.693800 0.000806
960.935500 0.001217
961.177200 -0.000034
961.418900 0.000363
961.660600 0.000526
961.902300 -0.001350
962.144000 0.000560
962.385700 -0.000706
962.627400 -0.000160
962.869200 0.000128
963.110900 -0.000505
963.352700 -0.000265
963.594400 -0.000357
963.836200 -0.000157
964.077900 0.000079
964.319700 -0.000649
964.561500 -0.001138
964.803300 -0.000761
965.045100 -0.000210
965.286900 -0.000052
965.528700 0.000199
965.770500 0.000029
966.012300 0.000338
966.254200 0.000293
966.496000 0.000465
966.737900 0.000103
966.979700 -0.000224
967.221600 0.000371
967.463400 0.000153
967.705300 -0.001148
967.947200 -0.000389
968.189100 0.000841
968.431000 -0.000674
968.672900 -0.001227
968.914800 -0.000716
969.156700 0.000377
969.398700 0.000208
969.640600 0.000743
969.882500 -0.000509
970.124500 -0.000161
970.366400 -0.000476
970.608400 -0.000987
970.850400 0.000005
971.092300 -0.000435
971.334300 0.000025
971.576300 0.000691
971.818300 -0.000793
972.060300 0.000579
972.302300 -0.000684
972.544300 0.000082
972.786400 -0.000662
973.028400 -0.001472
973.270400 -0.000157
973.512500 -0.000649
973.754500 -0.000093
973.996600 -0.001314
974.238700 -0.000866
974.480700 -0.000098
974.722800 -0.000439
974.964900 -0.000389
975.207000 -0.001236
975.449100 0.000314
975.691200 -0.000448
975.933300 -0.000506
976.175500 0.001379
976.417600 -0.000488
976.659700 -0.000509
976.901900 -0.000512
977.144000 -0.000090
977.386200 -0.000319
977.628300 -0.001630
977.870500 -0.000452
978.112700 0.000131
978.354900 0.000596
978.597100 -0.000498
978.839300 -0.000832
979.081500 -0.000533
979.323700 0.000525
979.565900 0.000296
979.808200 -0.002147
980.050400 -0.000259
980.292600 -0.000558
980.534900 -0.000955
980.777100 -0.001199
981.019400 -0.000013
981.261700 -0.001577
981.504000 -0.001680
981.746200 -0.000073
981.988500 -0.001413
982.230800 -0.000304
982.473100 -0.000738
982.715500 -0.001042
982.957800 -0.000858
983.200100 -0.000523
983.442400 -0.000045
983.684800 0.000352
983.927100 0.000050
984.169500 0.000353
984.411800 -0.000337
984.654200 -0.000452
984.896600 -0.000080
985.139000 0.000691
985.381400 -0.000340
985.623800 -0.001120
985.866200 -0.000729
986.108600 0.001071
986.351000 -0.000029
986.593400 -0.000502
986.835800 -0.001082
987.078300 -0.000744
987.320700 -0.000002
987.563200 -0.000729
987.805600 0.000132
988.048100 -0.001457
988.290600 0.000308
988.533100 0.000814
988.775600 -0.000494
989.018000 -0.001489
989.260500 -0.000006
989.503100 0.000356
989.745600 -0.000121
989.988100 0.000472
990.230600 -0.000811
990.473200 -0.001385
990.715700 -0.001637
990.958200 -0.000048
991.200800 0.000152
991.443400 0.000254
991.685900 0.000469
991.928500 0.001043
992.171100 0.000184
992.413700 -0.001338
992.656300 -0.000208
992.898900 -0.000773
993.141500 -0.000356
993.384100 -0.001222
993.626700 -0.000378
993.869400 -0.000487
994.112000 0.000279
994.354700 -0.000797
994.597300 -0.000800
994.840000 0.000504
995.082600 0.000413
995.325300 -0.000808
995.568000 -0.000404
995.810700 -0.000362
996.053400 0.000367
996.296100 -0.000667
996.538800 -0.000129
996.781500 -0.001584
997.024200 0.000680
997.267000 -0.000467
997.509700 -0.000203
997.752400 -0.000252
997.995200 -0.000473
998.237900 -0.000752
998.480700 -0.000400
998.723500 0.000877
998.966200 0.000114
999.209000 -0.000449
999.451800 -0.000561
999.694600 -0.001035
999.937400 -0.000238
1000.180200 0.000437
1000.423000 -0.000696
1000.665900 -0.000354
1000.908700 0.000325
1001.151500 0.000420
1001.394400 -0.000453
1001.637200 -0.000300
1001.880100 0.000393
1002.123000 -0.000441
1002.365800 -0.000527
1002.608700 0.000234
1002.851600 -0.000751
1003.094500 -0.000343
1003.337400 0.000184
1003.580300 0.000377
1003.823200 0.000258
1004.066100 -0.000899
1004.309100 -0.000498
1004.552000 -0.000305
1004.794900 -0.000151
1005.037900 -0.000716
1005.280800 -0.000818
1005.523800 -0.000277
1005.766700 -0.000470
1006.009700 -0.000351
1006.252700 0.000050
1006.495700 0.000227
1006.738700 0.000669
1006.981700 -0.000576
1007.224700 -0.000347
1007.467700 0.001183
1007.710700 -0.000030
1007.953800 -0.000136
1008.196800 0.000458
1008.439800 -0.001113
1008.682900 -0.000509
1008.925900 -0.001058
1009.169000 -0.000185
1009.412100 0.001421
1009.655100 0.000458
1009.898200 0.000002
1010.141300 -0.000541
1010.384400 -0.000196
1010.627500 -0.000273
1010.870600 -0.000924
1011.113700 -0.000920
1011.356800 -0.000157
1011.600000 0.000148
1011.843100 -0.000234
1012.086300 0.000831
1012.329400 -0.000592
1012.572600 -0.000460
1012.815700 -0.000238
1013.058900 0.001347
1013.302100 -0.000505
1013.545200 -0.000642
1013.788400 -0.001046
1014.031600 0.000930
1014.274800 -0.000671
1014.518000 -0.001321
1014.761300 -0.001296
1015.004500 0.000775
1015.247700 0.000110
1015.490900 0.000444
1015.734200 -0.000783
1015.977400 0.000370
1016.220700 0.001316
1016.464000 0.000248
1016.707200 0.001341
1016.950500 0.000342
1017.193800 -0.000361
1017.437100 0.000041
1017.680400 0.000036
1017.923700 -0.001335
1018.167000 -0.000582
1018.410300 -0.000527
1018.653600 -0.000717
1018.896900 -0.000034
1019.140300 0.000100
1019.383600 -0.000476
1019.627000 -0.000459
1019.870300 -0.000125
1020.113700 -0.000719
1020.357100 -0.000280
1020.600400 -0.000027
1020.843800 -0.000882
1021.087200 -0.001074
1021.330600 0.000867
1021.574000 -0.000230
1021.817400 -0.000287
1022.060800 0.000096
1022.304200 0.000384
1022.547700 -0.001004
1022.791100 -0.000266
1023.034500 -0.001039
