# Wavelength (nm)	Intensity (a.u.)
197.7802	0.000725
197.9842	-0.000584
198.1882	0.001274
198.3922	0.000028
198.5963	0.000155
198.8003	0.000007
199.0044	0.001464
199.2085	0.001189
199.4126	0.000070
199.6168	0.001506
199.8209	0.000683
200.0251	-0.001471
200.2292	0.001970
200.4334	-0.000035
200.6376	0.000028
200.8418	-0.000162
201.0461	0.000851
201.2503	-0.001323
201.4546	0.000113
201.6589	0.002055
201.8631	0.000535
202.0674	0.000598
202.2718	0.000070
202.4761	0.000450
202.6805	0.000577
202.8848	-0.000162
203.0892	0.000978
203.2936	-0.000626
203.4980	0.001274
203.7024	-0.000267
203.9069	0.001063
204.1113	0.000345
204.3158	0.000556
204.5203	0.000028
204.7248	0.001633
204.9293	-0.000732
205.1338	0.000218
205.3384	0.001168
205.5430	0.000450
205.7475	0.001105
205.9521	0.000809
206.1567	-0.000373
206.3614	-0.000035
206.5660	-0.001661
206.7706	0.002245
206.9753	0.001548
207.1800	0.000429
207.3847	-0.000077
207.5894	0.000345
207.7941	-0.000436
207.9989	0.000239
208.2036	-0.000099
208.4084	0.000134
208.6132	-0.000310
208.8180	0.000830
209.0228	-0.000310
209.2276	0.000450
209.4325	0.000598
209.6373	-0.000479
209.8422	0.000556
210.0471	0.000725
210.2520	-0.000795
210.4569	0.000028
210.6618	0.000556
210.8668	-0.000141
211.0718	-0.001027
211.2767	-0.000289
211.4817	0.000830
211.6867	0.000091
211.8918	-0.000225
212.0968	0.001400
212.3018	0.000661
212.5069	0.000450
212.7120	0.000387
212.9171	0.001358
213.1222	-0.000289
213.3273	0.001928
213.5325	-0.001027
213.7376	-0.000225
213.9428	-0.000415
214.1480	0.000999
214.3532	0.001041
214.5584	0.000408
214.7636	-0.000267
214.9689	-0.000415
215.1741	-0.000162
215.3794	0.000556
215.5847	0.000873
215.7900	0.000345
215.9953	0.000598
216.2007	0.000471
216.4060	-0.000183
216.6114	0.000028
216.8168	0.000218
217.0222	0.000239
217.2276	0.000598
217.4330	0.000704
217.6384	0.000070
217.8439	0.000936
218.0494	0.000661
218.2548	0.001168
218.4603	0.001358
218.6659	0.001780
218.8714	-0.000204
219.0769	0.000788
219.2825	0.000281
219.4881	0.000915
219.6936	-0.000373
219.8992	-0.000732
220.1049	0.000408
220.3105	0.001844
220.5161	0.000091
220.7218	0.001084
220.9275	0.001823
221.1332	0.000936
221.3389	-0.000943
221.5446	0.000809
221.7503	-0.001365
221.9561	0.000408
222.1618	0.000556
222.3676	0.000007
222.5734	0.000851
222.7792	0.001569
222.9850	-0.000415
223.1909	-0.000457
223.3967	-0.000922
223.6026	0.000683
223.8085	-0.000964
224.0144	0.000873
224.2203	-0.000457
224.4262	0.000577
224.6322	-0.000880
224.8381	0.001421
225.0441	0.000091
225.2501	0.000450
225.4561	0.000218
225.6621	0.001253
225.8681	-0.000120
226.0742	-0.001133
226.2802	0.000598
226.4863	-0.000690
226.6924	0.001590
226.8985	0.000851
227.1046	0.000134
227.3107	-0.000035
227.5169	0.000661
227.7230	-0.000056
227.9292	-0.001091
228.1354	0.000830
228.3416	-0.000162
228.5478	0.000113
228.7541	0.001611
228.9603	0.000303
229.1666	0.000556
229.3729	0.000514
229.5791	-0.001112
229.7855	0.000155
229.9918	-0.000521
230.1981	0.001253
230.4045	0.000767
230.6108	0.000999
230.8172	-0.000331
231.0236	0.001443
231.2300	0.000809
231.4364	0.002160
231.6429	-0.000669
231.8493	-0.000183
232.0558	-0.000162
232.2623	0.000366
232.4688	-0.000056
232.6753	0.003279
232.8818	0.001020
233.0884	0.000387
233.2949	0.000661
233.5015	0.001464
233.7081	0.000619
233.9147	0.000429
234.1213	0.000239
234.3279	-0.000310
234.5346	-0.000880
234.7413	0.000746
234.9479	-0.000436
235.1546	0.001105
235.3613	0.000028
235.5680	0.000577
235.7748	0.000999
235.9815	-0.000584
236.1883	-0.000183
236.3951	0.001168
236.6018	0.000239
236.8087	0.001084
237.0155	-0.000014
237.2223	-0.000120
237.4292	0.000239
237.6360	0.001506
237.8429	0.001506
238.0498	0.000049
238.2567	0.000471
238.4636	0.000661
238.6706	0.001337
238.8775	0.000936
239.0845	0.000281
239.2915	0.001063
239.4985	-0.000162
239.7055	0.000894
239.9125	0.000661
240.1195	0.000197
240.3266	-0.000901
240.5337	0.000028
240.7407	-0.000837
240.9478	0.000049
241.1549	0.001084
241.3621	0.000999
241.5692	0.000429
241.7764	0.001126
241.9835	0.001464
242.1907	-0.000035
242.3979	0.000091
242.6051	0.000218
242.8124	-0.000289
243.0196	0.001168
243.2269	-0.000204
243.4341	0.000556
243.6414	0.000155
243.8487	0.000493
244.0560	0.000113
244.2634	-0.000035
244.4707	-0.001006
244.6781	0.000535
244.8854	0.000535
245.0928	0.000387
245.3002	-0.000837
245.5076	0.000619
245.7151	0.000725
245.9225	0.000746
246.1300	-0.000183
246.3375	0.001696
246.5449	0.000007
246.7524	0.000070
246.9600	0.000619
247.1675	0.000493
247.3750	-0.000246
247.5826	0.002203
247.7902	-0.000774
247.9978	-0.000394
248.2054	0.001063
248.4130	0.001316
248.6206	0.000788
248.8283	0.001189
249.0359	-0.000183
249.2436	0.000197
249.4513	0.000514
249.6590	0.000830
249.8667	-0.000099
250.0745	0.000788
250.2822	0.000788
250.4900	0.001041
250.6978	0.000366
250.9056	0.000556
251.1134	-0.000267
251.3212	-0.000120
251.5290	0.001295
251.7369	0.000725
251.9447	0.000746
252.1526	0.001823
252.3605	0.000260
252.5684	0.001928
252.7763	-0.001175
252.9843	0.000070
253.1922	0.000493
253.4002	0.002013
253.6082	-0.000647
253.8162	0.000345
254.0242	-0.001534
254.2322	0.002181
254.4402	0.001633
254.6483	0.000978
254.8564	-0.000183
255.0644	-0.000647
255.2725	-0.000204
255.4806	0.001717
255.6888	-0.000521
255.8969	0.000493
256.1051	0.001295
256.3132	0.000091
256.5214	0.000851
256.7296	0.000535
256.9378	0.001020
257.1460	0.000260
257.3543	-0.000141
257.5625	0.000408
257.7708	-0.000457
257.9791	0.000197
258.1874	0.000556
258.3957	0.000218
258.6040	0.000345
258.8124	0.001865
259.0207	-0.000943
259.2291	0.002203
259.4375	0.000851
259.6459	-0.001091
259.8543	0.000366
260.0627	0.000113
260.2711	0.001844
260.4796	0.001041
260.6881	-0.000711
260.8965	0.000704
261.1050	-0.001112
261.3135	0.001611
261.5221	0.001527
261.7306	0.001063
261.9392	-0.000943
262.1477	0.002034
262.3563	-0.001513
262.5649	0.001084
262.7735	0.000999
262.9822	0.000155
263.1908	0.000007
263.3995	0.000408
263.6081	0.000577
263.8168	0.000450
264.0255	0.001210
264.2342	0.000788
264.4429	-0.000352
264.6517	0.000091
264.8604	-0.000162
265.0692	0.000324
265.2780	0.001020
265.4868	0.000809
265.6956	0.000514
265.9044	-0.000162
266.1133	-0.000732
266.3221	0.000197
266.5310	0.000640
266.7399	-0.000014
266.9488	0.001506
267.1577	0.000450
267.3666	0.000471
267.5755	0.001464
267.7845	0.000239
267.9935	0.000007
268.2024	-0.000584
268.4114	-0.000225
268.6205	0.000809
268.8295	0.000683
269.0385	-0.000246
269.2476	0.000915
269.4566	-0.000014
269.6657	0.001295
269.8748	0.000197
270.0839	0.000260
270.2931	-0.000289
270.5022	0.000704
270.7114	-0.001323
270.9205	0.000788
271.1297	-0.000289
271.3389	-0.000563
271.5481	0.000577
271.7573	0.000577
271.9666	0.000028
272.1758	0.000155
272.3851	0.001738
272.5944	-0.000521
272.8037	-0.000310
273.0130	0.001548
273.2223	0.000471
273.4316	0.000936
273.6410	-0.000373
273.8504	0.000577
274.0597	0.000683
274.2691	-0.000373
274.4785	-0.001386
274.6880	-0.000141
274.8974	0.001063
275.1069	-0.000014
275.3163	-0.000816
275.5258	0.000619
275.7353	-0.000035
275.9448	0.000809
276.1543	0.000556
276.3639	0.000176
276.5734	0.000619
276.7830	0.000281
276.9926	0.000704
277.2022	0.001358
277.4118	0.000619
277.6214	-0.000056
277.8310	0.001506
278.0407	0.000683
278.2503	0.000408
278.4600	0.001210
278.6697	0.000577
278.8794	0.000049
279.0891	0.001126
279.2989	0.000661
279.5086	-0.000859
279.7184	0.001548
279.9281	0.000197
280.1379	0.000493
280.3477	-0.000373
280.5576	-0.000014
280.7674	0.000661
280.9772	-0.000352
281.1871	0.000155
281.3970	0.001780
281.6069	0.000725
281.8168	0.001084
282.0267	0.000704
282.2366	0.000598
282.4466	0.000408
282.6565	0.001569
282.8665	-0.002041
283.0765	0.001485
283.2865	-0.000859
283.4965	-0.000837
283.7065	-0.000563
283.9166	0.000176
284.1266	-0.000267
284.3367	0.000661
284.5468	-0.000943
284.7569	0.000704
284.9670	-0.000647
285.1771	0.000725
285.3873	0.000809
285.5974	0.000113
285.8076	-0.000415
286.0178	0.000894
286.2280	0.000556
286.4382	0.000176
286.6484	-0.000563
286.8587	0.000725
287.0689	0.001084
287.2792	0.000471
287.4895	0.000450
287.6998	0.000471
287.9101	0.000366
288.1204	0.001168
288.3308	-0.000479
288.5411	-0.000204
288.7515	-0.000521
288.9619	0.001443
289.1723	0.000260
289.3827	0.000113
289.5931	-0.000373
289.8035	0.001084
290.0140	0.000218
290.2245	0.000197
290.4349	-0.000099
290.6454	0.000535
290.8559	0.000429
291.0665	0.000535
291.2770	0.000281
291.4875	0.000303
291.6981	0.001823
291.9087	0.000514
292.1193	0.000408
292.3299	0.000260
292.5405	0.000894
292.7511	0.001231
292.9618	-0.000225
293.1724	-0.000246
293.3831	0.001316
293.5938	0.000683
293.8045	0.001295
294.0152	0.000155
294.2260	-0.001049
294.4367	0.000577
294.6475	0.000408
294.8582	0.001189
295.0690	0.000725
295.2798	0.000598
295.4906	0.001738
295.7015	-0.000141
295.9123	0.001464
296.1232	0.000999
296.3340	0.000408
296.5449	0.000134
296.7558	0.000028
296.9667	-0.000077
297.1777	0.001590
297.3886	0.001126
297.5995	0.000239
297.8105	0.000471
298.0215	0.000471
298.2325	0.000640
298.4435	-0.000753
298.6545	0.001168
298.8656	-0.000711
299.0766	0.000936
299.2877	0.000324
299.4988	-0.000225
299.7099	0.001020
299.9210	0.001084
300.1321	-0.000267
300.3432	0.000936
300.5544	0.000704
300.7655	0.001041
300.9767	-0.000225
301.1879	0.000514
301.3991	-0.000120
301.6103	-0.000225
301.8215	0.000260
302.0328	0.002561
302.2441	-0.000795
302.4553	0.000387
302.6666	0.001654
302.8779	0.000830
303.0892	0.000387
303.3006	0.000239
303.5119	0.000471
303.7233	0.000577
303.9346	0.001823
304.1460	0.000661
304.3574	-0.000056
304.5688	0.001823
304.7803	0.000661
304.9917	-0.000014
305.2031	-0.000352
305.4146	0.000070
305.6261	-0.000267
305.8376	0.000091
306.0491	0.000028
306.2606	0.000155
306.4722	-0.000310
306.6837	0.000704
306.8953	-0.000141
307.1069	0.000767
307.3184	0.000429
307.5301	0.000661
307.7417	0.000260
307.9533	0.001105
308.1650	0.000725
308.3766	0.000640
308.5883	-0.000014
308.8000	0.001801
309.0117	-0.000035
309.2234	0.001823
309.4351	-0.000837
309.6469	0.001738
309.8586	0.000197
310.0704	0.001949
310.2822	0.001168
310.4940	0.001421
310.7058	0.000999
310.9176	0.000873
311.1295	0.000260
311.3413	0.000281
311.5532	0.000767
311.7651	0.001675
311.9770	0.000683
312.1889	0.000999
312.4008	-0.000289
312.6127	0.000556
312.8247	-0.000753
313.0366	0.001738
313.2486	0.000324
313.4606	0.001274
313.6726	-0.000816
313.8846	0.000830
314.0967	0.001464
314.3087	0.000070
314.5208	-0.000457
314.7328	0.000070
314.9449	0.000978
315.1570	-0.000246
315.3692	-0.000901
315.5813	0.000704
315.7934	-0.000964
316.0056	-0.000035
316.2177	0.000915
316.4299	0.001231
316.6421	-0.000626
316.8543	-0.000331
317.0666	0.000619
317.2788	0.000830
317.4911	-0.000014
317.7033	0.001041
317.9156	0.000577
318.1279	-0.000373
318.3402	0.000978
318.5525	-0.000985
318.7649	0.000218
318.9772	0.000598
319.1896	-0.000415
319.4019	0.002329
319.6143	0.001886
319.8267	0.000514
320.0392	0.000514
320.2516	0.000767
320.4640	-0.000056
320.6765	-0.000331
320.8890	0.000155
321.1014	0.000028
321.3139	0.000725
321.5265	0.000767
321.7390	0.000049
321.9515	0.000915
322.1641	0.000746
322.3766	-0.000014
322.5892	0.000598
322.8018	0.000218
323.0144	0.000345
323.2270	0.000577
323.4397	0.000873
323.6523	0.000851
323.8650	0.000028
324.0777	0.001020
324.2904	0.002266
324.5031	0.001506
324.7158	0.000345
324.9285	0.000535
325.1412	-0.000056
325.3540	0.000767
325.5668	0.000577
325.7796	0.000471
325.9924	-0.001386
326.2052	0.001527
326.4180	0.000345
326.6308	-0.000521
326.8437	-0.000816
327.0566	0.000915
327.2694	0.001316
327.4823	0.001654
327.6952	-0.000605
327.9082	0.000619
328.1211	-0.000225
328.3340	0.001443
328.5470	-0.000647
328.7600	0.001400
328.9730	0.000661
329.1860	0.000007
329.3990	-0.000943
329.6120	0.001253
329.8251	0.000091
330.0381	-0.000964
330.2512	-0.000099
330.4643	0.001337
330.6774	-0.000204
330.8905	0.000851
331.1036	0.000830
331.3167	-0.000457
331.5299	0.000577
331.7431	0.000683
331.9562	-0.000310
332.1694	0.000324
332.3826	0.001231
332.5959	0.001126
332.8091	0.000134
333.0223	-0.000436
333.2356	-0.000246
333.4489	0.001717
333.6622	-0.000626
333.8755	0.001633
334.0888	0.000007
334.3021	-0.000183
334.5154	-0.000183
334.7288	0.000239
334.9422	-0.001070
335.1555	0.001168
335.3689	0.000514
335.5823	-0.000267
335.7958	0.000260
336.0092	0.001464
336.2227	0.000450
336.4361	0.000725
336.6496	0.000746
336.8631	0.000260
337.0766	-0.000204
337.2901	0.000619
337.5036	0.000936
337.7172	-0.000457
337.9307	0.000957
338.1443	0.001041
338.3579	-0.000605
338.5715	0.001506
338.7851	0.000324
338.9987	-0.000605
339.2124	-0.000521
339.4260	0.000303
339.6397	0.000366
339.8533	0.000197
340.0670	0.001443
340.2807	0.000197
340.4945	0.001189
340.7082	0.000345
340.9219	0.000514
341.1357	0.001443
341.3495	0.000429
341.5633	0.001569
341.7771	0.000260
341.9909	0.000788
342.2047	0.002160
342.4185	0.000281
342.6324	0.000514
342.8463	0.001421
343.0601	0.000049
343.2740	-0.000985
343.4879	-0.000521
343.7019	0.001611
343.9158	-0.000436
344.1297	0.001421
344.3437	0.000028
344.5577	0.000281
344.7717	-0.001175
344.9857	0.000746
345.1997	0.000535
345.4137	0.000007
345.6277	-0.000500
345.8418	0.001886
346.0559	0.000957
346.2699	0.000007
346.4840	0.001041
346.6981	0.001084
346.9123	0.000260
347.1264	0.001421
347.3406	-0.000901
347.5547	0.001337
347.7689	-0.000415
347.9831	0.000873
348.1973	0.001379
348.4115	0.001548
348.6257	0.000704
348.8400	0.000830
349.0542	0.000936
349.2685	0.000788
349.4828	0.000176
349.6971	0.000598
349.9114	0.000514
350.1257	0.001527
350.3400	0.001063
350.5544	0.002456
350.7687	0.000366
350.9831	0.000851
351.1975	0.000091
351.4119	0.000471
351.6263	0.000999
351.8407	-0.000056
352.0552	0.000049
352.2696	0.000091
352.4841	-0.000162
352.6986	0.001337
352.9131	-0.000035
353.1276	0.000915
353.3421	-0.000521
353.5566	0.001126
353.7712	0.000514
353.9858	0.000556
354.2003	0.000683
354.4149	0.000324
354.6295	0.000324
354.8441	0.001717
355.0588	-0.000267
355.2734	0.000683
355.4881	-0.000626
355.7027	0.000408
355.9174	-0.000225
356.1321	0.001569
356.3468	0.000324
356.5615	0.000725
356.7763	-0.000373
356.9910	0.000746
357.2058	0.000556
357.4206	0.000070
357.6353	0.000134
357.8501	0.001654
358.0650	0.000683
358.2798	0.002561
358.4946	0.000239
358.7095	-0.000711
358.9243	0.001400
359.1392	0.001759
359.3541	-0.000141
359.5690	0.000070
359.7839	-0.000436
359.9989	0.000978
360.2138	0.000471
360.4288	-0.000500
360.6438	0.000070
360.8587	0.002034
361.0737	0.000366
361.2888	-0.000331
361.5038	0.000788
361.7188	-0.000521
361.9339	0.000535
362.1489	0.002181
362.3640	0.000936
362.5791	0.000640
362.7942	0.000007
363.0093	-0.000141
363.2245	-0.000542
363.4396	0.002055
363.6548	0.000767
363.8699	0.001464
364.0851	-0.000246
364.3003	0.000746
364.5155	0.000155
364.7308	-0.000014
364.9460	0.001274
365.1612	0.000894
365.3765	0.002181
365.5918	0.000535
365.8071	-0.000352
366.0224	-0.000183
366.2377	-0.000669
366.4530	0.000915
366.6684	0.000155
366.8837	0.000767
367.0991	-0.000732
367.3145	0.001611
367.5299	-0.000415
367.7453	0.000429
367.9607	-0.001049
368.1761	0.001358
368.3916	0.000113
368.6070	0.000894
368.8225	0.000493
369.0380	-0.000267
369.2535	0.000239
369.4690	0.001421
369.6845	-0.000542
369.9001	0.000873
370.1156	0.001126
370.3312	0.000978
370.5468	0.000260
370.7624	0.000978
370.9780	-0.000077
371.1936	0.000007
371.4092	-0.000141
371.6249	0.000514
371.8405	-0.000246
372.0562	0.000978
372.2719	0.002203
372.4876	0.001316
372.7033	0.001041
372.9190	0.001379
373.1348	0.000683
373.3505	-0.000035
373.5663	-0.000225
373.7820	-0.000246
373.9978	-0.000267
374.2136	0.000619
374.4294	-0.000901
374.6453	-0.001027
374.8611	0.000619
375.0770	0.001421
375.2928	0.000873
375.5087	0.001759
375.7246	0.000239
375.9405	0.001020
376.1564	-0.001154
376.3724	-0.000162
376.5883	-0.000711
376.8043	0.000598
377.0203	-0.000035
377.2362	-0.000457
377.4522	-0.000099
377.6682	0.001633
377.8843	0.001105
378.1003	0.000957
378.3164	0.000577
378.5324	0.001590
378.7485	0.000619
378.9646	0.001189
379.1807	0.001464
379.3968	0.001168
379.6129	0.001464
379.8291	0.001717
380.0452	0.000070
380.2614	0.000725
380.4776	0.000809
380.6938	0.000408
380.9100	0.000007
381.1262	0.000830
381.3424	-0.000859
381.5587	0.000197
381.7749	0.000049
381.9912	0.000366
382.2075	-0.000120
382.4238	0.002350
382.6401	-0.000816
382.8564	0.001147
383.0728	0.000303
383.2891	0.001189
383.5055	0.000873
383.7219	0.000894
383.9382	0.001506
384.1546	-0.000267
384.3711	-0.000563
384.5875	0.000049
384.8039	-0.000373
385.0204	0.001844
385.2368	0.001527
385.4533	0.001147
385.6698	0.000070
385.8863	0.000767
386.1028	0.001590
386.3194	0.001231
386.5359	-0.000479
386.7525	0.001063
386.9690	0.002329
387.1856	0.000408
387.4022	0.000429
387.6188	0.000746
387.8355	0.001485
388.0521	0.000366
388.2687	-0.000141
388.4854	0.001274
388.7021	0.001316
388.9188	0.000725
389.1355	0.001400
389.3522	0.000514
389.5689	0.000366
389.7856	0.002350
390.0024	0.000345
390.2192	0.002203
390.4359	0.002604
390.6527	0.001168
390.8695	0.000345
391.0863	0.002308
391.3032	0.000915
391.5200	0.001611
391.7369	0.001844
391.9537	0.001865
392.1706	0.002625
392.3875	0.002519
392.6044	0.002540
392.8213	0.002034
393.0383	0.001738
393.2552	0.002308
393.4722	0.001844
393.6891	0.003321
393.9061	0.002604
394.1231	0.002646
394.3401	0.002730
394.5572	0.003343
394.7742	0.002013
394.9912	0.002224
395.2083	0.002519
395.4254	0.003786
395.6425	0.002371
395.8596	0.003490
396.0767	0.002709
396.2938	0.002540
396.5109	0.002709
396.7281	0.003870
396.9453	0.002815
397.1624	0.005496
397.3796	0.003554
397.5968	0.003638
397.8140	0.002794
398.0313	0.004905
398.2485	0.004715
398.4658	0.005053
398.6830	0.004377
398.9003	0.005285
399.1176	0.004419
399.3349	0.005665
399.5522	0.003976
399.7696	0.005221
399.9869	0.004778
400.2043	0.005623
400.4216	0.004103
400.6390	0.006256
400.8564	0.005686
401.0738	0.004968
401.2912	0.006256
401.5087	0.006594
401.7261	0.007333
401.9436	0.006150
402.1610	0.006615
402.3785	0.009000
402.5960	0.006235
402.8135	0.005897
403.0310	0.007058
403.2486	0.006910
403.4661	0.005939
403.6837	0.007037
403.9013	0.007839
404.1189	0.008494
404.3365	0.008536
404.5541	0.007079
404.7717	0.008114
404.9893	0.009127
405.2070	0.007607
405.4246	0.008789
405.6423	0.007839
405.8600	0.009106
406.0777	0.009444
406.2954	0.010035
406.5131	0.008810
406.7309	0.008810
406.9486	0.008768
407.1664	0.009507
407.3842	0.008261
407.6020	0.008789
407.8198	0.009444
408.0376	0.009444
408.2554	0.010837
408.4733	0.008916
408.6911	0.010922
408.9090	0.008219
409.1269	0.008430
409.3448	0.011154
409.5627	0.011006
409.7806	0.010162
409.9985	0.010964
410.2165	0.010183
410.4344	0.011660
410.6524	0.010605
410.8704	0.010647
411.0884	0.010542
411.3064	0.011829
411.5244	0.010309
411.7424	0.010415
411.9605	0.012547
412.1785	0.012167
412.3966	0.010879
412.6147	0.012906
412.8328	0.012800
413.0509	0.012209
413.2690	0.011238
413.4871	0.012906
413.7053	0.012167
413.9234	0.013117
414.1416	0.013096
414.3598	0.013539
414.5780	0.013286
414.7962	0.013687
415.0144	0.013012
415.2326	0.013265
415.4509	0.014067
415.6692	0.013307
415.8874	0.014320
416.1057	0.014975
416.3240	0.014046
416.5423	0.015144
416.7606	0.014067
416.9790	0.015186
417.1973	0.013518
417.4157	0.016643
417.6341	0.015862
417.8524	0.014764
418.0708	0.012906
418.2893	0.016643
418.5077	0.016284
418.7261	0.015439
418.9446	0.014257
419.1630	0.016284
419.3815	0.014679
419.6000	0.017002
419.8185	0.015482
420.0370	0.015355
420.2555	0.017550
420.4741	0.017170
420.6926	0.015798
420.9112	0.018120
421.1298	0.019640
421.3483	0.019197
421.5669	0.019472
421.7856	0.019788
422.0042	0.020738
422.2228	0.021097
422.4415	0.019767
422.6601	0.017909
422.8788	0.018986
423.0975	0.018944
423.3162	0.019282
423.5349	0.019725
423.7536	0.018099
423.9724	0.018733
424.1911	0.018458
424.4099	0.020168
424.6287	0.019070
424.8475	0.020210
425.0663	0.019472
425.2851	0.018690
425.5039	0.018015
425.7228	0.019619
425.9416	0.016643
426.1605	0.019704
426.3793	0.018775
426.5982	0.017297
426.8171	0.017550
427.0361	0.018353
427.2550	0.020084
427.4739	0.019028
427.6929	0.021287
427.9118	0.019387
428.1308	0.019493
428.3498	0.020590
428.5688	0.020274
428.7878	0.019155
429.0068	0.018986
429.2259	0.021266
429.4449	0.021139
429.6640	0.022702
429.8831	0.022512
430.1022	0.024623
430.3213	0.024348
430.5404	0.024475
430.7595	0.023187
430.9787	0.024116
431.1978	0.024496
431.4170	0.021224
431.6362	0.021435
431.8553	0.021055
432.0745	0.018838
432.2938	0.017424
432.5130	0.020675
432.7322	0.019746
432.9515	0.020696
433.1707	0.019619
433.3900	0.020210
433.6093	0.021688
433.8286	0.024834
434.0479	0.025340
434.2673	0.023947
434.4866	0.022385
434.7059	0.021372
434.9253	0.022596
435.1447	0.022533
435.3641	0.020949
435.5835	0.023356
435.8029	0.021097
436.0223	0.021498
436.2418	0.020590
436.4612	0.021857
436.6807	0.023272
436.9001	0.022849
437.1196	0.021372
437.3391	0.023567
437.5586	0.021604
437.7782	0.022870
437.9977	0.023293
438.2173	0.022638
438.4368	0.022913
438.6564	0.024876
438.8760	0.023588
439.0956	0.022448
439.3152	0.021329
439.5348	0.023926
439.7545	0.022110
439.9741	0.023778
440.1938	0.021773
440.4135	0.021899
440.6331	0.021963
440.8528	0.022343
441.0725	0.024665
441.2923	0.024855
441.5120	0.030027
441.7318	0.027536
441.9515	0.027430
442.1713	0.027684
442.3911	0.027473
442.6109	0.025488
442.8307	0.025024
443.0505	0.024116
443.2703	0.025256
443.4902	0.026628
443.7101	0.025298
443.9299	0.027810
444.1498	0.026797
444.3697	0.025826
444.5896	0.025277
444.8095	0.025720
445.0295	0.024728
445.2494	0.024939
445.4694	0.025446
445.6894	0.025573
445.9093	0.025277
446.1293	0.022343
446.3493	0.024454
446.5694	0.027177
446.7894	0.023863
447.0094	0.026417
447.2295	0.025340
447.4496	0.022533
447.6696	0.022680
447.8897	0.022870
448.1098	0.025108
448.3300	0.025193
448.5501	0.022955
448.7702	0.022237
448.9904	0.023926
449.2106	0.024728
449.4307	0.025298
449.6509	0.022089
449.8711	0.023546
450.0914	0.022913
450.3116	0.022997
450.5318	0.023145
450.7521	0.022659
450.9724	0.023968
451.1926	0.022617
451.4129	0.021794
451.6332	0.019894
451.8535	0.020422
452.0739	0.020316
452.2942	0.019535
452.5146	0.022385
452.7349	0.021730
452.9553	0.021350
453.1757	0.019429
453.3961	0.019640
453.6165	0.018395
453.8369	0.019788
454.0574	0.019282
454.2778	0.018606
454.4983	0.018733
454.7188	0.019197
454.9393	0.017044
455.1597	0.018796
455.3803	0.019936
455.6008	0.021245
455.8213	0.018437
456.0419	0.017508
456.2624	0.017656
456.4830	0.019155
456.7036	0.017656
456.9242	0.018036
457.1448	0.016220
457.3654	0.016432
457.5860	0.018606
457.8067	0.016558
458.0274	0.017339
458.2480	0.018142
458.4687	0.018332
458.6894	0.018184
458.9101	0.017888
459.1308	0.018923
459.3516	0.017065
459.5723	0.018733
459.7931	0.017952
460.0138	0.019282
460.2346	0.017593
460.4554	0.014912
460.6762	0.016305
460.8970	0.017487
461.1178	0.015862
461.3387	0.016790
461.5595	0.016220
461.7804	0.016410
462.0013	0.016242
462.2222	0.013772
462.4431	0.014025
462.6640	0.013497
462.8849	0.014954
463.1059	0.013856
463.3268	0.013223
463.5478	0.014447
463.7687	0.015334
463.9897	0.015967
464.2107	0.017339
464.4317	0.015714
464.6528	0.015038
464.8738	0.016115
465.0948	0.015862
465.3159	0.015207
465.5370	0.013856
465.7581	0.014215
465.9792	0.015904
466.2003	0.013898
466.4214	0.013117
466.6425	0.014447
466.8637	0.014215
467.0848	0.011513
467.3060	0.013117
467.5272	0.012252
467.7484	0.011492
467.9696	0.013793
468.1908	0.012357
468.4120	0.011238
468.6333	0.011112
468.8545	0.011365
469.0758	0.012758
469.2970	0.010710
469.5183	0.011407
469.7396	0.009718
469.9610	0.010098
470.1823	0.008620
470.4036	0.009570
470.6250	0.007881
470.8463	0.010689
471.0677	0.008536
471.2891	0.008177
471.5105	0.007501
471.7319	0.009739
471.9533	0.009043
472.1748	0.010922
472.3962	0.009233
472.6177	0.009824
472.8391	0.008663
473.0606	0.008937
473.2821	0.008177
473.5036	0.008663
473.7251	0.008979
473.9467	0.008473
474.1682	0.007755
474.3898	0.010035
474.6113	0.008958
474.8329	0.009950
475.0545	0.007839
475.2761	0.007565
475.4977	0.009781
475.7193	0.008177
475.9410	0.009275
476.1626	0.007586
476.3843	0.008388
476.6060	0.008747
476.8277	0.008325
477.0494	0.008050
477.2711	0.007290
477.4928	0.007143
477.7145	0.006784
477.9363	0.009507
478.1580	0.007987
478.3798	0.008663
478.6016	0.007501
478.8234	0.008641
479.0452	0.007713
479.2670	0.007164
479.4888	0.006488
479.7107	0.006889
479.9325	0.007100
480.1544	0.007438
480.3763	0.007881
480.5982	0.006910
480.8201	0.006910
481.0420	0.007691
481.2639	0.007860
481.4859	0.007417
481.7078	0.007248
481.9298	0.008388
482.1517	0.007523
482.3737	0.007586
482.5957	0.007227
482.8177	0.007121
483.0398	0.005960
483.2618	0.006425
483.4838	0.003955
483.7059	0.006784
483.9280	0.006488
484.1501	0.008515
484.3721	0.006024
484.5943	0.006657
484.8164	0.007164
485.0385	0.008008
485.2606	0.008071
485.4828	0.007290
485.7050	0.014658
485.9271	0.020126
486.1493	0.019936
486.3715	0.017255
486.5937	0.015397
486.8160	0.011914
487.0382	0.011576
487.2605	0.011555
487.4827	0.008177
487.7050	0.008198
487.9273	0.006425
488.1496	0.006361
488.3719	0.005623
488.5942	0.005813
488.8165	0.003913
489.0389	0.005496
489.2612	0.005411
489.4836	0.004293
489.7060	0.005665
489.9284	0.005200
490.1508	0.005179
490.3732	0.005454
490.5956	0.004440
490.8180	0.004081
491.0405	0.004525
491.2630	0.003638
491.4854	0.005285
491.7079	0.004884
491.9304	0.003744
492.1529	0.005749
492.3755	0.004018
492.5980	0.004567
492.8205	0.004145
493.0431	0.004736
493.2657	0.004926
493.4882	0.005580
493.7108	0.001949
493.9334	0.003364
494.1561	0.003680
494.3787	0.003828
494.6013	0.004208
494.8240	0.003533
495.0466	0.003744
495.2693	0.006003
495.4920	0.003744
495.7147	0.003596
495.9374	0.002857
496.1601	0.002519
496.3829	0.005200
496.6056	0.003110
496.8284	0.004229
497.0511	0.004166
497.2739	0.003300
497.4967	0.004314
497.7195	0.002308
497.9423	0.003891
498.1652	0.003131
498.3880	0.003891
498.6109	0.004440
498.8337	0.004651
499.0566	0.002709
499.2795	0.003279
499.5024	0.003913
499.7253	0.005390
499.9482	0.004567
500.1712	0.004293
500.3941	0.004504
500.6171	0.002963
500.8400	0.003659
501.0630	0.003533
501.2860	0.001970
501.5090	0.004398
501.7320	0.002941
501.9551	0.003849
502.1781	0.002414
502.4012	0.003026
502.6242	0.004419
502.8473	0.003807
503.0704	0.004841
503.2935	0.005095
503.5166	0.004145
503.7397	0.003575
503.9628	0.004145
504.1860	0.002836
504.4092	0.003765
504.6323	0.004947
504.8555	0.002730
505.0787	0.004419
505.3019	0.003554
505.5251	0.002984
505.7483	0.002435
505.9716	0.003195
506.1948	0.003807
506.4181	0.003934
506.6414	0.003511
506.8647	0.002730
507.0880	0.003680
507.3113	0.004229
507.5346	0.003364
507.7579	0.004145
507.9813	0.004293
508.2046	0.004799
508.4280	0.004377
508.6514	0.002519
508.8748	0.002815
509.0982	0.003364
509.3216	0.003913
509.5450	0.004018
509.7685	0.004103
509.9919	0.004314
510.2154	0.002224
510.4388	0.003195
510.6623	0.002667
510.8858	0.002751
511.1093	0.003427
511.3329	0.001801
511.5564	0.002730
511.7799	0.003533
512.0035	0.002836
512.2270	0.002878
512.4506	0.003364
512.6742	0.002287
512.8978	0.002519
513.1214	0.003701
513.3451	0.002350
513.5687	0.003575
513.7923	0.003617
514.0160	0.003321
514.2397	0.003870
514.4634	0.003997
514.6871	0.003427
514.9108	0.003385
515.1345	0.003533
515.3582	0.002941
515.5819	0.003216
515.8057	0.004905
516.0295	0.002794
516.2532	0.003448
516.4770	0.002646
516.7008	0.003174
516.9246	0.003216
517.1485	0.004250
517.3723	0.003047
517.5961	0.005053
517.8200	0.002540
518.0439	0.001611
518.2677	0.002160
518.4916	0.004483
518.7155	0.003216
518.9395	0.004039
519.1634	0.002371
519.3873	0.003723
519.6113	0.003659
519.8352	0.004483
520.0592	0.002963
520.2832	0.003258
520.5072	0.004081
520.7312	0.001654
520.9552	0.004081
521.1792	0.003026
521.4033	0.004736
521.6273	0.002646
521.8514	0.003723
522.0755	0.002245
522.2996	0.001970
522.5237	0.003807
522.7478	0.004651
522.9719	0.004757
523.1960	0.003321
523.4202	0.004250
523.6443	0.003554
523.8685	0.004060
524.0927	0.005264
524.3169	0.004504
524.5411	0.003659
524.7653	0.003237
524.9895	0.004926
525.2138	0.003195
525.4380	0.003765
525.6623	0.002224
525.8865	0.004166
526.1108	0.003701
526.3351	0.005285
526.5594	0.002857
526.7837	0.003680
527.0081	0.004588
527.2324	0.004609
527.4568	0.004018
527.6811	0.004546
527.9055	0.003891
528.1299	0.003934
528.3543	0.004081
528.5787	0.004039
528.8031	0.003617
529.0276	0.005918
529.2520	0.004841
529.4765	0.007248
529.7009	0.005390
529.9254	0.005897
530.1499	0.005348
530.3744	0.005390
530.5989	0.005749
530.8234	0.005981
531.0480	0.004884
531.2725	0.004841
531.4971	0.004504
531.7217	0.005559
531.9462	0.005285
532.1708	0.005834
532.3954	0.005179
532.6200	0.006003
532.8447	0.006404
533.0693	0.006298
533.2940	0.006974
533.5186	0.007945
533.7433	0.005623
533.9680	0.006995
534.1927	0.007269
534.4174	0.006784
534.6421	0.008029
534.8668	0.009021
535.0916	0.007966
535.3163	0.008029
535.5411	0.008283
535.7659	0.009064
535.9907	0.008346
536.2155	0.008430
536.4403	0.008641
536.6651	0.008008
536.8899	0.006340
537.1148	0.006974
537.3396	0.006657
537.5645	0.009275
537.7894	0.009233
538.0143	0.008663
538.2392	0.010140
538.4641	0.008895
538.6890	0.009950
538.9139	0.009866
539.1389	0.010394
539.3638	0.009866
539.5888	0.011069
539.8138	0.011745
540.0388	0.009781
540.2638	0.010837
540.4888	0.011618
540.7138	0.012758
540.9389	0.011682
541.1639	0.011513
541.3890	0.011154
541.6140	0.013455
541.8391	0.010605
542.0642	0.013750
542.2893	0.012653
542.5144	0.011660
542.7396	0.011660
542.9647	0.014152
543.1899	0.014764
543.4150	0.014532
543.6402	0.013898
543.8654	0.016706
544.0906	0.013497
544.3158	0.014468
544.5410	0.013666
544.7662	0.014342
544.9915	0.013455
545.2167	0.015038
545.4420	0.013835
545.6673	0.016178
545.8926	0.014722
546.1179	0.014679
546.3432	0.014933
546.5685	0.015946
546.7938	0.015988
547.0192	0.015038
547.2445	0.016959
547.4699	0.015925
547.6953	0.016622
547.9206	0.018437
548.1460	0.018627
548.3715	0.018437
548.5969	0.017677
548.8223	0.017276
549.0478	0.019070
549.2732	0.016685
549.4987	0.018120
549.7242	0.018458
549.9496	0.019007
550.1751	0.018057
550.4007	0.016727
550.6262	0.017888
550.8517	0.015967
551.0773	0.017065
551.3028	0.017255
551.5284	0.017529
551.7540	0.019134
551.9796	0.020210
552.2052	0.020970
552.4308	0.022448
552.6564	0.023504
552.8820	0.022892
553.1077	0.022765
553.3333	0.020907
553.5590	0.022110
553.7847	0.025488
554.0104	0.023799
554.2361	0.023293
554.4618	0.022322
554.6875	0.021942
554.9132	0.020590
555.1390	0.022469
555.3648	0.022913
555.5905	0.025488
555.8163	0.025467
556.0421	0.026755
556.2679	0.026079
556.4937	0.025150
556.7195	0.025868
556.9454	0.025720
557.1712	0.023039
557.3971	0.026227
557.6230	0.025404
557.8488	0.026734
558.0747	0.025214
558.3006	0.028592
558.5266	0.024939
558.7525	0.023694
558.9784	0.024032
559.2044	0.024369
559.4303	0.023842
559.6563	0.026206
559.8823	0.026396
560.1083	0.027325
560.3343	0.030449
560.5603	0.029985
560.7863	0.032645
561.0124	0.033384
561.2384	0.033215
561.4645	0.032983
561.6905	0.033912
561.9166	0.035220
562.1427	0.033342
562.3688	0.031336
562.5949	0.032265
562.8211	0.032560
563.0472	0.030597
563.2733	0.033130
563.4995	0.033215
563.7257	0.035579
563.9519	0.035410
564.1781	0.035242
564.4043	0.036888
564.6305	0.038387
564.8567	0.039337
565.0829	0.038809
565.3092	0.038535
565.5355	0.038999
565.7617	0.038978
565.9880	0.039063
566.2143	0.041237
566.4406	0.042103
566.6669	0.040667
566.8932	0.042673
567.1196	0.043433
567.3459	0.051180
567.5723	0.051962
567.7987	0.055149
568.0250	0.054537
568.2514	0.055572
568.4778	0.059076
568.7043	0.063594
568.9307	0.065557
569.1571	0.069420
569.3836	0.076345
569.6100	0.083459
569.8365	0.090025
570.0630	0.097857
570.2895	0.100982
570.5160	0.100538
570.7425	0.102354
570.9690	0.105162
571.1956	0.115886
571.4221	0.123296
571.6487	0.119644
571.8752	0.130558
572.1018	0.135097
572.3284	0.131572
572.5550	0.124352
572.7816	0.115316
573.0082	0.113501
573.2349	0.119074
573.4615	0.135731
573.6882	0.145188
573.9149	0.147025
574.1415	0.152767
574.3682	0.160895
574.5949	0.163555
574.8216	0.166321
575.0484	0.167904
575.2751	0.170416
575.5018	0.168981
575.7286	0.164062
575.9554	0.157496
576.1821	0.154752
576.4089	0.161085
576.6357	0.170247
576.8626	0.174934
577.0894	0.179325
577.3162	0.177256
577.5431	0.195602
577.7699	0.209704
577.9968	0.241117
578.2237	0.233665
578.4505	0.222329
578.6774	0.207867
578.9044	0.196362
579.1313	0.186608
579.3582	0.190556
579.5851	0.192794
579.8121	0.200246
580.0391	0.203371
580.2660	0.205946
580.4930	0.205904
580.7200	0.196066
580.9470	0.200774
581.1741	0.234679
581.4011	0.280954
581.6281	0.309433
581.8552	0.310489
582.0822	0.307216
582.3093	0.296408
582.5364	0.282052
582.7635	0.254692
582.9906	0.234446
583.2177	0.218212
583.4449	0.202167
583.6720	0.192182
583.8991	0.187791
584.1263	0.191295
584.3535	0.194567
584.5807	0.196826
584.8079	0.206284
585.0351	0.216502
585.2623	0.227332
585.4895	0.231723
585.7167	0.226572
585.9440	0.221991
586.1713	0.209472
586.3985	0.197945
586.6258	0.192245
586.8531	0.200690
587.0804	0.206200
587.3077	0.218550
587.5350	0.224862
587.7624	0.221843
587.9897	0.212111
588.2171	0.203730
588.4445	0.200479
588.6718	0.193681
588.8992	0.184265
589.1266	0.174723
589.3540	0.164568
589.5815	0.165265
589.8089	0.159586
590.0363	0.160621
590.2638	0.156398
590.4913	0.149981
590.7187	0.144998
590.9462	0.137420
591.1737	0.131340
591.4012	0.126906
591.6288	0.127349
591.8563	0.131445
592.0838	0.129925
592.3114	0.130854
592.5389	0.152218
592.7665	0.177045
592.9941	0.194293
593.2217	0.200457
593.4493	0.202315
593.6769	0.195222
593.9046	0.189902
594.1322	0.178354
594.3598	0.164463
594.5875	0.168896
594.8152	0.178882
595.0429	0.192773
595.2705	0.193406
595.4983	0.189078
595.7260	0.186841
595.9537	0.172211
596.1814	0.161486
596.4092	0.147827
596.6369	0.143098
596.8647	0.137884
597.0925	0.144534
597.3203	0.149622
597.5481	0.149453
597.7759	0.149263
598.0037	0.142550
598.2315	0.135815
598.4594	0.139214
598.6872	0.153316
598.9151	0.174406
599.1430	0.185870
599.3709	0.175863
599.5988	0.175314
599.8267	0.172401
600.0546	0.175398
600.2825	0.182217
600.5105	0.179895
600.7384	0.178523
600.9664	0.183780
601.1944	0.182703
601.4223	0.179220
601.6503	0.174005
601.8783	0.167777
602.1064	0.167651
602.3344	0.162901
602.5624	0.167461
602.7905	0.171028
603.0185	0.172211
603.2466	0.176370
603.4747	0.183315
603.7028	0.184371
603.9309	0.182217
604.1590	0.168601
604.3871	0.169002
604.6152	0.159650
604.8434	0.154942
605.0715	0.152366
605.2997	0.155934
605.5279	0.162162
605.7561	0.170564
605.9843	0.171915
606.2125	0.172760
606.4407	0.164146
606.6689	0.156208
606.8972	0.156884
607.1254	0.154710
607.3537	0.157813
607.5819	0.159143
607.8102	0.157496
608.0385	0.153000
608.2668	0.149981
608.4951	0.146096
608.7235	0.144745
608.9518	0.142866
609.1801	0.133915
609.4085	0.133852
609.6369	0.133936
609.8653	0.139256
610.0936	0.147025
610.3220	0.149010
610.5505	0.147574
610.7789	0.140460
611.0073	0.135646
611.2357	0.136871
611.4642	0.136617
611.6927	0.137061
611.9211	0.135477
612.1496	0.129503
612.3781	0.130284
612.6066	0.126357
612.8351	0.126991
613.0637	0.129313
613.2922	0.126252
613.5208	0.130601
613.7493	0.125323
613.9779	0.131297
614.2065	0.129038
614.4351	0.125998
614.6637	0.124964
614.8923	0.121966
615.1209	0.126758
615.3495	0.126252
615.5782	0.130833
615.8068	0.131720
616.0355	0.129249
616.2642	0.117554
616.4929	0.114239
616.7216	0.111685
616.9503	0.107611
617.1790	0.112044
617.4077	0.111115
617.6365	0.110144
617.8652	0.112466
618.0940	0.110102
618.3227	0.106365
618.5515	0.101847
618.7803	0.096464
619.0091	0.092622
619.2379	0.087175
619.4667	0.085803
619.6956	0.088906
619.9244	0.095028
620.1533	0.097287
620.3821	0.097519
620.6110	0.096021
620.8399	0.087091
621.0688	0.081095
621.2977	0.073221
621.5266	0.074149
621.7556	0.076324
621.9845	0.079089
622.2135	0.085296
622.4424	0.084177
622.6714	0.082488
622.9004	0.084072
623.1294	0.088146
623.3584	0.090468
623.5874	0.086626
623.8164	0.086098
624.0454	0.086415
624.2745	0.087956
624.5035	0.088252
624.7326	0.090679
624.9617	0.089856
625.1908	0.084346
625.4199	0.085127
625.6490	0.078963
625.8781	0.078097
626.1072	0.077928
626.3364	0.076556
626.5655	0.072355
626.7947	0.071637
627.0238	0.070096
627.2530	0.070012
627.4822	0.072376
627.7114	0.068470
627.9406	0.068449
628.1698	0.063805
628.3991	0.062116
628.6283	0.056247
628.8576	0.058063
629.0868	0.060089
629.3161	0.063256
629.5454	0.063446
629.7747	0.064164
630.0040	0.062644
630.2333	0.060469
630.4626	0.059730
630.6920	0.057683
630.9213	0.056437
631.1507	0.054030
631.3801	0.052637
631.6094	0.055192
631.8388	0.054368
632.0682	0.053102
632.2976	0.050040
632.5271	0.049766
632.7565	0.046430
632.9859	0.046072
633.2154	0.046473
633.4448	0.045966
633.6743	0.045502
633.9038	0.044974
634.1333	0.041723
634.3628	0.042694
634.5923	0.040477
634.8218	0.042377
635.0514	0.043580
635.2809	0.039717
635.5105	0.040266
635.7400	0.041153
635.9696	0.041955
636.1992	0.044784
636.4288	0.048035
636.6584	0.047359
636.8880	0.043644
637.1177	0.045924
637.3473	0.043264
637.5770	0.041258
637.8066	0.040266
638.0363	0.039907
638.2660	0.042398
638.4957	0.043327
638.7254	0.042926
638.9551	0.043116
639.1848	0.041596
639.4145	0.039780
639.6443	0.038604
639.8740	0.037494
640.1038	0.038095
640.3336	0.038380
640.5633	0.037099
640.7931	0.036208
641.0229	0.036474
641.2528	0.035424
641.4826	0.035326
641.7124	0.035069
641.9423	0.032193
642.1721	0.032104
642.4020	0.030428
642.6319	0.028284
642.8617	0.027422
643.0916	0.032812
643.3216	0.029289
643.5515	0.031945
643.7814	0.030066
644.0113	0.030499
644.2413	0.028774
644.4712	0.029162
644.7012	0.026347
644.9312	0.026459
645.1612	0.028070
645.3912	0.027109
645.6212	0.027466
645.8512	0.025087
646.0812	0.024860
646.3113	0.026179
646.5413	0.025906
646.7714	0.025833
647.0015	0.023823
647.2316	0.024740
647.4616	0.025045
647.6918	0.025538
647.9219	0.027532
648.1520	0.026513
648.3821	0.029490
648.6123	0.032587
648.8424	0.033006
649.0726	0.036245
649.3028	0.033110
649.5329	0.035942
649.7631	0.032616
649.9933	0.029139
650.2236	0.030120
650.4538	0.030893
650.6840	0.030182
650.9143	0.029098
651.1445	0.028145
651.3748	0.029462
651.6051	0.029284
651.8354	0.031016
652.0657	0.030683
652.2960	0.029585
652.5263	0.032223
652.7566	0.032433
652.9870	0.032701
653.2173	0.032612
653.4477	0.033075
653.6780	0.033717
653.9084	0.032384
654.1388	0.032236
654.3692	0.034889
654.5996	0.034753
654.8300	0.040678
655.0605	0.066061
655.2909	0.189584
655.5213	0.531748
655.7518	0.945562
655.9823	1.000000
656.2128	1.000000
656.4433	1.000000
656.6738	1.000000
656.9043	1.000000
657.1348	0.855966
657.3653	0.706796
657.5959	0.608444
657.8264	0.531816
658.0570	0.484742
658.2875	0.449738
658.5181	0.413250
658.7487	0.379431
658.9793	0.365473
659.2099	0.326837
659.4406	0.258598
659.6712	0.170340
659.9018	0.097792
660.1325	0.060798
660.3632	0.040822
660.5938	0.030200
660.8245	0.027470
661.0552	0.024597
661.2859	0.024021
661.5166	0.024229
661.7474	0.023495
661.9781	0.021244
662.2088	0.023479
662.4396	0.023758
662.6704	0.023938
662.9011	0.022156
663.1319	0.022302
663.3627	0.022218
663.5935	0.022724
663.8243	0.021908
664.0552	0.023723
664.2860	0.021599
664.5168	0.023633
664.7477	0.023541
664.9786	0.022234
665.2094	0.025725
665.4403	0.023929
665.6712	0.025147
665.9021	0.022968
666.1330	0.023234
666.3640	0.023247
666.5949	0.022466
666.8259	0.021401
667.0568	0.021640
667.2878	0.020468
667.5188	0.022342
667.7497	0.020569
667.9807	0.022064
668.2117	0.021158
668.4428	0.023567
668.6738	0.021013
668.9048	0.020316
669.1359	0.022786
669.3669	0.022638
669.5980	0.020802
669.8291	0.024369
670.0602	0.022892
670.2913	0.021519
670.5224	0.022554
670.7535	0.024412
670.9846	0.021963
671.2157	0.021794
671.4469	0.026206
671.6781	0.030639
671.9092	0.030302
672.1404	0.031547
672.3716	0.034376
672.6028	0.036086
672.8340	0.037099
673.0652	0.032687
673.2964	0.032202
673.5277	0.032075
673.7589	0.028528
673.9902	0.029922
674.2214	0.029077
674.4527	0.026164
674.6840	0.025784
674.9153	0.026502
675.1466	0.026079
675.3779	0.026544
675.6093	0.026164
675.8406	0.026459
676.0719	0.025467
676.3033	0.024749
676.5347	0.024095
676.7661	0.023694
676.9974	0.022892
677.2288	0.025003
677.4602	0.025383
677.6917	0.028085
677.9231	0.027304
678.1545	0.028929
678.3860	0.030217
678.6174	0.030386
678.8489	0.030682
679.0804	0.030449
679.3119	0.031674
679.5434	0.034777
679.7749	0.034714
680.0064	0.035537
680.2379	0.036973
680.4694	0.035136
680.7010	0.036023
680.9325	0.032582
681.1641	0.031927
681.3957	0.036719
681.6273	0.035622
681.8589	0.035622
682.0905	0.032518
682.3221	0.034946
682.5537	0.032708
682.7854	0.031674
683.0170	0.028718
683.2487	0.031420
683.4803	0.031273
683.7120	0.033004
683.9437	0.033046
684.1754	0.034883
684.4071	0.036550
684.6388	0.039759
684.8705	0.038366
685.1023	0.042335
685.3340	0.043454
685.5658	0.044678
685.7975	0.044319
686.0293	0.045649
686.2611	0.044826
686.4929	0.044362
686.7247	0.045227
686.9565	0.041934
687.1883	0.043348
687.4202	0.044594
687.6520	0.044214
687.8838	0.042820
688.1157	0.037775
688.3476	0.040308
688.5795	0.037184
688.8114	0.037163
689.0433	0.036170
689.2752	0.039485
689.5071	0.037690
689.7390	0.037838
689.9710	0.034038
690.2029	0.034967
690.4349	0.035263
690.6669	0.034376
690.8988	0.036044
691.1308	0.039020
691.3628	0.037606
691.5948	0.037099
691.8269	0.039210
692.0589	0.037817
692.2909	0.037775
692.5230	0.038239
692.7550	0.037712
692.9871	0.039379
693.2192	0.038767
693.4513	0.039590
693.6834	0.041322
693.9155	0.038218
694.1476	0.036804
694.3797	0.034798
694.6119	0.033109
694.8440	0.036023
695.0762	0.034292
695.3083	0.035579
695.5405	0.032603
695.7727	0.029457
696.0049	0.030428
696.2371	0.029225
696.4693	0.032434
696.7016	0.036044
696.9338	0.038598
697.1660	0.042483
697.3983	0.039738
697.6306	0.040730
697.8628	0.039316
698.0951	0.037268
698.3274	0.039759
698.5597	0.038662
698.7920	0.038070
699.0243	0.037585
699.2567	0.035157
699.4890	0.036804
699.7214	0.032370
699.9537	0.033912
700.1861	0.032202
700.4185	0.031822
700.6509	0.030977
700.8833	0.032877
701.1157	0.029900
701.3481	0.028972
701.5806	0.029246
701.8130	0.029288
702.0454	0.029140
702.2779	0.031230
702.5104	0.030850
702.7429	0.032244
702.9753	0.031209
703.2078	0.029647
703.4403	0.027937
703.6729	0.029415
703.9054	0.029394
704.1379	0.028803
704.3705	0.028929
704.6030	0.028972
704.8356	0.027642
705.0682	0.025129
705.3008	0.023377
705.5334	0.024158
705.7660	0.024369
705.9986	0.024179
706.2312	0.027072
706.4638	0.029478
706.6965	0.033996
706.9291	0.035643
707.1618	0.036192
707.3945	0.035917
707.6272	0.038704
707.8599	0.039569
708.0926	0.040773
708.3253	0.039020
708.5580	0.037142
708.7907	0.036382
709.0235	0.036170
709.2562	0.033426
709.4890	0.031864
709.7217	0.034883
709.9545	0.035432
710.1873	0.034460
710.4201	0.036487
710.6529	0.035115
710.8857	0.035115
711.1186	0.032877
711.3514	0.032328
711.5842	0.033447
711.8171	0.031357
712.0500	0.028000
712.2828	0.028549
712.5157	0.026692
712.7486	0.029605
712.9815	0.029478
713.2144	0.029964
713.4474	0.030872
713.6803	0.033764
713.9132	0.037036
714.1462	0.034798
714.3791	0.035579
714.6121	0.034798
714.8451	0.034714
715.0781	0.035326
715.3111	0.034946
715.5441	0.034460
715.7771	0.034587
716.0102	0.030027
716.2432	0.030534
716.4762	0.029647
716.7093	0.029795
716.9424	0.029943
717.1754	0.028655
717.4085	0.029077
717.6416	0.028444
717.8747	0.029225
718.1078	0.028106
718.3410	0.028676
718.5741	0.027177
718.8072	0.029267
719.0404	0.030492
719.2736	0.028212
719.5067	0.030259
719.7399	0.029964
719.9731	0.027916
720.2063	0.030386
720.4395	0.027219
720.6727	0.031589
720.9060	0.030470
721.1392	0.031294
721.3725	0.031526
721.6057	0.027663
721.8390	0.028359
722.0723	0.029858
722.3055	0.030660
722.5388	0.029964
722.7721	0.028950
723.0055	0.028760
723.2388	0.027409
723.4721	0.027705
723.7055	0.029499
723.9388	0.029457
724.1722	0.027874
724.4056	0.028613
724.6389	0.026797
724.8723	0.029330
725.1057	0.030238
725.3391	0.032096
725.5726	0.031906
725.8060	0.033257
726.0394	0.033806
726.2729	0.034524
726.5063	0.033616
726.7398	0.033890
726.9733	0.031822
727.2068	0.031969
727.4403	0.031062
727.6738	0.031125
727.9073	0.032793
728.1408	0.035305
728.3743	0.033658
728.6079	0.034080
728.8414	0.033637
729.0750	0.033722
729.3086	0.034883
729.5421	0.036656
729.7757	0.036656
730.0093	0.037733
730.2429	0.038049
730.4766	0.038155
730.7102	0.037817
730.9438	0.042103
731.1775	0.042863
731.4111	0.044129
731.6448	0.043686
731.8785	0.042799
732.1122	0.042272
732.3458	0.041216
732.5795	0.042124
732.8133	0.041870
733.0470	0.043580
733.2807	0.043517
733.5145	0.045818
733.7482	0.046578
733.9820	0.048415
734.2157	0.053249
734.4495	0.051434
734.6833	0.051159
734.9171	0.048140
735.1509	0.048943
735.3847	0.050294
735.6185	0.049154
735.8524	0.048140
736.0862	0.051708
736.3201	0.048879
736.5539	0.047148
736.7878	0.047380
737.0217	0.049808
737.2556	0.049238
737.4895	0.048478
737.7234	0.047359
737.9573	0.043982
738.1912	0.044235
738.4252	0.043116
738.6591	0.039675
738.8931	0.044172
739.1271	0.045438
739.3610	0.049196
739.5950	0.045670
739.8290	0.045818
740.0630	0.045438
740.2970	0.043053
740.5310	0.041195
740.7651	0.039548
740.9991	0.037902
741.2332	0.035769
741.4672	0.035790
741.7013	0.033827
741.9354	0.034967
742.1695	0.033595
742.4036	0.034650
742.6377	0.035685
742.8718	0.032582
743.1059	0.033933
743.3400	0.035305
743.5742	0.030660
743.8083	0.030787
744.0425	0.030639
744.2767	0.029837
744.5108	0.030302
744.7450	0.031653
744.9792	0.029246
745.2134	0.028444
745.4477	0.026860
745.6819	0.029394
745.9161	0.028929
746.1504	0.027072
746.3846	0.028444
746.6189	0.026924
746.8532	0.027810
747.0874	0.031484
747.3217	0.030175
747.5560	0.031779
747.7903	0.031019
748.0247	0.028803
748.2590	0.028908
748.4933	0.029900
748.7277	0.030027
748.9620	0.030492
749.1964	0.032159
749.4308	0.032244
749.6652	0.034629
749.8995	0.035199
750.1339	0.036318
750.3684	0.041554
750.6028	0.043179
750.8372	0.038978
751.0717	0.039527
751.3061	0.038007
751.5406	0.041153
751.7750	0.043348
752.0095	0.037775
752.2440	0.037522
752.4785	0.039105
752.7130	0.035579
752.9475	0.037923
753.1820	0.036783
753.4166	0.038450
753.6511	0.040540
753.8856	0.043412
754.1202	0.044425
754.3548	0.043010
754.5894	0.041026
754.8239	0.041744
755.0585	0.039865
755.2931	0.040393
755.5278	0.041702
755.7624	0.040519
755.9970	0.043707
756.2317	0.044995
756.4663	0.049027
756.7010	0.049703
756.9356	0.050378
757.1703	0.054094
757.4050	0.059266
757.6397	0.057957
757.8744	0.058274
758.1091	0.059625
758.3438	0.057366
758.5786	0.055107
758.8133	0.054622
759.0481	0.055508
759.2828	0.058400
759.5176	0.059055
759.7524	0.060659
759.9872	0.061314
760.2220	0.061799
760.4568	0.064797
760.6916	0.062939
760.9264	0.062939
761.1613	0.059857
761.3961	0.058675
761.6310	0.057366
761.8658	0.053735
762.1007	0.050843
762.3356	0.049302
762.5705	0.047993
762.8054	0.045797
763.0403	0.049196
763.2752	0.049513
763.5101	0.048795
763.7450	0.049724
763.9800	0.048436
764.2149	0.053777
764.4499	0.056986
764.6849	0.056479
764.9198	0.061293
765.1548	0.057387
765.3898	0.057493
765.6248	0.057218
765.8599	0.053249
766.0949	0.050758
766.3299	0.048626
766.5650	0.043580
766.8000	0.041617
767.0351	0.039844
767.2701	0.041047
767.5052	0.038915
767.7403	0.037142
767.9754	0.041385
768.2105	0.044720
768.4456	0.045122
768.6808	0.048689
768.9159	0.049534
769.1510	0.049914
769.3862	0.049618
769.6214	0.048183
769.8565	0.045143
770.0917	0.044699
770.3269	0.045206
770.5621	0.045312
770.7973	0.047190
771.0325	0.046663
771.2677	0.047634
771.5030	0.047275
771.7382	0.045122
771.9735	0.040308
772.2087	0.040329
772.4440	0.042229
772.6793	0.040435
772.9146	0.040836
773.1499	0.041892
773.3852	0.038683
773.6205	0.037500
773.8558	0.039210
774.0911	0.035622
774.3265	0.035643
774.5618	0.033658
774.7972	0.032286
775.0326	0.030576
775.2679	0.031252
775.5033	0.029415
775.7387	0.030069
775.9741	0.025742
776.2095	0.026797
776.4450	0.026818
776.6804	0.025953
776.9158	0.025847
777.1513	0.026459
777.3868	0.024918
777.6222	0.024327
777.8577	0.023039
778.0932	0.024369
778.3287	0.025319
778.5642	0.027979
778.7997	0.029605
779.0352	0.028317
779.2707	0.031843
779.5063	0.031589
779.7418	0.029964
779.9774	0.029922
780.2130	0.029499
780.4485	0.028380
780.6841	0.029900
780.9197	0.031442
781.1553	0.035622
781.3909	0.035326
781.6265	0.036593
781.8622	0.035643
782.0978	0.035727
782.3335	0.034503
782.5691	0.036783
782.8048	0.037099
783.0405	0.034566
783.2761	0.034059
783.5118	0.035389
783.7475	0.035432
783.9832	0.034418
784.2190	0.032856
784.4547	0.030660
784.6904	0.029394
784.9262	0.031336
785.1619	0.030597
785.3977	0.032117
785.6335	0.030217
785.8692	0.030133
786.1050	0.029922
786.3408	0.029119
786.5766	0.029140
786.8124	0.027367
787.0483	0.025298
787.2841	0.028275
787.5199	0.030470
787.7558	0.029542
787.9917	0.028000
788.2275	0.030682
788.4634	0.030217
788.6993	0.030386
788.9352	0.032772
789.1711	0.031674
789.4070	0.030766
789.6429	0.028275
789.8789	0.027262
790.1148	0.027050
790.3507	0.026058
790.5867	0.028296
790.8227	0.024770
791.0586	0.024454
791.2946	0.025573
791.5306	0.024686
791.7666	0.026122
792.0026	0.022490
792.2387	0.024032
792.4747	0.024918
792.7107	0.021456
792.9468	0.022089
793.1828	0.023483
793.4189	0.022913
793.6550	0.023398
793.8910	0.026776
794.1271	0.030618
794.3632	0.031547
794.5993	0.032075
794.8355	0.030576
795.0716	0.030386
795.3077	0.035474
795.5439	0.034524
795.7800	0.029647
796.0162	0.026143
796.2523	0.024792
796.4885	0.024200
796.7247	0.021182
796.9609	0.021097
797.1971	0.020042
797.4333	0.022110
797.6695	0.024918
797.9058	0.024158
798.1420	0.023419
798.3783	0.024200
798.6145	0.023567
798.8508	0.022849
799.0871	0.022469
799.3233	0.023462
799.5596	0.022617
799.7959	0.019936
800.0322	0.020844
800.2686	0.020548
800.5049	0.019007
800.7412	0.017973
800.9776	0.018902
801.2139	0.019662
801.4503	0.018754
801.6867	0.018838
801.9230	0.017234
802.1594	0.017846
802.3958	0.017318
802.6322	0.017403
802.8686	0.016896
803.1051	0.016136
803.3415	0.018184
803.5779	0.019493
803.8144	0.018374
804.0508	0.019387
804.2873	0.015925
804.5238	0.017762
804.7603	0.017677
804.9968	0.016833
805.2333	0.018690
805.4698	0.016938
805.7063	0.019176
805.9428	0.019493
806.1794	0.022955
806.4159	0.023652
806.6525	0.024538
806.8890	0.024770
807.1256	0.023060
807.3622	0.023630
807.5988	0.021562
807.8354	0.025362
808.0720	0.021963
808.3086	0.023968
808.5452	0.023588
808.7818	0.025319
809.0185	0.024665
809.2551	0.022068
809.4918	0.020253
809.7284	0.021224
809.9651	0.018226
810.2018	0.020802
810.4385	0.019239
810.6752	0.020970
810.9119	0.017086
811.1486	0.019366
811.3853	0.017804
811.6221	0.019324
811.8588	0.016558
812.0956	0.016157
812.3323	0.017065
812.5691	0.014700
812.8059	0.013814
813.0427	0.015186
813.2795	0.014722
813.5163	0.016199
813.7531	0.019282
813.9899	0.018902
814.2267	0.020907
814.4636	0.018606
814.7004	0.018606
814.9373	0.016833
815.1742	0.016706
815.4110	0.015439
815.6479	0.016326
815.8848	0.014764
816.1217	0.015292
816.3586	0.014722
816.5955	0.013772
816.8324	0.015482
817.0694	0.016220
817.3063	0.015313
817.5433	0.017339
817.7802	0.015714
818.0172	0.015608
818.2542	0.014827
818.4912	0.014342
818.7282	0.012610
818.9652	0.013603
819.2022	0.012442
819.4392	0.013159
819.6762	0.012442
819.9133	0.012273
820.1503	0.012484
820.3874	0.013877
820.6244	0.014827
820.8615	0.015946
821.0986	0.016706
821.3357	0.015862
821.5727	0.015017
821.8099	0.015524
822.0470	0.015629
822.2841	0.012927
822.5212	0.013392
822.7584	0.014194
822.9955	0.011175
823.2327	0.012167
823.4698	0.011787
823.7070	0.011977
823.9442	0.011576
824.1814	0.011280
824.4186	0.012526
824.6558	0.011660
824.8930	0.010879
825.1302	0.011618
825.3675	0.013455
825.6047	0.011133
825.8419	0.013476
826.0792	0.014173
826.3165	0.012273
826.5537	0.013560
826.7910	0.013096
827.0283	0.014764
827.2656	0.013497
827.5029	0.013898
827.7402	0.013687
827.9776	0.012695
828.2149	0.012674
828.4522	0.012822
828.6896	0.012463
828.9270	0.013244
829.1643	0.014320
829.4017	0.012843
829.6391	0.013012
829.8765	0.012125
830.1139	0.012062
830.3513	0.011175
830.5887	0.010563
830.8261	0.010140
831.0636	0.010056
831.3010	0.010330
831.5385	0.007417
831.7759	0.007290
832.0134	0.007839
832.2509	0.007881
832.4884	0.008346
832.7259	0.009908
832.9634	0.008684
833.2009	0.009444
833.4384	0.008641
833.6759	0.008346
833.9135	0.009528
834.1510	0.010394
834.3886	0.011808
834.6261	0.010774
834.8637	0.011006
835.1013	0.010288
835.3389	0.010225
835.5765	0.008916
835.8141	0.009444
836.0517	0.009444
836.2893	0.010183
836.5269	0.010499
836.7646	0.008515
837.0022	0.009781
837.2399	0.007691
837.4775	0.006636
837.7152	0.007269
837.9529	0.007459
838.1906	0.008388
838.4283	0.006699
838.6660	0.006467
838.9037	0.007966
839.1414	0.007987
839.3791	0.007818
839.6169	0.010710
839.8546	0.006826
840.0924	0.007523
840.3302	0.006298
840.5679	0.006214
840.8057	0.008620
841.0435	0.009043
841.2813	0.006573
841.5191	0.007143
841.7569	0.006045
841.9947	0.005369
842.2326	0.007713
842.4704	0.005053
842.7082	0.006974
842.9461	0.005411
843.1840	0.005285
843.4218	0.006741
843.6597	0.004947
843.8976	0.004694
844.1355	0.005433
844.3734	0.006699
844.6113	0.005369
844.8492	0.005496
845.0872	0.006150
845.3251	0.005158
845.5631	0.006615
845.8010	0.006509
846.0390	0.005559
846.2770	0.005454
846.5149	0.004757
846.7529	0.004377
846.9909	0.005095
847.2289	0.004271
847.4669	0.007100
847.7050	0.005243
847.9430	0.005411
848.1810	0.004377
848.4191	0.006763
848.6571	0.005517
848.8952	0.003427
849.1333	0.003934
849.3713	0.006150
849.6094	0.005813
849.8475	0.005010
850.0856	0.005538
850.3237	0.005538
850.5619	0.005200
850.8000	0.005095
851.0381	0.005053
851.2763	0.004588
851.5144	0.005285
851.7526	0.005981
851.9908	0.005580
852.2289	0.006087
852.4671	0.006298
852.7053	0.010035
852.9435	0.009275
853.1817	0.012125
853.4200	0.014363
853.6582	0.013244
853.8964	0.012927
854.1347	0.013476
854.3729	0.012779
854.6112	0.013962
854.8495	0.014215
855.0877	0.013349
855.3260	0.013012
855.5643	0.012990
855.8026	0.011639
856.0409	0.012420
856.2792	0.012927
856.5176	0.012505
856.7559	0.011850
856.9942	0.011090
857.2326	0.011914
857.4710	0.010436
857.7093	0.010098
857.9477	0.009803
858.1861	0.011618
858.4245	0.010520
858.6629	0.010710
858.9013	0.010753
859.1397	0.009866
859.3781	0.010288
859.6166	0.008831
859.8550	0.006826
860.0935	0.009169
860.3319	0.010035
860.5704	0.008494
860.8089	0.007713
861.0473	0.006573
861.2858	0.007501
861.5243	0.008557
861.7628	0.007164
862.0013	0.005813
862.2399	0.005897
862.4784	0.004229
862.7169	0.005559
862.9555	0.005981
863.1940	0.006720
863.4326	0.006931
863.6712	0.006953
863.9098	0.006551
864.1483	0.006340
864.3869	0.005770
864.6255	0.006404
864.8642	0.006446
865.1028	0.005200
865.3414	0.004905
865.5800	0.007016
865.8187	0.006150
866.0573	0.004461
866.2960	0.003976
866.5347	0.005559
866.7733	0.004504
867.0120	0.003955
867.2507	0.006889
867.4894	0.005601
867.7281	0.006509
867.9669	0.007143
868.2056	0.006784
868.4443	0.006699
868.6831	0.004419
868.9218	0.005644
869.1606	0.004715
869.3993	0.005981
869.6381	0.004841
869.8769	0.007164
870.1157	0.004609
870.3545	0.005031
870.5933	0.005243
870.8321	0.006108
871.0709	0.006530
871.3097	0.006087
871.5486	0.005390
871.7874	0.007924
872.0263	0.005010
872.2651	0.006530
872.5040	0.004483
872.7429	0.005939
872.9818	0.005158
873.2207	0.006045
873.4596	0.004715
873.6985	0.005897
873.9374	0.004208
874.1763	0.004630
874.4153	0.006509
874.6542	0.006847
874.8932	0.004884
875.1321	0.005601
875.3711	0.006066
875.6101	0.006615
875.8491	0.006319
876.0880	0.005749
876.3270	0.006319
876.5661	0.005433
876.8051	0.007713
877.0441	0.005179
877.2831	0.005601
877.5222	0.006699
877.7612	0.006657
878.0003	0.006889
878.2393	0.007396
878.4784	0.007501
878.7175	0.007544
878.9566	0.008156
879.1957	0.007417
879.4348	0.006741
879.6739	0.007227
879.9130	0.005644
880.1521	0.009613
880.3913	0.008557
880.6304	0.008874
880.8696	0.007185
881.1087	0.008641
881.3479	0.008367
881.5871	0.008071
881.8262	0.006340
882.0654	0.007607
882.3046	0.006340
882.5438	0.006319
882.7831	0.005264
883.0223	0.006657
883.2615	0.005981
883.5007	0.007206
883.7400	0.006636
883.9792	0.006488
884.2185	0.006087
884.4578	0.007818
884.6971	0.007079
884.9363	0.007290
885.1756	0.005644
885.4149	0.006340
885.6542	0.006235
885.8936	0.007311
886.1329	0.006193
886.3722	0.007269
886.6116	0.007354
886.8509	0.005686
887.0903	0.005939
887.3296	0.007058
887.5690	0.005327
887.8084	0.005517
888.0478	0.005834
888.2872	0.005517
888.5266	0.005348
888.7660	0.006594
889.0054	0.005306
889.2448	0.004778
889.4843	0.004356
889.7237	0.005348
889.9632	0.005411
890.2026	0.004039
890.4421	0.006678
890.6816	0.005116
890.9211	0.004820
891.1606	0.004968
891.4001	0.004525
891.6396	0.004208
891.8791	0.006298
892.1186	0.005559
892.3581	0.005306
892.5977	0.004187
892.8372	0.005559
893.0768	0.005580
893.3163	0.005158
893.5559	0.004335
893.7955	0.004651
894.0351	0.004124
894.2747	0.004081
894.5143	0.005454
894.7539	0.005243
894.9935	0.005707
895.2331	0.003849
895.4727	0.004546
895.7124	0.005285
895.9520	0.004863
896.1917	0.005243
896.4314	0.005876
896.6710	0.004588
896.9107	0.004884
897.1504	0.003765
897.3901	0.005707
897.6298	0.004398
897.8695	0.004736
898.1092	0.006256
898.3489	0.005010
898.5887	0.004293
898.8284	0.005897
899.0682	0.005390
899.3079	0.004356
899.5477	0.003427
899.7875	0.004250
900.0272	0.004799
900.2670	0.003680
900.5068	0.004440
900.7466	0.005348
900.9864	0.004757
901.2263	0.004630
901.4661	0.004989
901.7059	0.005327
901.9458	0.005116
902.1856	0.004377
902.4255	0.005390
902.6654	0.004567
902.9052	0.003533
903.1451	0.003891
903.3850	0.001865
903.6249	0.002730
903.8648	0.003364
904.1047	0.006784
904.3446	0.004018
904.5846	0.004799
904.8245	0.005327
905.0644	0.004335
905.3044	0.004841
905.5444	0.005264
905.7843	0.003997
906.0243	0.005031
906.2643	0.006193
906.5043	0.003511
906.7443	0.004060
906.9843	0.005327
907.2243	0.004018
907.4643	0.004081
907.7043	0.005264
907.9444	0.004229
908.1844	0.003638
908.4245	0.003913
908.6645	0.004081
908.9046	0.003279
909.1447	0.002836
909.3847	0.003955
909.6248	0.003195
909.8649	0.004124
910.1050	0.004377
910.3452	0.006404
910.5853	0.003469
910.8254	0.004884
911.0655	0.003195
911.3057	0.003258
911.5458	0.002836
911.7860	0.005559
912.0262	0.003174
912.2663	0.006108
912.5065	0.002751
912.7467	0.003976
912.9869	0.003723
913.2271	0.003385
913.4673	0.002013
913.7075	0.004060
913.9478	0.003913
914.1880	0.004229
914.4283	0.003828
914.6685	0.003723
914.9088	0.001823
915.1490	0.003828
915.3893	0.003891
915.6296	0.003723
915.8699	0.003237
916.1102	0.003744
916.3505	0.002203
916.5908	0.005369
916.8311	0.004609
917.0714	0.002709
917.3118	0.003828
917.5521	0.004483
917.7925	0.005264
918.0328	0.005285
918.2732	0.003870
918.5136	0.003913
918.7539	0.004525
918.9943	0.003406
919.2347	0.004208
919.4751	0.003870
919.7155	0.004884
919.9560	0.003554
920.1964	0.003807
920.4368	0.005644
920.6773	0.003005
920.9177	0.004208
921.1582	0.002456
921.3986	0.004398
921.6391	0.001633
921.8796	0.004335
922.1201	0.002625
922.3606	0.002604
922.6011	0.003068
922.8416	0.002794
923.0821	0.002181
923.3226	0.002540
923.5631	0.002203
923.8037	0.003913
924.0442	0.002308
924.2848	0.003448
924.5254	0.003195
924.7659	0.002688
925.0065	0.002055
925.2471	0.003321
925.4877	0.003258
925.7283	0.002709
925.9689	0.002414
926.2095	0.003511
926.4501	0.002604
926.6908	0.001590
926.9314	0.002393
927.1720	0.002667
927.4127	0.001949
927.6533	0.002350
927.8940	0.001590
928.1347	0.001295
928.3754	0.002688
928.6161	0.003786
928.8568	0.001358
929.0975	0.002794
929.3382	0.000704
929.5789	0.003153
929.8196	0.002477
930.0604	0.002878
930.3011	0.001400
930.5419	0.001928
930.7826	0.002287
931.0234	0.002646
931.2642	0.003617
931.5049	0.002583
931.7457	0.001886
931.9865	0.002561
932.2273	0.002984
932.4681	0.003406
932.7089	0.002519
932.9498	0.001738
933.1906	0.001485
933.4314	0.002414
933.6723	0.002519
933.9131	0.003406
934.1540	0.003258
934.3949	0.001823
934.6358	0.003701
934.8766	0.002034
935.1175	0.004293
935.3584	0.001590
935.5993	0.002477
935.8403	0.001485
936.0812	0.001274
936.3221	0.001358
936.5630	0.000915
936.8040	0.003026
937.0449	0.000661
937.2859	0.003153
937.5269	0.001696
937.7678	0.002181
938.0088	0.001717
938.2498	0.001823
938.4908	0.000999
938.7318	0.001590
938.9728	0.001844
939.2138	0.001337
939.4549	0.002139
939.6959	0.001295
939.9369	0.002139
940.1780	0.002245
940.4190	0.001337
940.6601	0.001886
940.9012	0.000260
941.1422	0.001253
941.3833	0.000366
941.6244	0.001316
941.8655	0.001548
942.1066	0.001569
942.3477	0.001421
942.5889	0.002160
942.8300	0.001210
943.0711	0.000155
943.3123	0.001274
943.5534	0.001020
943.7946	0.001041
944.0357	0.001548
944.2769	0.001443
944.5181	0.001886
944.7593	0.001316
945.0005	-0.000056
945.2417	0.002625
945.4829	0.002139
945.7241	0.001801
945.9653	0.001485
946.2066	0.001675
946.4478	0.001168
946.6891	0.003575
946.9303	0.000767
947.1716	0.001464
947.4128	0.001443
947.6541	0.001886
947.8954	0.000957
948.1367	0.002350
948.3780	0.000936
948.6193	0.000767
948.8606	0.001569
949.1019	0.001485
949.3433	0.001084
949.5846	0.000999
949.8259	0.000957
950.0673	0.002097
950.3086	0.000683
950.5500	0.002498
950.7914	0.001105
951.0327	0.002203
951.2741	0.000493
951.5155	0.001253
951.7569	0.000155
951.9983	0.001506
952.2398	0.000577
952.4812	0.001295
952.7226	0.002646
952.9640	0.001147
953.2055	0.000091
953.4469	0.001485
953.6884	0.001506
953.9299	0.003490
954.1713	0.000429
954.4128	0.000577
954.6543	0.000683
954.8958	0.000936
955.1373	0.001063
955.3788	0.001569
955.6203	0.001084
955.8618	0.000091
956.1034	0.002139
956.3449	0.001126
956.5865	0.001316
956.8280	0.001443
957.0696	0.001506
957.3111	0.002097
957.5527	-0.000331
957.7943	0.001210
958.0359	-0.000373
958.2775	0.000978
958.5191	0.001020
958.7607	0.002435
959.0023	0.001443
959.2439	0.001210
959.4856	0.000429
959.7272	0.000851
959.9688	-0.000267
960.2105	0.001400
960.4522	0.000661
960.6938	0.000999
960.9355	0.001759
961.1772	0.002266
961.4189	0.000577
961.6606	0.001147
961.9023	0.000514
962.1440	0.000809
962.3857	0.001168
962.6274	0.002139
962.8692	0.000345
963.1109	-0.000141
963.3527	0.000683
963.5944	0.000134
963.8362	0.000830
964.0779	-0.000162
964.3197	0.001400
964.5615	-0.000035
964.8033	0.001020
965.0451	0.000471
965.2869	-0.000120
965.5287	0.001400
965.7705	0.000049
966.0123	0.000619
966.2542	0.003216
966.4960	-0.000056
966.7379	0.001548
966.9797	0.000577
967.2216	0.001105
967.4634	-0.000035
967.7053	-0.000099
967.9472	0.001443
968.1891	0.000873
968.4310	0.001210
968.6729	0.001548
968.9148	0.000915
969.1567	0.000450
969.3987	0.001738
969.6406	0.000239
969.8825	0.000493
970.1245	0.000577
970.3664	0.001548
970.6084	-0.000352
970.8504	0.002245
971.0923	0.001696
971.3343	0.002456
971.5763	0.000429
971.8183	0.001358
972.0603	0.000809
972.3023	0.001063
972.5443	0.000704
972.7864	0.000999
973.0284	0.000556
973.2704	0.000324
973.5125	0.000915
973.7545	0.001738
973.9966	0.000303
974.2387	-0.000584
974.4807	0.001274
974.7228	0.000661
974.9649	0.000303
975.2070	0.001337
975.4491	0.000999
975.6912	0.000999
975.9333	0.000493
976.1755	0.001780
976.4176	0.000936
976.6597	0.001084
976.9019	0.001189
977.1440	0.000725
977.3862	0.000028
977.6283	0.001020
977.8705	0.001400
978.1127	0.000429
978.3549	0.001168
978.5971	0.000704
978.8393	0.001801
979.0815	0.001337
979.3237	0.000113
979.5659	0.001231
979.8082	0.001590
980.0504	0.000661
980.2926	0.000408
980.5349	0.002561
980.7771	-0.000183
981.0194	0.000704
981.2617	0.001041
981.5040	0.000429
981.7462	0.000957
981.9885	0.000577
982.2308	0.001316
982.4731	0.002181
982.7155	0.001759
982.9578	0.000830
983.2001	-0.000394
983.4424	-0.000014
983.6848	0.000239
983.9271	0.001823
984.1695	0.000324
984.4118	0.000070
984.6542	0.000661
984.8966	0.000281
985.1390	0.000725
985.3814	0.000239
985.6238	0.000746
985.8662	0.000514
986.1086	0.001654
986.3510	0.001675
986.5934	-0.000162
986.8358	-0.000394
987.0783	0.000303
987.3207	0.001147
987.5632	-0.000056
987.8056	0.000894
988.0481	-0.000394
988.2906	-0.000394
988.5331	-0.000500
988.7756	0.001358
989.0180	0.000260
989.2605	-0.000120
989.5031	-0.000436
989.7456	-0.000521
989.9881	0.000598
990.2306	0.000324
990.4732	0.002477
990.7157	-0.000542
990.9582	-0.000014
991.2008	-0.000436
991.4434	-0.001471
991.6859	-0.000246
991.9285	0.001189
992.1711	0.000134
992.4137	0.001337
992.6563	0.000366
992.8989	0.000767
993.1415	0.002646
993.3841	-0.000457
993.6267	-0.000014
993.8694	-0.000880
994.1120	0.000408
994.3547	0.000218
994.5973	0.000450
994.8400	-0.000563
995.0826	0.001358
995.3253	0.000577
995.5680	0.000957
995.8107	0.000471
996.0534	0.000894
996.2961	-0.000795
996.5388	0.001337
996.7815	-0.000373
997.0242	0.000577
997.2670	0.000366
997.5097	-0.000985
997.7524	0.000873
997.9952	0.000767
998.2379	0.000471
998.4807	-0.000310
998.7235	0.001611
998.9662	0.000281
999.2090	0.000324
999.4518	0.000640
999.6946	-0.000077
999.9374	0.001189
1000.1802	0.001421
1000.4230	0.000894
1000.6659	-0.000162
1000.9087	-0.000521
1001.1515	0.000577
1001.3944	0.000049
1001.6372	0.000661
1001.8801	0.000704
1002.1230	0.002371
1002.3658	0.001991
1002.6087	0.000493
1002.8516	-0.000077
1003.0945	0.001253
1003.3374	0.000070
1003.5803	0.001337
1003.8232	0.000809
1004.0661	0.001337
1004.3091	0.001084
1004.5520	-0.000225
1004.7949	-0.000014
1005.0379	0.001316
1005.2808	0.000640
1005.5238	0.000429
1005.7667	0.000366
1006.0097	0.001970
1006.2527	0.000450
1006.4957	0.001063
1006.7387	0.000218
1006.9817	-0.000014
1007.2247	-0.000774
1007.4677	0.000873
1007.7107	0.000577
1007.9538	0.000936
1008.1968	-0.000310
1008.4398	0.001210
1008.6829	-0.000605
1008.9259	0.000957
1009.1690	0.000450
1009.4121	0.000366
1009.6551	0.000788
1009.8982	0.001147
1010.1413	0.000767
1010.3844	0.000640
1010.6275	0.000830
1010.8706	0.001590
1011.1137	-0.000035
1011.3568	0.000915
1011.6000	0.001421
1011.8431	-0.000837
1012.0863	-0.000457
1012.3294	0.001316
1012.5726	0.001084
1012.8157	0.000619
1013.0589	0.000514
1013.3021	0.000429
1013.5452	0.000704
1013.7884	-0.000120
1014.0316	0.001041
1014.2748	0.001590
1014.5180	0.000155
1014.7613	0.000767
1015.0045	0.000303
1015.2477	0.000915
1015.4909	0.001147
1015.7342	0.001949
1015.9774	0.000851
1016.2207	0.000408
1016.4640	0.000450
1016.7072	0.001189
1016.9505	-0.001217
1017.1938	0.000408
1017.4371	0.001590
1017.6804	0.002034
1017.9237	-0.000014
1018.1670	0.000577
1018.4103	-0.000352
1018.6536	-0.000457
1018.8969	0.001443
1019.1403	0.000851
1019.3836	0.001189
1019.6270	0.000809
1019.8703	-0.000479
1020.1137	0.000661
1020.3571	-0.000289
1020.6004	0.000387
1020.8438	-0.000457
1021.0872	0.001464
1021.3306	-0.000605
1021.5740	0.001168
1021.8174	0.000176
1022.0608	0.001126
1022.3042	0.000619
1022.5477	-0.000500
1022.7911	-0.000605
1023.0345	0.000830
