# Wavelength (nm)	Intensity (a.u.)
197.7802	-0.000206
197.9842	-0.000100
198.1882	0.000470
198.3922	0.001546
198.5963	0.001969
198.8003	-0.001135
199.0044	0.001420
199.2085	-0.000924
199.4126	0.001124
199.6168	0.000470
199.8209	0.001399
200.0251	-0.000016
200.2292	0.001863
200.4334	0.001441
200.6376	0.000005
200.8418	0.000153
201.0461	-0.000459
201.2503	0.001040
201.4546	0.001272
201.6589	0.000322
201.8631	0.000702
202.0674	-0.000142
202.2718	-0.000649
202.4761	0.000575
202.6805	0.000174
202.8848	0.001040
203.0892	-0.001346
203.2936	0.001061
203.4980	0.000153
203.7024	0.000765
203.9069	0.000343
204.1113	-0.000185
204.3158	0.000449
204.5203	0.000449
204.7248	0.000047
204.9293	-0.000164
205.1338	0.000153
205.3384	-0.000227
205.5430	0.001652
205.7475	0.002201
205.9521	0.000660
206.1567	-0.000734
206.3614	0.000554
206.5660	-0.000311
206.7706	0.000322
206.9753	0.001209
207.1800	0.000491
207.3847	0.001736
207.5894	0.001462
207.7941	-0.000375
207.9989	-0.000649
208.2036	0.000786
208.4084	0.001631
208.6132	0.000301
208.8180	0.000871
209.0228	0.000385
209.2276	-0.000079
209.4325	0.000090
209.6373	0.001082
209.8422	-0.001388
210.0471	0.001145
210.2520	0.000005
210.4569	-0.000037
210.6618	-0.001029
210.8668	0.001209
211.0718	0.001335
211.2767	0.000723
211.4817	-0.000565
211.6867	-0.000269
211.8918	0.000153
212.0968	0.001863
212.3018	-0.000902
212.5069	0.001019
212.7120	-0.000100
212.9171	0.000786
213.1222	-0.001409
213.3273	0.001293
213.5325	0.000259
213.7376	0.000829
213.9428	0.000385
214.1480	0.001040
214.3532	0.001272
214.5584	0.000913
214.7636	0.001187
214.9689	0.000554
215.1741	0.000090
215.3794	0.000427
215.5847	-0.000121
215.7900	-0.001240
215.9953	0.000533
216.2007	0.000470
216.4060	0.001589
216.6114	0.000723
216.8168	-0.001662
217.0222	0.000301
217.2276	0.000111
217.4330	-0.000691
217.6384	0.000660
217.8439	0.001019
218.0494	0.000385
218.2548	0.001061
218.4603	0.000955
218.6659	-0.000142
218.8714	0.000807
219.0769	0.000744
219.2825	-0.001430
219.4881	0.001673
219.6936	-0.001515
219.8992	-0.001050
220.1049	0.000660
220.3105	0.001124
220.5161	-0.001114
220.7218	0.000765
220.9275	-0.000311
221.1332	0.000997
221.3389	0.000343
221.5446	-0.000164
221.7503	0.000047
221.9561	0.001757
222.1618	-0.000776
222.3676	0.000744
222.5734	0.001272
222.7792	0.000871
222.9850	0.001377
223.1909	0.000111
223.3967	0.000976
223.6026	-0.000269
223.8085	0.000765
224.0144	-0.000079
224.2203	0.000554
224.4262	0.001019
224.6322	-0.000691
224.8381	0.000491
225.0441	0.000786
225.2501	0.000322
225.4561	-0.000121
225.6621	0.000913
225.8681	0.000575
226.0742	0.001082
226.2802	0.000533
226.4863	-0.000016
226.6924	-0.000332
226.8985	0.000554
227.1046	-0.000396
227.3107	-0.000290
227.5169	0.000596
227.7230	0.000723
227.9292	0.000153
228.1354	0.002517
228.3416	-0.000206
228.5478	0.000343
228.7541	0.000406
228.9603	0.000660
229.1666	0.000723
229.3729	0.001356
229.5791	0.000596
229.7855	-0.000142
229.9918	-0.000712
230.1981	0.000765
230.4045	0.000195
230.6108	0.001652
230.8172	-0.001008
231.0236	0.000660
231.2300	0.000132
231.4364	0.000554
231.6429	-0.000164
231.8493	0.001546
232.0558	0.000639
232.2623	0.001124
232.4688	-0.000839
232.6753	0.000449
232.8818	0.000575
233.0884	0.001166
233.2949	0.000997
233.5015	0.001990
233.7081	-0.001008
233.9147	0.001166
234.1213	0.000280
234.3279	0.000322
234.5346	-0.000902
234.7413	0.001757
234.9479	0.000871
235.1546	0.001187
235.3613	0.000786
235.5680	0.001061
235.7748	0.000132
235.9815	0.000512
236.1883	-0.000016
236.3951	0.001061
236.6018	0.000427
236.8087	0.001166
237.0155	0.000786
237.2223	-0.000987
237.4292	0.000385
237.6360	0.001209
237.8429	-0.000438
238.0498	0.000702
238.2567	0.000976
238.4636	-0.000058
238.6706	-0.000227
238.8775	-0.000417
239.0845	0.000470
239.2915	0.000617
239.4985	-0.000480
239.7055	0.000913
239.9125	0.000829
240.1195	0.000322
240.3266	0.001631
240.5337	0.001525
240.7407	-0.000586
240.9478	0.000195
241.1549	0.000237
241.3621	-0.000037
241.5692	0.001061
241.7764	0.001399
241.9835	0.000301
242.1907	0.000554
242.3979	0.001209
242.6051	0.000554
242.8124	0.001145
243.0196	-0.000269
243.2269	-0.000902
243.4341	0.001166
243.6414	0.001187
243.8487	0.002433
244.0560	0.000237
244.2634	0.002349
244.4707	0.000280
244.6781	0.000765
244.8854	-0.000185
245.0928	0.000660
245.3002	0.000997
245.5076	0.000934
245.7151	0.000385
245.9225	0.000090
246.1300	0.000153
246.3375	0.000723
246.5449	0.000216
246.7524	0.000322
246.9600	0.000765
247.1675	0.001356
247.3750	0.000111
247.5826	0.000660
247.7902	0.001567
247.9978	0.000744
248.2054	-0.000121
248.4130	0.000153
248.6206	0.000026
248.8283	0.000385
249.0359	0.001800
249.2436	0.000153
249.4513	0.000237
249.6590	-0.000396
249.8667	0.000892
250.0745	0.001546
250.2822	0.001504
250.4900	0.000069
250.6978	-0.000100
250.9056	0.001187
251.1134	0.000639
251.3212	0.000132
251.5290	0.000829
251.7369	0.000955
251.9447	-0.001071
252.1526	0.000786
252.3605	-0.000311
252.5684	-0.000142
252.7763	0.000744
252.9843	-0.000881
253.1922	-0.000586
253.4002	0.000491
253.6082	0.000427
253.8162	0.000090
254.0242	-0.000797
254.2322	0.001335
254.4402	0.000153
254.6483	0.000512
254.8564	-0.001177
255.0644	0.000512
255.2725	-0.000459
255.4806	0.001356
255.6888	0.001040
255.8969	0.001441
256.1051	-0.000100
256.3132	0.000047
256.5214	-0.000248
256.7296	0.001103
256.9378	0.000786
257.1460	0.000765
257.3543	-0.000628
257.5625	0.000026
257.7708	-0.000121
257.9791	0.001166
258.1874	0.000807
258.3957	0.000850
258.6040	0.000280
258.8124	0.000153
259.0207	-0.000354
259.2291	-0.000037
259.4375	-0.000438
259.6459	0.000047
259.8543	0.001145
260.0627	0.001272
260.2711	0.000491
260.4796	-0.000164
260.6881	-0.000459
260.8965	0.002032
261.1050	0.000216
261.3135	0.000026
261.5221	-0.001071
261.7306	0.001019
261.9392	-0.000354
262.1477	0.001124
262.3563	0.000491
262.5649	0.000280
262.7735	-0.000037
262.9822	0.000026
263.1908	0.000702
263.3995	-0.000522
263.6081	-0.001050
263.8168	0.000744
264.0255	0.000047
264.2342	0.001187
264.4429	0.000301
264.6517	0.000913
264.8604	0.000596
265.0692	-0.000332
265.2780	-0.000121
265.4868	0.000871
265.6956	-0.000185
265.9044	-0.000037
266.1133	0.000216
266.3221	0.001272
266.5310	0.000976
266.7399	0.000005
266.9488	-0.000544
267.1577	0.000005
267.3666	0.000047
267.5755	-0.000058
267.7845	0.000090
267.9935	0.000807
268.2024	-0.000354
268.4114	0.000322
268.6205	0.001230
268.8295	-0.000734
269.0385	0.001103
269.2476	0.001504
269.4566	0.001209
269.6657	0.000596
269.8748	0.000364
270.0839	0.000174
270.2931	-0.000396
270.5022	0.001082
270.7114	0.000702
270.9205	0.000364
271.1297	0.000427
271.3389	0.000723
271.5481	-0.000290
271.7573	0.000491
271.9666	0.001103
272.1758	-0.000501
272.3851	0.000976
272.5944	-0.000100
272.8037	0.000575
273.0130	0.000702
273.2223	-0.000586
273.4316	0.000934
273.6410	-0.000375
273.8504	-0.001092
274.0597	-0.000438
274.2691	0.001314
274.4785	0.000047
274.6880	0.000955
274.8974	0.001356
275.1069	0.000195
275.3163	0.001842
275.5258	-0.000079
275.7353	0.000259
275.9448	0.000069
276.1543	0.000132
276.3639	0.001314
276.5734	0.000554
276.7830	-0.000227
276.9926	0.000997
277.2022	-0.000227
277.4118	0.001082
277.6214	0.001377
277.8310	0.000554
278.0407	0.001103
278.2503	0.000786
278.4600	-0.000142
278.6697	0.000554
278.8794	0.000829
279.0891	0.001082
279.2989	-0.000459
279.5086	0.000765
279.7184	-0.000248
279.9281	0.000301
280.1379	0.000702
280.3477	0.000343
280.5576	0.001061
280.7674	-0.000185
280.9772	0.000385
281.1871	0.001145
281.3970	0.001019
281.6069	0.000512
281.8168	0.000111
282.0267	-0.000100
282.2366	0.001209
282.4466	0.000913
282.6565	0.002032
282.8665	-0.000607
283.0765	-0.000649
283.2865	0.000702
283.4965	0.001736
283.7065	0.000026
283.9166	0.001567
284.1266	0.000554
284.3367	-0.000734
284.5468	-0.000459
284.7569	0.000702
284.9670	-0.000459
285.1771	-0.000459
285.3873	0.000322
285.5974	0.000744
285.8076	0.000660
286.0178	0.000807
286.2280	0.000090
286.4382	0.000047
286.6484	0.000153
286.8587	-0.000185
287.0689	0.000237
287.2792	0.000892
287.4895	0.000427
287.6998	0.000491
287.9101	-0.000185
288.1204	0.000554
288.3308	0.001061
288.5411	0.000216
288.7515	-0.000354
288.9619	0.000090
289.1723	0.000617
289.3827	0.000259
289.5931	-0.000164
289.8035	-0.000142
290.0140	-0.000417
290.2245	0.000871
290.4349	-0.000079
290.6454	0.000026
290.8559	0.000111
291.0665	0.000744
291.2770	0.000850
291.4875	-0.000016
291.6981	-0.001029
291.9087	0.000153
292.1193	0.000660
292.3299	0.000343
292.5405	0.000765
292.7511	0.000976
292.9618	0.000660
293.1724	0.000491
293.3831	0.000259
293.5938	0.000892
293.8045	0.001441
294.0152	0.001441
294.2260	0.000723
294.4367	0.000829
294.6475	0.000427
294.8582	-0.000501
295.0690	0.000765
295.2798	-0.000142
295.4906	0.000195
295.7015	0.000829
295.9123	-0.000691
296.1232	-0.000459
296.3340	0.000301
296.5449	0.000449
296.7558	0.000871
296.9667	-0.000818
297.1777	-0.000185
297.3886	0.001842
297.5995	0.001187
297.8105	0.000660
298.0215	-0.001198
298.2325	0.000427
298.4435	-0.000227
298.6545	0.000892
298.8656	0.000512
299.0766	0.001187
299.2877	0.000343
299.4988	0.001209
299.7099	0.000406
299.9210	-0.001050
300.1321	-0.001071
300.3432	0.000554
300.5544	0.000301
300.7655	0.000575
300.9767	0.000533
301.1879	0.000322
301.3991	-0.000269
301.6103	0.000702
301.8215	0.000660
302.0328	0.001483
302.2441	0.001314
302.4553	0.000174
302.6666	-0.000100
302.8779	0.000322
303.0892	0.001462
303.3006	0.000575
303.5119	0.000702
303.7233	0.001293
303.9346	-0.000628
304.1460	0.000259
304.3574	0.002137
304.5688	0.000280
304.7803	0.000047
304.9917	0.000871
305.2031	0.000913
305.4146	0.000976
305.6261	0.000301
305.8376	0.000427
306.0491	0.001019
306.2606	0.000533
306.4722	-0.001451
306.6837	0.001483
306.8953	0.000976
307.1069	-0.001177
307.3184	-0.000396
307.5301	0.000090
307.7417	-0.000459
307.9533	-0.000269
308.1650	-0.000311
308.3766	0.000997
308.5883	0.001082
308.8000	0.001420
309.0117	0.001356
309.2234	-0.000734
309.4351	-0.000501
309.6469	0.000385
309.8586	0.000723
310.0704	0.000385
310.2822	0.000617
310.4940	0.001736
310.7058	0.000723
310.9176	0.001610
311.1295	0.000111
311.3413	0.002011
311.5532	0.001040
311.7651	0.000913
311.9770	0.000174
312.1889	0.000533
312.4008	0.000997
312.6127	0.000047
312.8247	0.001124
313.0366	0.001082
313.2486	0.002349
313.4606	0.000216
313.6726	0.000406
313.8846	0.000744
314.0967	0.000512
314.3087	0.000639
314.5208	0.000026
314.7328	0.001673
314.9449	-0.000987
315.1570	0.000765
315.3692	-0.000544
315.5813	-0.000269
315.7934	0.000744
316.0056	-0.000586
316.2177	0.000786
316.4299	0.000617
316.6421	0.000005
316.8543	-0.000332
317.0666	0.000596
317.2788	-0.000670
317.4911	0.000322
317.7033	0.002137
317.9156	0.001377
318.1279	0.000871
318.3402	0.001800
318.5525	0.000069
318.7649	0.002116
318.9772	0.000491
319.1896	0.001124
319.4019	0.000660
319.6143	0.000280
319.8267	-0.000037
320.0392	0.000660
320.2516	0.000934
320.4640	0.000364
320.6765	0.000850
320.8890	-0.000860
321.1014	0.000617
321.3139	0.000195
321.5265	-0.000586
321.7390	-0.000185
321.9515	0.001019
322.1641	0.000069
322.3766	0.000765
322.5892	-0.000607
322.8018	0.001504
323.0144	-0.000290
323.2270	0.001040
323.4397	0.000153
323.6523	0.000639
323.8650	-0.000079
324.0777	0.001631
324.2904	0.000322
324.5031	-0.000058
324.7158	0.000449
324.9285	0.000723
325.1412	-0.000881
325.3540	-0.000016
325.5668	-0.000354
325.7796	0.000449
325.9924	0.000406
326.2052	0.001166
326.4180	0.000829
326.6308	0.000744
326.8437	0.000723
327.0566	-0.000375
327.2694	0.000934
327.4823	0.000385
327.6952	0.001377
327.9082	0.000639
328.1211	0.000132
328.3340	0.001187
328.5470	0.000195
328.7600	-0.000628
328.9730	0.000111
329.1860	0.001483
329.3990	0.000913
329.6120	0.000702
329.8251	-0.000354
330.0381	0.000069
330.2512	-0.000396
330.4643	0.002053
330.6774	0.000174
330.8905	0.000153
331.1036	-0.000607
331.3167	0.000596
331.5299	-0.000037
331.7431	0.000301
331.9562	-0.000776
332.1694	0.000216
332.3826	-0.000712
332.5959	0.000976
332.8091	-0.000354
333.0223	0.001631
333.2356	0.001652
333.4489	0.000744
333.6622	0.000216
333.8755	0.000829
334.0888	-0.000100
334.3021	0.000237
334.5154	-0.000417
334.7288	0.000829
334.9422	0.000153
335.1555	0.000723
335.3689	0.000385
335.5823	0.000259
335.7958	0.000322
336.0092	0.000829
336.2227	0.000702
336.4361	0.000976
336.6496	0.001504
336.8631	0.002327
337.0766	0.000449
337.2901	0.002180
337.5036	0.000237
337.7172	0.000237
337.9307	0.001209
338.1443	0.002454
338.3579	-0.000058
338.5715	0.001821
338.7851	0.000280
338.9987	0.000554
339.2124	0.001441
339.4260	-0.000480
339.6397	0.001019
339.8533	0.000427
340.0670	0.000596
340.2807	0.001335
340.4945	-0.000544
340.7082	-0.000058
340.9219	0.000512
341.1357	-0.000227
341.3495	0.001209
341.5633	0.000892
341.7771	0.001061
341.9909	-0.000100
342.2047	0.000216
342.4185	0.001673
342.6324	-0.000269
342.8463	0.000406
343.0601	0.002264
343.2740	0.000871
343.4879	0.000892
343.7019	0.000892
343.9158	0.000449
344.1297	-0.000248
344.3437	0.000575
344.5577	0.000470
344.7717	-0.000396
344.9857	0.001483
345.1997	-0.000945
345.4137	0.001040
345.6277	-0.000311
345.8418	0.000575
346.0559	0.000280
346.2699	0.001567
346.4840	0.000639
346.6981	0.000955
346.9123	-0.000860
347.1264	0.001800
347.3406	0.000639
347.5547	0.001251
347.7689	0.001082
347.9831	0.001040
348.1973	0.000829
348.4115	0.000005
348.6257	0.001166
348.8400	-0.001684
349.0542	-0.000164
349.2685	0.000090
349.4828	0.000174
349.6971	0.001441
349.9114	-0.000058
350.1257	-0.000206
350.3400	-0.000016
350.5544	0.000343
350.7687	0.000259
350.9831	0.001462
351.1975	0.000111
351.4119	0.002095
351.6263	0.000259
351.8407	0.000153
352.0552	0.000786
352.2696	0.000617
352.4841	-0.000058
352.6986	0.001821
352.9131	0.000997
353.1276	0.000997
353.3421	-0.000480
353.5566	0.001483
353.7712	-0.000100
353.9858	0.000723
354.2003	0.001209
354.4149	0.000195
354.6295	-0.000544
354.8441	-0.000670
355.0588	-0.000396
355.2734	-0.000438
355.4881	-0.000185
355.7027	0.001715
355.9174	0.000174
356.1321	-0.000058
356.3468	0.000997
356.5615	-0.000185
356.7763	0.000639
356.9910	0.000786
357.2058	0.001842
357.4206	0.000829
357.6353	0.000132
357.8501	0.000955
358.0650	0.001019
358.2798	0.001356
358.4946	0.000301
358.7095	0.000406
358.9243	0.000259
359.1392	0.000807
359.3541	0.000617
359.5690	0.000406
359.7839	0.001399
359.9989	0.000406
360.2138	0.001209
360.4288	0.001251
360.6438	-0.000691
360.8587	0.000723
361.0737	-0.000332
361.2888	0.002327
361.5038	-0.000290
361.7188	0.002222
361.9339	0.000132
362.1489	0.001251
362.3640	0.000533
362.5791	0.001715
362.7942	-0.000565
363.0093	0.000069
363.2245	0.001779
363.4396	0.000976
363.6548	0.000153
363.8699	0.001103
364.0851	0.000259
364.3003	0.000512
364.5155	0.000280
364.7308	0.000575
364.9460	0.000385
365.1612	0.000533
365.3765	-0.000354
365.5918	0.000385
365.8071	0.000723
366.0224	0.002686
366.2377	0.000364
366.4530	-0.000248
366.6684	-0.000396
366.8837	0.000364
367.0991	-0.000227
367.3145	0.001905
367.5299	0.000427
367.7453	0.000892
367.9607	0.000385
368.1761	0.000617
368.3916	-0.001008
368.6070	-0.000628
368.8225	0.000026
369.0380	0.001504
369.2535	-0.000185
369.4690	0.000174
369.6845	0.000427
369.9001	0.000047
370.1156	0.000786
370.3312	-0.000691
370.5468	0.000512
370.7624	0.000976
370.9780	0.000069
371.1936	0.000026
371.4092	-0.000480
371.6249	0.002391
371.8405	0.000575
372.0562	0.000660
372.2719	0.000660
372.4876	0.001947
372.7033	0.000829
372.9190	0.001779
373.1348	0.000955
373.3505	0.000301
373.5663	-0.000375
373.7820	0.000069
373.9978	0.000512
374.2136	0.000111
374.4294	-0.000121
374.6453	0.001969
374.8611	0.000111
375.0770	0.000449
375.2928	-0.000776
375.5087	0.000681
375.7246	0.000427
375.9405	-0.000142
376.1564	0.000850
376.3724	0.001736
376.5883	0.000195
376.8043	-0.000164
377.0203	0.000554
377.2362	0.001019
377.4522	-0.000079
377.6682	0.000934
377.8843	0.000385
378.1003	0.001462
378.3164	0.000153
378.5324	0.000385
378.7485	0.002222
378.9646	-0.000037
379.1807	-0.000248
379.3968	0.000617
379.6129	-0.000142
379.8291	0.000153
380.0452	0.000047
380.2614	0.001779
380.4776	0.000575
380.6938	-0.000311
380.9100	0.000934
381.1262	0.001103
381.3424	-0.000354
381.5587	0.001905
381.7749	-0.000164
381.9912	0.000997
382.2075	0.000976
382.4238	-0.000396
382.6401	0.001082
382.8564	0.001166
383.0728	-0.000164
383.2891	0.000976
383.5055	-0.000501
383.7219	-0.000058
383.9382	-0.000311
384.1546	0.001800
384.3711	0.000280
384.5875	0.001905
384.8039	0.000406
385.0204	0.001209
385.2368	0.001293
385.4533	0.002349
385.6698	0.000934
385.8863	0.000723
386.1028	0.001103
386.3194	0.001525
386.5359	0.000427
386.7525	0.000681
386.9690	0.001082
387.1856	0.000829
387.4022	0.000723
387.6188	0.000364
387.8355	0.001462
388.0521	0.000765
388.2687	0.000301
388.4854	0.000997
388.7021	0.001779
388.9188	0.001546
389.1355	0.002454
389.3522	0.000427
389.5689	0.001589
389.7856	-0.000375
390.0024	-0.000121
390.2192	0.002433
390.4359	0.000216
390.6527	0.001124
390.8695	0.000976
391.0863	0.000934
391.3032	0.001631
391.5200	0.000512
391.7369	0.000955
391.9537	0.002053
392.1706	0.001990
392.3875	0.001209
392.6044	0.001567
392.8213	0.003467
393.0383	0.000069
393.2552	0.002665
393.4722	0.001314
393.6891	0.001884
393.9061	0.003678
394.1231	0.002855
394.3401	0.001863
394.5572	0.001757
394.7742	0.003108
394.9912	0.002686
395.2083	0.002011
395.4254	0.002137
395.6425	0.001863
395.8596	0.002940
396.0767	0.003066
396.2938	0.003847
396.5109	0.003151
396.7281	0.003847
396.9453	0.003932
397.1624	0.003320
397.3796	0.004333
397.5968	0.005177
397.8140	0.003847
398.0313	0.005600
398.2485	0.004016
398.4658	0.004143
398.6830	0.004080
398.9003	0.004122
399.1176	0.004671
399.3349	0.003742
399.5522	0.004607
399.7696	0.007858
399.9869	0.005578
400.2043	0.005621
400.4216	0.004227
400.6390	0.005177
400.8564	0.006001
401.0738	0.005177
401.2912	0.006296
401.5087	0.005051
401.7261	0.005367
401.9436	0.006022
402.1610	0.004903
402.3785	0.006022
402.5960	0.006127
402.8135	0.007119
403.0310	0.006212
403.2486	0.006824
403.4661	0.007436
403.6837	0.006972
403.9013	0.006169
404.1189	0.006338
404.3365	0.006423
404.5541	0.007098
404.7717	0.007309
404.9893	0.007795
405.2070	0.007647
405.4246	0.008428
405.6423	0.008703
405.8600	0.008956
406.0777	0.008555
406.2954	0.008787
406.5131	0.006951
406.7309	0.008660
406.9486	0.008091
407.1664	0.008639
407.3842	0.009716
407.6020	0.008344
407.8198	0.008196
408.0376	0.010814
408.2554	0.008724
408.4733	0.009653
408.6911	0.009273
408.9090	0.009990
409.1269	0.010856
409.3448	0.008808
409.5627	0.010518
409.7806	0.008449
409.9985	0.010455
410.2165	0.008555
410.4344	0.011743
410.6524	0.011130
410.8704	0.009990
411.0884	0.009040
411.3064	0.010835
411.5244	0.011278
411.7424	0.011004
411.9605	0.011320
412.1785	0.011700
412.3966	0.012397
412.6147	0.012017
412.8328	0.012038
413.0509	0.011764
413.2690	0.012545
413.4871	0.011911
413.7053	0.011954
413.9234	0.012967
414.1416	0.013178
414.3598	0.011700
414.5780	0.012883
414.7962	0.011806
415.0144	0.012988
415.2326	0.012861
415.4509	0.012524
415.6692	0.011299
415.8874	0.013136
416.1057	0.013495
416.3240	0.012587
416.5423	0.013917
416.7606	0.013305
416.9790	0.014782
417.1973	0.012439
417.4157	0.013959
417.6341	0.015775
417.8524	0.014508
418.0708	0.012988
418.2893	0.015057
418.5077	0.014930
418.7261	0.013537
418.9446	0.013811
419.1630	0.016809
419.3815	0.015479
419.6000	0.015226
419.8185	0.015711
420.0370	0.013833
420.2555	0.015817
420.4741	0.015901
420.6926	0.017463
420.9112	0.017506
421.1298	0.018477
421.3483	0.018603
421.5669	0.018688
421.7856	0.020292
422.0042	0.020144
422.2228	0.021348
422.4415	0.019765
422.6601	0.019342
422.8788	0.018392
423.0975	0.019849
423.3162	0.018582
423.5349	0.018793
423.7536	0.019638
423.9724	0.019005
424.1911	0.019047
424.4099	0.017527
424.6287	0.017041
424.8475	0.020588
425.0663	0.018540
425.2851	0.020799
425.5039	0.021327
425.7228	0.018181
425.9416	0.018625
426.1605	0.018540
426.3793	0.016619
426.5982	0.019743
426.8171	0.018350
427.0361	0.019321
427.2550	0.019131
427.4739	0.020546
427.6929	0.018836
427.9118	0.018561
428.1308	0.018878
428.3498	0.018941
428.5688	0.019152
428.7878	0.018329
429.0068	0.018941
429.2259	0.021327
429.4449	0.022087
429.6640	0.023417
429.8831	0.022530
430.1022	0.023079
430.3213	0.023121
430.5404	0.025190
430.7595	0.021939
430.9787	0.021770
431.1978	0.023522
431.4170	0.021939
431.6362	0.019786
431.8553	0.020714
432.0745	0.020862
432.2938	0.020123
432.5130	0.017843
432.7322	0.021369
432.9515	0.018857
433.1707	0.019026
433.3900	0.019089
433.6093	0.021707
433.8286	0.022593
434.0479	0.023860
434.2673	0.022277
434.4866	0.021474
434.7059	0.020250
434.9253	0.023775
435.1447	0.021580
435.3641	0.021200
435.5835	0.021580
435.8029	0.020187
436.0223	0.019807
436.2418	0.022593
436.4612	0.022593
436.6807	0.022361
436.9001	0.022488
437.1196	0.021770
437.3391	0.019406
437.5586	0.021939
437.7782	0.021939
437.9977	0.023881
438.2173	0.023058
438.4368	0.021749
438.6564	0.020989
438.8760	0.021137
439.0956	0.022340
439.3152	0.022424
439.5348	0.021432
439.7545	0.022234
439.9741	0.022192
440.1938	0.022171
440.4135	0.023016
440.6331	0.021474
440.8528	0.022424
441.0725	0.022467
441.2923	0.024915
441.5120	0.027238
441.7318	0.025295
441.9515	0.027322
442.1713	0.024915
442.3911	0.028209
442.6109	0.024789
442.8307	0.026562
443.0505	0.024008
443.2703	0.023079
443.4902	0.027596
443.7101	0.025718
443.9299	0.026583
444.1498	0.027681
444.3697	0.024704
444.5896	0.024747
444.8095	0.024894
445.0295	0.023227
445.2494	0.023121
445.4694	0.023797
445.6894	0.025697
445.9093	0.023944
446.1293	0.023522
446.3493	0.024303
446.5694	0.022931
446.7894	0.024810
447.0094	0.023818
447.2295	0.025000
447.4496	0.025485
447.6696	0.022931
447.8897	0.023923
448.1098	0.023501
448.3300	0.021960
448.5501	0.022108
448.7702	0.021580
448.9904	0.022847
449.2106	0.021327
449.4307	0.021770
449.6509	0.022994
449.8711	0.023374
450.0914	0.023290
450.3116	0.022868
450.5318	0.022108
450.7521	0.023797
450.9724	0.020714
451.1926	0.021453
451.4129	0.018793
451.6332	0.020292
451.8535	0.020757
452.0739	0.021327
452.2942	0.019912
452.5146	0.020018
452.7349	0.019511
452.9553	0.019786
453.1757	0.018667
453.3961	0.019701
453.6165	0.019300
453.8369	0.019870
454.0574	0.017822
454.2778	0.018878
454.4983	0.018477
454.7188	0.018266
454.9393	0.017337
455.1597	0.017970
455.3803	0.018772
455.6008	0.018962
455.8213	0.019089
456.0419	0.018857
456.2624	0.018772
456.4830	0.017949
456.7036	0.016915
456.9242	0.017210
457.1448	0.016682
457.3654	0.018245
457.5860	0.018625
457.8067	0.019342
458.0274	0.016999
458.2480	0.017506
458.4687	0.017295
458.6894	0.019427
458.9101	0.017696
459.1308	0.016872
459.3516	0.017210
459.5723	0.017041
459.7931	0.020018
460.0138	0.018941
460.2346	0.016155
460.4554	0.016894
460.6762	0.015521
460.8970	0.017590
461.1178	0.015521
461.3387	0.017105
461.5595	0.015564
461.7804	0.016788
462.0013	0.014191
462.2222	0.014740
462.4431	0.014550
462.6640	0.015162
462.8849	0.014107
463.1059	0.013727
463.3268	0.014888
463.5478	0.015015
463.7687	0.015817
463.9897	0.014867
464.2107	0.014994
464.4317	0.013833
464.6528	0.015732
464.8738	0.015775
465.0948	0.014698
465.3159	0.014909
465.5370	0.017675
465.7581	0.017780
465.9792	0.015521
466.2003	0.014065
466.4214	0.015374
466.6425	0.013073
466.8637	0.013030
467.0848	0.012650
467.3060	0.013326
467.5272	0.012291
467.7484	0.011363
467.9696	0.014909
468.1908	0.011405
468.4120	0.010370
468.6333	0.012123
468.8545	0.011616
469.0758	0.010180
469.2970	0.012334
469.5183	0.010708
469.7396	0.008872
469.9610	0.010772
470.1823	0.008977
470.4036	0.011025
470.6250	0.007795
470.8463	0.008492
471.0677	0.006866
471.2891	0.010750
471.5105	0.008217
471.7319	0.009167
471.9533	0.009399
472.1748	0.008872
472.3962	0.008872
472.6177	0.007014
472.8391	0.009800
473.0606	0.009990
473.2821	0.009632
473.5036	0.009442
473.7251	0.010349
473.9467	0.009737
474.1682	0.008217
474.3898	0.008829
474.6113	0.009526
474.8329	0.009442
475.0545	0.009568
475.2761	0.009484
475.4977	0.007732
475.7193	0.008259
475.9410	0.008682
476.1626	0.009674
476.3843	0.008829
476.6060	0.008703
476.8277	0.008048
477.0494	0.006803
477.2711	0.008302
477.4928	0.007077
477.7145	0.007689
477.9363	0.007837
478.1580	0.007162
478.3798	0.007478
478.6016	0.007162
478.8234	0.007331
479.0452	0.006887
479.2670	0.006338
479.4888	0.006528
479.7107	0.007098
479.9325	0.007204
480.1544	0.007267
480.3763	0.007309
480.5982	0.008112
480.8201	0.006739
481.0420	0.008323
481.2639	0.007394
481.4859	0.006212
481.7078	0.005789
481.9298	0.006824
482.1517	0.007119
482.3737	0.006191
482.5957	0.006444
482.8177	0.006233
483.0398	0.006148
483.2618	0.007668
483.4838	0.005811
483.7059	0.006929
483.9280	0.005198
484.1501	0.007647
484.3721	0.005410
484.5943	0.007309
484.8164	0.007098
485.0385	0.006592
485.2606	0.008112
485.4828	0.008006
485.7050	0.011637
485.9271	0.017675
486.1493	0.018836
486.3715	0.016640
486.5937	0.014339
486.8160	0.011173
487.0382	0.010750
487.2605	0.008893
487.4827	0.008893
487.7050	0.006233
487.9273	0.007394
488.1496	0.005283
488.3719	0.005410
488.5942	0.005958
488.8165	0.006064
489.0389	0.006169
489.2612	0.005642
489.4836	0.004713
489.7060	0.006254
489.9284	0.005008
490.1508	0.005431
490.3732	0.005684
490.5956	0.005874
490.8180	0.004291
491.0405	0.007521
491.2630	0.005410
491.4854	0.004438
491.7079	0.004966
491.9304	0.005853
492.1529	0.004966
492.3755	0.003974
492.5980	0.004080
492.8205	0.005811
493.0431	0.005135
493.2657	0.003573
493.4882	0.005726
493.7108	0.004270
493.9334	0.003320
494.1561	0.003320
494.3787	0.004797
494.6013	0.003531
494.8240	0.003742
495.0466	0.003742
495.2693	0.003974
495.4920	0.003214
495.7147	0.005072
495.9374	0.003615
496.1601	0.004080
496.3829	0.003594
496.6056	0.004840
496.8284	0.003130
497.0511	0.004417
497.2739	0.004016
497.4967	0.002771
497.7195	0.004227
497.9423	0.003657
498.1652	0.003826
498.3880	0.004227
498.6109	0.004333
498.8337	0.004966
499.0566	0.004481
499.2795	0.004101
499.5024	0.004101
499.7253	0.005304
499.9482	0.003742
500.1712	0.003911
500.3941	0.003256
500.6171	0.002876
500.8400	0.002918
501.0630	0.003172
501.2860	0.003868
501.5090	0.004291
501.7320	0.004333
501.9551	0.003256
502.1781	0.003277
502.4012	0.003826
502.6242	0.003320
502.8473	0.004101
503.0704	0.002982
503.2935	0.003488
503.5166	0.004586
503.7397	0.004586
503.9628	0.003847
504.1860	0.004438
504.4092	0.003446
504.6323	0.003932
504.8555	0.002053
505.0787	0.002834
505.3019	0.003256
505.5251	0.004291
505.7483	0.002982
505.9716	0.003784
506.1948	0.003531
506.4181	0.004333
506.6414	0.003742
506.8647	0.002771
507.0880	0.002095
507.3113	0.002897
507.5346	0.002855
507.7579	0.003425
507.9813	0.003615
508.2046	0.003890
508.4280	0.004270
508.6514	0.002918
508.8748	0.002222
509.0982	0.004058
509.3216	0.003657
509.5450	0.004270
509.7685	0.003003
509.9919	0.004206
510.2154	0.002180
510.4388	0.002729
510.6623	0.003467
510.8858	0.003362
511.1093	0.002412
511.3329	0.002454
511.5564	0.002391
511.7799	0.003531
512.0035	0.004945
512.2270	0.003953
512.4506	0.002517
512.6742	0.003868
512.8978	0.003594
513.1214	0.003277
513.3451	0.002137
513.5687	0.002750
513.7923	0.002032
514.0160	0.002982
514.2397	0.001905
514.4634	0.003615
514.6871	0.001652
514.9108	0.003531
515.1345	0.002327
515.3582	0.003108
515.5819	0.001567
515.8057	0.003024
516.0295	0.003531
516.2532	0.004396
516.4770	0.003320
516.7008	0.003510
516.9246	0.003911
517.1485	0.003087
517.3723	0.003277
517.5961	0.003763
517.8200	0.001715
518.0439	0.003108
518.2677	0.002918
518.4916	0.003763
518.7155	0.002686
518.9395	0.002665
519.1634	0.003742
519.3873	0.004544
519.6113	0.002876
519.8352	0.003003
520.0592	0.004671
520.2832	0.003805
520.5072	0.003657
520.7312	0.002053
520.9552	0.002918
521.1792	0.002370
521.4033	0.005177
521.6273	0.004248
521.8514	0.003024
522.0755	0.005135
522.2996	0.003573
522.5237	0.003890
522.7478	0.002412
522.9719	0.003130
523.1960	0.004987
523.4202	0.003953
523.6443	0.003594
523.8685	0.003066
524.0927	0.004227
524.3169	0.003995
524.5411	0.004122
524.7653	0.001969
524.9895	0.004143
525.2138	0.003488
525.4380	0.004037
525.6623	0.004586
525.8865	0.004227
526.1108	0.004016
526.3351	0.004544
526.5594	0.004016
526.7837	0.005431
527.0081	0.005557
527.2324	0.004734
527.4568	0.004122
527.6811	0.004650
527.9055	0.003657
528.1299	0.005325
528.3543	0.003320
528.5787	0.004882
528.8031	0.004755
529.0276	0.005473
529.2520	0.004818
529.4765	0.004523
529.7009	0.004776
529.9254	0.004776
530.1499	0.004840
530.3744	0.006254
530.5989	0.005515
530.8234	0.005916
531.0480	0.004692
531.2725	0.005156
531.4971	0.005198
531.7217	0.006022
531.9462	0.005979
532.1708	0.005072
532.3954	0.005747
532.6200	0.005177
532.8447	0.006444
533.0693	0.004776
533.2940	0.006592
533.5186	0.008660
533.7433	0.007225
533.9680	0.006064
534.1927	0.006528
534.4174	0.006275
534.6421	0.008660
534.8668	0.007225
535.0916	0.007246
535.3163	0.007711
535.5411	0.008724
535.7659	0.008302
535.9907	0.008998
536.2155	0.006634
536.4403	0.007711
536.6651	0.008217
536.8899	0.006444
537.1148	0.009800
537.3396	0.006866
537.5645	0.008006
537.7894	0.007563
538.0143	0.009632
538.2392	0.008660
538.4641	0.009547
538.6890	0.008998
538.9139	0.012587
539.1389	0.009716
539.3638	0.011342
539.5888	0.009104
539.8138	0.009737
540.0388	0.011067
540.2638	0.010349
540.4888	0.009104
540.7138	0.012038
540.9389	0.009948
541.1639	0.009589
541.3890	0.010413
541.6140	0.011743
541.8391	0.011975
542.0642	0.012777
542.2893	0.011489
542.5144	0.012270
542.7396	0.011426
542.9647	0.013643
543.1899	0.011447
543.4150	0.014424
543.6402	0.012313
543.8654	0.012566
544.0906	0.014804
544.3158	0.015732
544.5410	0.014782
544.7662	0.013811
544.9915	0.015606
545.2167	0.014635
545.4420	0.014571
545.6673	0.015416
545.8926	0.013136
546.1179	0.015479
546.3432	0.014487
546.5685	0.014508
546.7938	0.016324
547.0192	0.016556
547.2445	0.014234
547.4699	0.015922
547.6953	0.016957
547.9206	0.017949
548.1460	0.017928
548.3715	0.017717
548.5969	0.018962
548.8223	0.018118
549.0478	0.019173
549.2732	0.018962
549.4987	0.018392
549.7242	0.017653
549.9496	0.018857
550.1751	0.018118
550.4007	0.019701
550.6262	0.017189
550.8517	0.017463
551.0773	0.018540
551.3028	0.016598
551.5284	0.016788
551.7540	0.016704
551.9796	0.020968
552.2052	0.020736
552.4308	0.022277
552.6564	0.022657
552.8820	0.021812
553.1077	0.021179
553.3333	0.022403
553.5590	0.021876
553.7847	0.025507
554.0104	0.022889
554.2361	0.022804
554.4618	0.019385
554.6875	0.023100
554.9132	0.022593
555.1390	0.022488
555.3648	0.023987
555.5905	0.023691
555.8163	0.024704
556.0421	0.023733
556.2679	0.026140
556.4937	0.025211
556.7195	0.026478
556.9454	0.025190
557.1712	0.025654
557.3971	0.025443
557.6230	0.025232
557.8488	0.025612
558.0747	0.024240
558.3006	0.028230
558.5266	0.025401
558.7525	0.023754
558.9784	0.024641
559.2044	0.026351
559.4303	0.023987
559.6563	0.025464
559.8823	0.025971
560.1083	0.028441
560.3343	0.029412
560.5603	0.030087
560.7863	0.030700
561.0124	0.034922
561.2384	0.033106
561.4645	0.033254
561.6905	0.034183
561.9166	0.033106
562.1427	0.033655
562.3688	0.033908
562.5949	0.032980
562.8211	0.032642
563.0472	0.033507
563.2733	0.032811
563.4995	0.033191
563.7257	0.035302
563.9519	0.035471
564.1781	0.035639
564.4043	0.036969
564.6305	0.039313
564.8567	0.037455
565.0829	0.036611
565.3092	0.040073
565.5355	0.038869
565.7617	0.039123
565.9880	0.038954
566.2143	0.040664
566.4406	0.040727
566.6669	0.039629
566.8932	0.041445
567.1196	0.042205
567.3459	0.048221
567.5723	0.052127
567.7987	0.051029
568.0250	0.053182
568.2514	0.053583
568.4778	0.059325
568.7043	0.062998
568.9307	0.064159
569.1571	0.069057
569.3836	0.073469
569.6100	0.084362
569.8365	0.089450
570.0630	0.094558
570.2895	0.099773
570.5160	0.098527
570.7425	0.100849
570.9690	0.110095
571.1956	0.115204
571.4221	0.118856
571.6487	0.122002
571.8752	0.128694
572.1018	0.134182
572.3284	0.133992
572.5550	0.123374
572.7816	0.115521
573.0082	0.112565
573.2349	0.120060
573.4615	0.131860
573.6882	0.142690
573.9149	0.147144
574.1415	0.154469
574.3682	0.157530
574.5949	0.164243
574.8216	0.164961
575.0484	0.169922
575.2751	0.168740
575.5018	0.166333
575.7286	0.162449
575.9554	0.153667
576.1821	0.152759
576.4089	0.154153
576.6357	0.165510
576.8626	0.172181
577.0894	0.176340
577.3162	0.176867
577.5431	0.188584
577.7699	0.210200
577.9968	0.238087
578.2237	0.233147
578.4505	0.222149
578.6774	0.204923
578.9044	0.197534
579.1313	0.184383
579.3582	0.186240
579.5851	0.192827
579.8121	0.200680
580.0391	0.201925
580.2660	0.204543
580.4930	0.200004
580.7200	0.196605
580.9470	0.196204
581.1741	0.231437
581.4011	0.279273
581.6281	0.308743
581.8552	0.310327
582.0822	0.303867
582.3093	0.293312
582.5364	0.275262
582.7635	0.252780
582.9906	0.231817
583.2177	0.218159
583.4449	0.204290
583.6720	0.190631
583.8991	0.186557
584.1263	0.186768
584.3535	0.191771
584.5807	0.197260
584.8079	0.200996
585.0351	0.216491
585.2623	0.224619
585.4895	0.230804
585.7167	0.223458
585.9440	0.220397
586.1713	0.205704
586.3985	0.198125
586.6258	0.190610
586.8531	0.195423
587.0804	0.205155
587.3077	0.213367
587.5350	0.221347
587.7624	0.222824
587.9897	0.215119
588.2171	0.198083
588.4445	0.196584
588.6718	0.188795
588.8992	0.181406
589.1266	0.171484
589.3540	0.163483
589.5815	0.160465
589.8089	0.159114
590.0363	0.157784
590.2638	0.150838
590.4913	0.146975
590.7187	0.144315
590.9462	0.134942
591.1737	0.127997
591.4012	0.129834
591.6288	0.128630
591.8563	0.129285
592.0838	0.129918
592.3114	0.130319
592.5389	0.146279
592.7665	0.174925
592.9941	0.190526
593.2217	0.197914
593.4493	0.199962
593.6769	0.191075
593.9046	0.188014
594.1322	0.182229
594.3598	0.173004
594.5875	0.167051
594.8152	0.175115
595.0429	0.188077
595.2705	0.196352
595.4983	0.190737
595.7260	0.180731
595.9537	0.170788
596.1814	0.159219
596.4092	0.151049
596.6369	0.142056
596.8647	0.141634
597.0925	0.141634
597.3203	0.147651
597.5481	0.147777
597.7759	0.146722
598.0037	0.142626
598.2315	0.135977
598.4594	0.140030
598.6872	0.151007
598.9151	0.167917
599.1430	0.181258
599.3709	0.180921
599.5988	0.172139
599.8267	0.175960
600.0546	0.180203
600.2825	0.180182
600.5105	0.180118
600.7384	0.178957
600.9664	0.180942
601.1944	0.182863
601.4223	0.179633
601.6503	0.172244
601.8783	0.163040
602.1064	0.160190
602.3344	0.164201
602.5624	0.161098
602.7905	0.169669
603.0185	0.170788
603.2466	0.177670
603.4747	0.186029
603.7028	0.182968
603.9309	0.180752
604.1590	0.170513
604.3871	0.164623
604.6152	0.157720
604.8434	0.157573
605.0715	0.152189
605.2997	0.151535
605.5279	0.159979
605.7561	0.169880
605.9843	0.168233
606.2125	0.170344
606.4407	0.164117
606.6689	0.155461
606.8972	0.154934
607.1254	0.153604
607.3537	0.155820
607.5819	0.156897
607.8102	0.156031
608.0385	0.151028
608.2668	0.148580
608.4951	0.146447
608.7235	0.145054
608.9518	0.139523
609.1801	0.135808
609.4085	0.130298
609.6369	0.128757
609.8653	0.138257
610.0936	0.145117
610.3220	0.150859
610.5505	0.145434
610.7789	0.138784
611.0073	0.137982
611.2357	0.136863
611.4642	0.136737
611.6927	0.135808
611.9211	0.135407
612.1496	0.130087
612.3781	0.132050
612.6066	0.127638
612.8351	0.128588
613.0637	0.131121
613.2922	0.125949
613.5208	0.123501
613.7493	0.125042
613.9779	0.126709
614.2065	0.124873
614.4351	0.124429
614.6637	0.124260
614.8923	0.125949
615.1209	0.125084
615.3495	0.129010
615.5782	0.132050
615.8068	0.128630
616.0355	0.122994
616.2642	0.117062
616.4929	0.111088
616.7216	0.111573
616.9503	0.107098
617.1790	0.108407
617.4077	0.109884
617.6365	0.106317
617.8652	0.111151
618.0940	0.111425
618.3227	0.107351
618.5515	0.100934
618.7803	0.096416
619.0091	0.092912
619.2379	0.091054
619.4667	0.090716
619.6956	0.090505
619.9244	0.093313
620.1533	0.095255
620.3821	0.098949
620.6110	0.092299
620.8399	0.089914
621.0688	0.080773
621.2977	0.075897
621.5266	0.073047
621.7556	0.075770
621.9845	0.077818
622.2135	0.081428
622.4424	0.079908
622.6714	0.083433
622.9004	0.086790
623.1294	0.084974
623.3584	0.089027
623.5874	0.091434
623.8164	0.087550
624.0454	0.084890
624.2745	0.087149
624.5035	0.089260
624.7326	0.090020
624.9617	0.089851
625.1908	0.086557
625.4199	0.084383
625.6490	0.082378
625.8781	0.080140
626.1072	0.078641
626.3364	0.078346
626.5655	0.072561
626.7947	0.068804
627.0238	0.068403
627.2530	0.071084
627.4822	0.072730
627.7114	0.071759
627.9406	0.067748
628.1698	0.062745
628.3991	0.064138
628.6283	0.057151
628.8576	0.060360
629.0868	0.060824
629.3161	0.062534
629.5454	0.062323
629.7747	0.062618
630.0040	0.060275
630.2333	0.059473
630.4626	0.058734
630.6920	0.055589
630.9213	0.055420
631.1507	0.054238
631.3801	0.051240
631.6094	0.052000
631.8388	0.054027
632.0682	0.049910
632.2976	0.052042
632.5271	0.048749
632.7565	0.048327
632.9859	0.044316
633.2154	0.045308
633.4448	0.044337
633.6743	0.043936
633.9038	0.044168
634.1333	0.045160
634.3628	0.040706
634.5923	0.043619
634.8218	0.042458
635.0514	0.042247
635.2809	0.041614
635.5105	0.042733
635.7400	0.042986
635.9696	0.044421
636.1992	0.044041
636.4288	0.046976
636.6584	0.043302
636.8880	0.045815
637.1177	0.045688
637.3473	0.042817
637.5770	0.042099
637.8066	0.041698
638.0363	0.042374
638.2660	0.041234
638.4957	0.042585
638.7254	0.043429
638.9551	0.042564
639.1848	0.040389
639.4145	0.041403
639.6443	0.040477
639.8740	0.036512
640.1038	0.037542
640.3336	0.039772
640.5633	0.036926
640.7931	0.035906
641.0229	0.037647
641.2528	0.034871
641.4826	0.033011
641.7124	0.033897
641.9423	0.031193
642.1721	0.030973
642.4020	0.030233
642.6319	0.030873
642.8617	0.029296
643.0916	0.029185
643.3216	0.029869
643.5515	0.030409
643.7814	0.029012
644.0113	0.028611
644.2413	0.028065
644.4712	0.030340
644.7012	0.025116
644.9312	0.027682
645.1612	0.027708
645.3912	0.029189
645.6212	0.027018
645.8512	0.027039
646.0812	0.028200
646.3113	0.025240
646.5413	0.025483
646.7714	0.026074
647.0015	0.024932
647.2316	0.024161
647.4616	0.024732
647.6918	0.026891
647.9219	0.028634
648.1520	0.031166
648.3821	0.030385
648.6123	0.034166
648.8424	0.031739
649.0726	0.033026
649.3028	0.035813
649.5329	0.033649
649.7631	0.030907
649.9933	0.032153
650.2236	0.030622
650.4538	0.029124
650.6840	0.029226
650.9143	0.027247
651.1445	0.028568
651.3748	0.029075
651.6051	0.030383
651.8354	0.030163
652.0657	0.030892
652.2960	0.031992
652.5263	0.032006
652.7566	0.032366
652.9870	0.033529
653.2173	0.030691
653.4477	0.030435
653.6780	0.033692
653.9084	0.032784
654.1388	0.034835
654.3692	0.034696
654.5996	0.035946
654.8300	0.040162
655.0605	0.064137
655.2909	0.191481
655.5213	0.521660
655.7518	0.943112
655.9823	1.000000
656.2128	1.000000
656.4433	1.000000
656.6738	1.000000
656.9043	1.000000
657.1348	0.858273
657.3653	0.712740
657.5959	0.609097
657.8264	0.529239
658.0570	0.480258
658.2875	0.444685
658.5181	0.404937
658.7487	0.375269
658.9793	0.365562
659.2099	0.332857
659.4406	0.257161
659.6712	0.170095
659.9018	0.100811
660.1325	0.062387
660.3632	0.040630
660.5938	0.033318
660.8245	0.028421
661.0552	0.027232
661.2859	0.023637
661.5166	0.023510
661.7474	0.022667
661.9781	0.022342
662.2088	0.022905
662.4396	0.023087
662.6704	0.022555
662.9011	0.022195
663.1319	0.022026
663.3627	0.021350
663.5935	0.022303
663.8243	0.021570
664.0552	0.020843
664.2860	0.021679
664.5168	0.022576
664.7477	0.025323
664.9786	0.022421
665.2094	0.025470
665.4403	0.024510
665.6712	0.025521
665.9021	0.023132
666.1330	0.025352
666.3640	0.021855
666.5949	0.021471
666.8259	0.020745
667.0568	0.022464
667.2878	0.020297
667.5188	0.023858
667.7497	0.021979
667.9807	0.020950
668.2117	0.020506
668.4428	0.019701
668.6738	0.020883
668.9048	0.021327
669.1359	0.019575
669.3669	0.021601
669.5980	0.022424
669.8291	0.022023
670.0602	0.022889
670.2913	0.022847
670.5224	0.023585
670.7535	0.022319
670.9846	0.021432
671.2157	0.025591
671.4469	0.024029
671.6781	0.029053
671.9092	0.032705
672.1404	0.031671
672.3716	0.032895
672.6028	0.036231
672.8340	0.031565
673.0652	0.033170
673.2964	0.029729
673.5277	0.030679
673.7589	0.031544
673.9902	0.029433
674.2214	0.028884
674.4527	0.027216
674.6840	0.028525
674.9153	0.028568
675.1466	0.026076
675.3779	0.026330
675.6093	0.026393
675.8406	0.025232
676.0719	0.025865
676.3033	0.024451
676.5347	0.026309
676.7661	0.023860
676.9974	0.023417
677.2288	0.024873
677.4602	0.026309
677.6917	0.026710
677.9231	0.028926
678.1545	0.029686
678.3860	0.028314
678.6174	0.030615
678.8489	0.030636
679.0804	0.032473
679.3119	0.032283
679.5434	0.035365
679.7749	0.033127
680.0064	0.036231
680.2379	0.034457
680.4694	0.035829
680.7010	0.034436
680.9325	0.032684
681.1641	0.035998
681.3957	0.034795
681.6273	0.034795
681.8589	0.035323
682.0905	0.032072
682.3221	0.032114
682.5537	0.031607
682.7854	0.030277
683.0170	0.030636
683.2487	0.029285
683.4803	0.032494
683.7120	0.032135
683.9437	0.033338
684.1754	0.032367
684.4071	0.036378
684.6388	0.036357
684.8705	0.039165
685.1023	0.041107
685.3340	0.044611
685.5658	0.044105
685.7975	0.046955
686.0293	0.044189
686.2611	0.045794
686.4929	0.045034
686.7247	0.043577
686.9565	0.041001
687.1883	0.043682
687.4202	0.044506
687.6520	0.042817
687.8838	0.042331
688.1157	0.038722
688.3476	0.038532
688.5795	0.037582
688.8114	0.035745
689.0433	0.035745
689.2752	0.038130
689.5071	0.036969
689.7390	0.036083
689.9710	0.034626
690.2029	0.036041
690.4349	0.035766
690.6669	0.034795
690.8988	0.035175
691.1308	0.033254
691.3628	0.040030
691.5948	0.039714
691.8269	0.036991
692.0589	0.037962
692.2909	0.037687
692.5230	0.038785
692.7550	0.039186
692.9871	0.039334
693.2192	0.038954
693.4513	0.041149
693.6834	0.036991
693.9155	0.037814
694.1476	0.035893
694.3797	0.034035
694.6119	0.033212
694.8440	0.034943
695.0762	0.037265
695.3083	0.035829
695.5405	0.033191
695.7727	0.029792
696.0049	0.029560
696.2371	0.029180
696.4693	0.030805
696.7016	0.036801
696.9338	0.040558
697.1660	0.041930
697.3983	0.037835
697.6306	0.038046
697.8628	0.038532
698.0951	0.037983
698.3274	0.038447
698.5597	0.038299
698.7920	0.037624
699.0243	0.038363
699.2567	0.037729
699.4890	0.033803
699.7214	0.036969
699.9537	0.033254
700.1861	0.032346
700.4185	0.031101
700.6509	0.031755
700.8833	0.031206
701.1157	0.029074
701.3481	0.027428
701.5806	0.029264
701.8130	0.029539
702.0454	0.030467
702.2779	0.031671
702.5104	0.030784
702.7429	0.030784
702.9753	0.027955
703.2078	0.029391
703.4403	0.030742
703.6729	0.030552
703.9054	0.029897
704.1379	0.027660
704.3705	0.030193
704.6030	0.027132
704.8356	0.026836
705.0682	0.024198
705.3008	0.024050
705.5334	0.025654
705.7660	0.024155
705.9986	0.025950
706.2312	0.027005
706.4638	0.029454
706.6965	0.033697
706.9291	0.035682
707.1618	0.037181
707.3945	0.037518
707.6272	0.037772
707.8599	0.038996
708.0926	0.036231
708.3253	0.037814
708.5580	0.039566
708.7907	0.036927
709.0235	0.036737
709.2562	0.035449
709.4890	0.032410
709.7217	0.033528
709.9545	0.034098
710.1873	0.032114
710.4201	0.036083
710.6529	0.036336
710.8857	0.035091
711.1186	0.032958
711.3514	0.033338
711.5842	0.031375
711.8171	0.030320
712.0500	0.027364
712.2828	0.028356
712.5157	0.027998
712.7486	0.030425
712.9815	0.029053
713.2144	0.029644
713.4474	0.032262
713.6803	0.033106
713.9132	0.035069
714.1462	0.036969
714.3791	0.036336
714.6121	0.035492
714.8451	0.033528
715.0781	0.034753
715.3111	0.032937
715.5441	0.034056
715.7771	0.033592
716.0102	0.034056
716.2432	0.031692
716.4762	0.030087
716.7093	0.028568
716.9424	0.028779
717.1754	0.029159
717.4085	0.026076
717.6416	0.028546
717.8747	0.029011
718.1078	0.028969
718.3410	0.029243
718.5741	0.030045
718.8072	0.027322
719.0404	0.028420
719.2736	0.029412
719.5067	0.030151
719.7399	0.029391
719.9731	0.027955
720.2063	0.028736
720.4395	0.027512
720.6727	0.029771
720.9060	0.030109
721.1392	0.031037
721.3725	0.030425
721.6057	0.031734
721.8390	0.029264
722.0723	0.029602
722.3055	0.029940
722.5388	0.026879
722.7721	0.026478
723.0055	0.026752
723.2388	0.027364
723.4721	0.027301
723.7055	0.028314
723.9388	0.030932
724.1722	0.026942
724.4056	0.027153
724.6389	0.027998
724.8723	0.025338
725.1057	0.029750
725.3391	0.031270
725.5726	0.030763
725.8060	0.034668
726.0394	0.033001
726.2729	0.033782
726.5063	0.034267
726.7398	0.035238
726.9733	0.030467
727.2068	0.031607
727.4403	0.031375
727.6738	0.033085
727.9073	0.032811
728.1408	0.036019
728.3743	0.035998
728.6079	0.035386
728.8414	0.033972
729.0750	0.034605
729.3086	0.036294
729.5421	0.036104
729.7757	0.036505
730.0093	0.037265
730.2429	0.035829
730.4766	0.036568
730.7102	0.038890
730.9438	0.043788
731.1775	0.044865
731.4111	0.043535
731.6448	0.042479
731.8785	0.044949
732.1122	0.039967
732.3458	0.042015
732.5795	0.042078
732.8133	0.042711
733.0470	0.044632
733.2807	0.043070
733.5145	0.044295
733.7482	0.046300
733.9820	0.047166
734.2157	0.051240
734.4495	0.054533
734.6833	0.050691
734.9171	0.048263
735.1509	0.046743
735.3847	0.047271
735.6185	0.050311
735.8524	0.047377
736.0862	0.048981
736.3201	0.049403
736.5539	0.046807
736.7878	0.048306
737.0217	0.047947
737.2556	0.048749
737.4895	0.047630
737.7234	0.045224
737.9573	0.043492
738.1912	0.041213
738.4252	0.040389
738.6591	0.040980
738.8931	0.043197
739.1271	0.047292
739.3610	0.045899
739.5950	0.045751
739.8290	0.047841
740.0630	0.045055
740.2970	0.042141
740.5310	0.041297
740.7651	0.041297
740.9991	0.040094
741.2332	0.037518
741.4672	0.035576
741.7013	0.035872
741.9354	0.034605
742.1695	0.035407
742.4036	0.035281
742.6377	0.035829
742.8718	0.034246
743.1059	0.031818
743.3400	0.031354
743.5742	0.030277
743.8083	0.032198
744.0425	0.029602
744.2767	0.029792
744.5108	0.030805
744.7450	0.029834
744.9792	0.030256
745.2134	0.028884
745.4477	0.030446
745.6819	0.027681
745.9161	0.027406
746.1504	0.028040
746.3846	0.028441
746.6189	0.029433
746.8532	0.028525
747.0874	0.030763
747.3217	0.033972
747.5560	0.033908
747.7903	0.032156
748.0247	0.030066
748.2590	0.030573
748.4933	0.029264
748.7277	0.029792
748.9620	0.030256
749.1964	0.033444
749.4308	0.033507
749.6652	0.035893
749.8995	0.034605
750.1339	0.039080
750.3684	0.040643
750.6028	0.040326
750.8372	0.039587
751.0717	0.037244
751.3061	0.038722
751.5406	0.039207
751.7750	0.041086
752.0095	0.041909
752.2440	0.039925
752.4785	0.038574
752.7130	0.037624
752.9475	0.035175
753.1820	0.036231
753.4166	0.037877
753.6511	0.041719
753.8856	0.042057
754.1202	0.042395
754.3548	0.041234
754.5894	0.039460
754.8239	0.042331
755.0585	0.040896
755.2931	0.042395
755.5278	0.041529
755.7624	0.043788
755.9970	0.043725
756.2317	0.046511
756.4663	0.047567
756.7010	0.049762
756.9356	0.051219
757.1703	0.051472
757.4050	0.056644
757.6397	0.058840
757.8744	0.058692
758.1091	0.059747
758.3438	0.055863
758.5786	0.054069
758.8133	0.051726
759.0481	0.054491
759.2828	0.056032
759.5176	0.060866
759.7524	0.059557
759.9872	0.058861
760.2220	0.061225
760.4568	0.064075
760.6916	0.062217
760.9264	0.064561
761.1613	0.060507
761.3961	0.060718
761.6310	0.056581
761.8658	0.052443
762.1007	0.052021
762.3356	0.051620
762.5705	0.047567
762.8054	0.049762
763.0403	0.051683
763.2752	0.050691
763.5101	0.051134
763.7450	0.052084
763.9800	0.050818
764.2149	0.053161
764.4499	0.054575
764.6849	0.057468
764.9198	0.060761
765.1548	0.058755
765.3898	0.057425
765.6248	0.052570
765.8599	0.053520
766.0949	0.050100
766.3299	0.047081
766.5650	0.044316
766.8000	0.042965
767.0351	0.041698
767.2701	0.040453
767.5052	0.037835
767.7403	0.040621
767.9754	0.040220
768.2105	0.046532
768.4456	0.043492
768.6808	0.049382
768.9159	0.048686
769.1510	0.048960
769.3862	0.048052
769.6214	0.046258
769.8565	0.044675
770.0917	0.044210
770.3269	0.046912
770.5621	0.045055
770.7973	0.045435
771.0325	0.049087
771.2677	0.050121
771.5030	0.049467
771.7382	0.045941
771.9735	0.042374
772.2087	0.041318
772.4440	0.041086
772.6793	0.041255
772.9146	0.040052
773.1499	0.039925
773.3852	0.038363
773.6205	0.040558
773.8558	0.038236
774.0911	0.035133
774.3265	0.035935
774.5618	0.035133
774.7972	0.032114
775.0326	0.032008
775.2679	0.030172
775.5033	0.029137
775.7387	0.028800
775.9741	0.027533
776.2095	0.027364
776.4450	0.026731
776.6804	0.026858
776.9158	0.025675
777.1513	0.025274
777.3868	0.025908
777.6222	0.023459
777.8577	0.025697
778.0932	0.025675
778.3287	0.026055
778.5642	0.027786
778.7997	0.027575
779.0352	0.030320
779.2707	0.032452
779.5063	0.032726
779.7418	0.031692
779.9774	0.030911
780.2130	0.028694
780.4485	0.029412
780.6841	0.028251
780.9197	0.031439
781.1553	0.033170
781.3909	0.035661
781.6265	0.034964
781.8622	0.034647
782.0978	0.036357
782.3335	0.036378
782.5691	0.036019
782.8048	0.036526
783.0405	0.032895
783.2761	0.034098
783.5118	0.033592
783.7475	0.034225
783.9832	0.034922
784.2190	0.032156
784.4547	0.031249
784.6904	0.028335
784.9262	0.028166
785.1619	0.029623
785.3977	0.029539
785.6335	0.032051
785.8692	0.031607
786.1050	0.031249
786.3408	0.029306
786.5766	0.028293
786.8124	0.029623
787.0483	0.027744
787.2841	0.030299
787.5199	0.027934
787.7558	0.030362
787.9917	0.030235
788.2275	0.028251
788.4634	0.032093
788.6993	0.030911
788.9352	0.032051
789.1711	0.031650
789.4070	0.029560
789.6429	0.027998
789.8789	0.028188
790.1148	0.027111
790.3507	0.026815
790.5867	0.026055
790.8227	0.025908
791.0586	0.024683
791.2946	0.024113
791.5306	0.024852
791.7666	0.025654
792.0026	0.023395
792.2387	0.023438
792.4747	0.021918
792.7107	0.021031
792.9468	0.023417
793.1828	0.025148
793.4189	0.023670
793.6550	0.023670
793.8910	0.027322
794.1271	0.031650
794.3632	0.031016
794.5993	0.031797
794.8355	0.031755
795.0716	0.033254
795.3077	0.030362
795.5439	0.031354
795.7800	0.029137
796.0162	0.028863
796.2523	0.024557
796.4885	0.025422
796.7247	0.021854
796.9609	0.022108
797.1971	0.020144
797.4333	0.023311
797.6695	0.023585
797.9058	0.021453
798.1420	0.023839
798.3783	0.023670
798.6145	0.022783
798.8508	0.024008
799.0871	0.023121
799.3233	0.023987
799.5596	0.022488
799.7959	0.021981
800.0322	0.021622
800.2686	0.019955
800.5049	0.019997
800.7412	0.019997
800.9776	0.018202
801.2139	0.020567
801.4503	0.019722
801.6867	0.017949
801.9230	0.018793
802.1594	0.016492
802.3958	0.015944
802.6322	0.016091
802.8686	0.017970
803.1051	0.017379
803.3415	0.019786
803.5779	0.020166
803.8144	0.018899
804.0508	0.019363
804.2873	0.018181
804.5238	0.019089
804.7603	0.016197
804.9968	0.017189
805.2333	0.017801
805.4698	0.018181
805.7063	0.018836
805.9428	0.019870
806.1794	0.023163
806.4159	0.024303
806.6525	0.023227
806.8890	0.025021
807.1256	0.022889
807.3622	0.023227
807.5988	0.024514
807.8354	0.023353
808.0720	0.022023
808.3086	0.022446
808.5452	0.023016
808.7818	0.023522
809.0185	0.022868
809.2551	0.023417
809.4918	0.021052
809.7284	0.021263
809.9651	0.021496
810.2018	0.020398
810.4385	0.020187
810.6752	0.020778
810.9119	0.018878
811.1486	0.019575
811.3853	0.019786
811.6221	0.017843
811.8588	0.018836
812.0956	0.018308
812.3323	0.015817
812.5691	0.015120
812.8059	0.015205
813.0427	0.014297
813.2795	0.015817
813.5163	0.017252
813.7531	0.017506
813.9899	0.019385
814.2267	0.019448
814.4636	0.018941
814.7004	0.017907
814.9373	0.018435
815.1742	0.017210
815.4110	0.016176
815.6479	0.014445
815.8848	0.015859
816.1217	0.013431
816.3586	0.014740
816.5955	0.015500
816.8324	0.015247
817.0694	0.015268
817.3063	0.015162
817.5433	0.015437
817.7802	0.014846
818.0172	0.015817
818.2542	0.014930
818.4912	0.014761
818.7282	0.013389
818.9652	0.014149
819.2022	0.012207
819.4392	0.012270
819.6762	0.012629
819.9133	0.013051
820.1503	0.012777
820.3874	0.013727
820.6244	0.015944
820.8615	0.017084
821.0986	0.017865
821.3357	0.015500
821.5727	0.016556
821.8099	0.015205
822.0470	0.013980
822.2841	0.014276
822.5212	0.013748
822.7584	0.012608
822.9955	0.011088
823.2327	0.012207
823.4698	0.012101
823.7070	0.012524
823.9442	0.011109
824.1814	0.010582
824.4186	0.011743
824.6558	0.012524
824.8930	0.011721
825.1302	0.011869
825.3675	0.012883
825.6047	0.014065
825.8419	0.014381
826.0792	0.013558
826.3165	0.012313
826.5537	0.011869
826.7910	0.012418
827.0283	0.015268
827.2656	0.013769
827.5029	0.013537
827.7402	0.012313
827.9776	0.013685
828.2149	0.012144
828.4522	0.011426
828.6896	0.012376
828.9270	0.011869
829.1643	0.013115
829.4017	0.012925
829.6391	0.012249
829.8765	0.012080
830.1139	0.011447
830.3513	0.010772
830.5887	0.009969
830.8261	0.009885
831.0636	0.008829
831.3010	0.010096
831.5385	0.009146
831.7759	0.008956
832.0134	0.008471
832.2509	0.007352
832.4884	0.008618
832.7259	0.009632
832.9634	0.009273
833.2009	0.009906
833.4384	0.010434
833.6759	0.009019
833.9135	0.007858
834.1510	0.011152
834.3886	0.010772
834.6261	0.011384
834.8637	0.009843
835.1013	0.011067
835.3389	0.009610
835.5765	0.009695
835.8141	0.010877
836.0517	0.009019
836.2893	0.010328
836.5269	0.009252
836.7646	0.008175
837.0022	0.008893
837.2399	0.006634
837.4775	0.007056
837.7152	0.009822
837.9529	0.008428
838.1906	0.007689
838.4283	0.005642
838.6660	0.007014
838.9037	0.008027
839.1414	0.007879
839.3791	0.008766
839.6169	0.007964
839.8546	0.009463
840.0924	0.007119
840.3302	0.008196
840.5679	0.006887
840.8057	0.008133
841.0435	0.007373
841.2813	0.007119
841.5191	0.006993
841.7569	0.006191
841.9947	0.005768
842.2326	0.006782
842.4704	0.005346
842.7082	0.007732
842.9461	0.005621
843.1840	0.005937
843.4218	0.005621
843.6597	0.005051
843.8976	0.005600
844.1355	0.006444
844.3734	0.006064
844.6113	0.006064
844.8492	0.006359
845.0872	0.005346
845.3251	0.005895
845.5631	0.005262
845.8010	0.006001
846.0390	0.004924
846.2770	0.006127
846.5149	0.006212
846.7529	0.005431
846.9909	0.005177
847.2289	0.005093
847.4669	0.005051
847.7050	0.005431
847.9430	0.005515
848.1810	0.005198
848.4191	0.005346
848.6571	0.006233
848.8952	0.005621
849.1333	0.003890
849.3713	0.005452
849.6094	0.005177
849.8475	0.004861
850.0856	0.005388
850.3237	0.006169
850.5619	0.005515
850.8000	0.003700
851.0381	0.004692
851.2763	0.005156
851.5144	0.005431
851.7526	0.005768
851.9908	0.005600
852.2289	0.006571
852.4671	0.008576
852.7053	0.008639
852.9435	0.010940
853.1817	0.012756
853.4200	0.011785
853.6582	0.012798
853.8964	0.012777
854.1347	0.013833
854.3729	0.013727
854.6112	0.014360
854.8495	0.015690
855.0877	0.012925
855.3260	0.012418
855.5643	0.011933
855.8026	0.012693
856.0409	0.011553
856.2792	0.011658
856.5176	0.013305
856.7559	0.013094
856.9942	0.011363
857.2326	0.011215
857.4710	0.010940
857.7093	0.010603
857.9477	0.010898
858.1861	0.009927
858.4245	0.011173
858.6629	0.009062
858.9013	0.010708
859.1397	0.009737
859.3781	0.010202
859.6166	0.009779
859.8550	0.008829
860.0935	0.007267
860.3319	0.008745
860.5704	0.008534
860.8089	0.007837
861.0473	0.006233
861.2858	0.008027
861.5243	0.006697
861.7628	0.006106
862.0013	0.005895
862.2399	0.007753
862.4784	0.005832
862.7169	0.006275
862.9555	0.006993
863.1940	0.007626
863.4326	0.007014
863.6712	0.008238
863.9098	0.007098
864.1483	0.005684
864.3869	0.006571
864.6255	0.006233
864.8642	0.005663
865.1028	0.005768
865.3414	0.006254
865.5800	0.006233
865.8187	0.006338
866.0573	0.005051
866.2960	0.005410
866.5347	0.006423
866.7733	0.002876
867.0120	0.006528
867.2507	0.005431
867.4894	0.005346
867.7281	0.006507
867.9669	0.005325
868.2056	0.005642
868.4443	0.005832
868.6831	0.005895
868.9218	0.004354
869.1606	0.004987
869.3993	0.004861
869.6381	0.004312
869.8769	0.004882
870.1157	0.004544
870.3545	0.005684
870.5933	0.003425
870.8321	0.005367
871.0709	0.004671
871.3097	0.007288
871.5486	0.004692
871.7874	0.004987
872.0263	0.004502
872.2651	0.006676
872.5040	0.004291
872.7429	0.005811
872.9818	0.005557
873.2207	0.004987
873.4596	0.006697
873.6985	0.004840
873.9374	0.005262
874.1763	0.006359
874.4153	0.005557
874.6542	0.006001
874.8932	0.006169
875.1321	0.006908
875.3711	0.005578
875.6101	0.008048
875.8491	0.006212
876.0880	0.006085
876.3270	0.004333
876.5661	0.006359
876.8051	0.005114
877.0441	0.007035
877.2831	0.006275
877.5222	0.005916
877.7612	0.006022
878.0003	0.007119
878.2393	0.007415
878.4784	0.006613
878.7175	0.006929
878.9566	0.007415
879.1957	0.006549
879.4348	0.007415
879.6739	0.009188
879.9130	0.008428
880.1521	0.009273
880.3913	0.006951
880.6304	0.007563
880.8696	0.008935
881.1087	0.008281
881.3479	0.007056
881.5871	0.006212
881.8262	0.007774
882.0654	0.006972
882.3046	0.006169
882.5438	0.006571
882.7831	0.006528
883.0223	0.006359
883.2615	0.007563
883.5007	0.007077
883.7400	0.005958
883.9792	0.007056
884.2185	0.005705
884.4578	0.006127
884.6971	0.005916
884.9363	0.006043
885.1756	0.005367
885.4149	0.007837
885.6542	0.006803
885.8936	0.008091
886.1329	0.007077
886.3722	0.007331
886.6116	0.006212
886.8509	0.006212
887.0903	0.004818
887.3296	0.004945
887.5690	0.007162
887.8084	0.007499
888.0478	0.005283
888.2872	0.006507
888.5266	0.004776
888.7660	0.006444
889.0054	0.004417
889.2448	0.006571
889.4843	0.005874
889.7237	0.004776
889.9632	0.005410
890.2026	0.004882
890.4421	0.004903
890.6816	0.004502
890.9211	0.003510
891.1606	0.005093
891.4001	0.005093
891.6396	0.004586
891.8791	0.006275
892.1186	0.005431
892.3581	0.006381
892.5977	0.005135
892.8372	0.004122
893.0768	0.005832
893.3163	0.003066
893.5559	0.006317
893.7955	0.004438
894.0351	0.004544
894.2747	0.004903
894.5143	0.004966
894.7539	0.005388
894.9935	0.004544
895.2331	0.005093
895.4727	0.006106
895.7124	0.005642
895.9520	0.004248
896.1917	0.004797
896.4314	0.005600
896.6710	0.004080
896.9107	0.006001
897.1504	0.003911
897.3901	0.005811
897.6298	0.005811
897.8695	0.005874
898.1092	0.004628
898.3489	0.003700
898.5887	0.005747
898.8284	0.005431
899.0682	0.006085
899.3079	0.003932
899.5477	0.003024
899.7875	0.004776
900.0272	0.004312
900.2670	0.005030
900.5068	0.003425
900.7466	0.004248
900.9864	0.004227
901.2263	0.004650
901.4661	0.004058
901.7059	0.004460
901.9458	0.004628
902.1856	0.004692
902.4255	0.004586
902.6654	0.004502
902.9052	0.004840
903.1451	0.003636
903.3850	0.002665
903.6249	0.004840
903.8648	0.004417
904.1047	0.004755
904.3446	0.004270
904.5846	0.004797
904.8245	0.006191
905.0644	0.006296
905.3044	0.005768
905.5444	0.006444
905.7843	0.004692
906.0243	0.004797
906.2643	0.004227
906.5043	0.005177
906.7443	0.004101
906.9843	0.004544
907.2243	0.003193
907.4643	0.003995
907.7043	0.004924
907.9444	0.003974
908.1844	0.005937
908.4245	0.003763
908.6645	0.004650
908.9046	0.004312
909.1447	0.004502
909.3847	0.004080
909.6248	0.003995
909.8649	0.004650
910.1050	0.003383
910.3452	0.004966
910.5853	0.003066
910.8254	0.004333
911.0655	0.003678
911.3057	0.003721
911.5458	0.003235
911.7860	0.003573
912.0262	0.004628
912.2663	0.004248
912.5065	0.004270
912.7467	0.004586
912.9869	0.003256
913.2271	0.003953
913.4673	0.003510
913.7075	0.005177
913.9478	0.004291
914.1880	0.003890
914.4283	0.003362
914.6685	0.004734
914.9088	0.003784
915.1490	0.003488
915.3893	0.002813
915.6296	0.003678
915.8699	0.002032
916.1102	0.004481
916.3505	0.003594
916.5908	0.004080
916.8311	0.003805
917.0714	0.004607
917.3118	0.005937
917.5521	0.005600
917.7925	0.004438
918.0328	0.006043
918.2732	0.003763
918.5136	0.005705
918.7539	0.003932
918.9943	0.004502
919.2347	0.005937
919.4751	0.005304
919.7155	0.003488
919.9560	0.003087
920.1964	0.003045
920.4368	0.003277
920.6773	0.003277
920.9177	0.004607
921.1582	0.004586
921.3986	0.001800
921.6391	0.002391
921.8796	0.003890
922.1201	0.002707
922.3606	0.003362
922.6011	0.002665
922.8416	0.004291
923.0821	0.002433
923.3226	0.003320
923.5631	0.004945
923.8037	0.003383
924.0442	0.002897
924.2848	0.004037
924.5254	0.003193
924.7659	0.003045
925.0065	0.002918
925.2471	0.002581
925.4877	0.000997
925.7283	0.002855
925.9689	0.003108
926.2095	0.002327
926.4501	0.003066
926.6908	0.003066
926.9314	0.001356
927.1720	0.003510
927.4127	0.003510
927.6533	0.003066
927.8940	0.002370
928.1347	0.003763
928.3754	0.004523
928.6161	0.003003
928.8568	0.003172
929.0975	0.003700
929.3382	0.001715
929.5789	0.003024
929.8196	0.002496
930.0604	0.001821
930.3011	0.001694
930.5419	0.003066
930.7826	0.001926
931.0234	0.001969
931.2642	0.001356
931.5049	0.002581
931.7457	0.002370
931.9865	0.002285
932.2273	0.002201
932.4681	0.003383
932.7089	0.001736
932.9498	0.002855
933.1906	0.002222
933.4314	0.003847
933.6723	0.003341
933.9131	0.001040
934.1540	0.002834
934.3949	0.002750
934.6358	0.002602
934.8766	0.004671
935.1175	0.002180
935.3584	0.001990
935.5993	0.002074
935.8403	0.002665
936.0812	0.001779
936.3221	0.002686
936.5630	0.001504
936.8040	0.002686
937.0449	0.001546
937.2859	0.002137
937.5269	0.002560
937.7678	0.001694
938.0088	0.001187
938.2498	0.001884
938.4908	0.000533
938.7318	0.001969
938.9728	0.001631
939.2138	0.002306
939.4549	0.002306
939.6959	0.001926
939.9369	0.000639
940.1780	0.000765
940.4190	0.001757
940.6601	0.002222
940.9012	0.000744
941.1422	0.000491
941.3833	-0.000079
941.6244	0.000301
941.8655	0.001905
942.1066	0.000871
942.3477	0.001272
942.5889	0.002053
942.8300	0.001420
943.0711	0.001399
943.3123	0.001694
943.5534	0.000280
943.7946	0.001969
944.0357	-0.000037
944.2769	0.002349
944.5181	0.001103
944.7593	0.001103
945.0005	0.000533
945.2417	0.001673
945.4829	-0.000902
945.7241	0.000744
945.9653	0.001209
946.2066	0.001905
946.4478	0.002137
946.6891	0.001314
946.9303	0.000976
947.1716	0.002264
947.4128	-0.000797
947.6541	0.000491
947.8954	-0.000185
948.1367	0.001124
948.3780	0.000301
948.6193	0.000997
948.8606	-0.000501
949.1019	0.001462
949.3433	0.001019
949.5846	0.001166
949.8259	0.002032
950.0673	0.000470
950.3086	-0.000121
950.5500	0.001061
950.7914	0.000892
951.0327	0.001842
951.2741	0.001736
951.5155	0.001884
951.7569	0.001736
951.9983	0.001546
952.2398	0.002074
952.4812	0.002180
952.7226	0.001504
952.9640	0.001905
953.2055	0.002201
953.4469	0.002412
953.6884	0.000997
953.9299	0.002264
954.1713	0.000829
954.4128	0.001947
954.6543	0.001483
954.8958	0.001757
955.1373	0.001631
955.3788	0.001757
955.6203	0.000554
955.8618	0.001567
956.1034	0.001842
956.3449	0.001145
956.5865	0.001821
956.8280	0.001314
957.0696	0.000406
957.3111	0.002686
957.5527	0.002623
957.7943	0.001399
958.0359	0.001673
958.2775	0.002834
958.5191	-0.000607
958.7607	0.002855
959.0023	0.000744
959.2439	0.000807
959.4856	0.000047
959.7272	-0.000185
959.9688	0.001715
960.2105	-0.000227
960.4522	0.000575
960.6938	0.001567
960.9355	0.000449
961.1772	0.000976
961.4189	-0.000501
961.6606	0.001293
961.9023	0.001103
962.1440	0.000216
962.3857	-0.000438
962.6274	0.000702
962.8692	0.001061
963.1109	0.001567
963.3527	0.000955
963.5944	0.001040
963.8362	0.000385
964.0779	0.001420
964.3197	0.000280
964.5615	-0.000164
964.8033	0.001462
965.0451	0.000765
965.2869	0.000807
965.5287	0.001652
965.7705	-0.000100
966.0123	0.000829
966.2542	0.000111
966.4960	0.001166
966.7379	0.001715
966.9797	0.002074
967.2216	0.000660
967.4634	0.001757
967.7053	0.000090
967.9472	0.001990
968.1891	0.000575
968.4310	0.001800
968.6729	0.000554
968.9148	0.000617
969.1567	-0.000079
969.3987	0.000533
969.6406	0.000850
969.8825	0.000533
970.1245	0.000934
970.3664	0.000554
970.6084	0.001546
970.8504	0.001736
971.0923	-0.000544
971.3343	0.000427
971.5763	0.002032
971.8183	0.000639
972.0603	0.001546
972.3023	0.001082
972.5443	0.000512
972.7864	0.001356
973.0284	0.000723
973.2704	0.000470
973.5125	0.000301
973.7545	0.001905
973.9966	0.002306
974.2387	0.000153
974.4807	0.001040
974.7228	0.001441
974.9649	-0.000227
975.2070	0.000617
975.4491	0.000660
975.6912	0.001314
975.9333	0.000069
976.1755	0.000617
976.4176	0.000343
976.6597	0.000090
976.9019	0.000596
977.1440	0.002180
977.3862	-0.000311
977.6283	0.000892
977.8705	0.002349
978.1127	-0.000691
978.3549	0.001335
978.5971	0.001441
978.8393	0.001145
979.0815	0.001947
979.3237	0.001230
979.5659	0.000617
979.8082	0.001652
980.0504	0.001166
980.2926	0.000427
980.5349	-0.000227
980.7771	0.001441
981.0194	0.001399
981.2617	-0.000121
981.5040	0.000997
981.7462	0.000237
981.9885	0.000744
982.2308	0.000406
982.4731	0.001546
982.7155	0.000786
982.9578	0.001462
983.2001	-0.000037
983.4424	0.002011
983.6848	-0.000269
983.9271	0.001377
984.1695	0.001525
984.4118	0.000744
984.6542	0.001504
984.8966	0.000491
985.1390	-0.001831
985.3814	0.000237
985.6238	-0.000290
985.8662	0.000385
986.1086	0.000554
986.3510	0.000786
986.5934	-0.000902
986.8358	0.000871
987.0783	0.001567
987.3207	0.000934
987.5632	-0.000248
987.8056	-0.000079
988.0481	-0.000544
988.2906	-0.000037
988.5331	-0.000037
988.7756	0.001800
989.0180	0.000554
989.2605	0.000491
989.5031	0.000090
989.7456	0.001145
989.9881	0.002053
990.2306	0.001757
990.4732	0.000617
990.7157	0.000005
990.9582	-0.000227
991.2008	0.001209
991.4434	0.000090
991.6859	0.000892
991.9285	-0.000776
992.1711	0.000702
992.4137	0.000364
992.6563	0.001082
992.8989	0.001082
993.1415	0.001969
993.3841	0.000301
993.6267	0.000237
993.8694	0.000322
994.1120	0.000871
994.3547	0.000090
994.5973	-0.000206
994.8400	-0.000924
995.0826	0.000195
995.3253	0.000280
995.5680	0.000406
995.8107	0.000617
996.0534	0.000385
996.2961	-0.000649
996.5388	0.002032
996.7815	-0.000058
997.0242	0.000681
997.2670	-0.000037
997.5097	0.000702
997.7524	-0.000776
997.9952	-0.000121
998.2379	0.000660
998.4807	0.001166
998.7235	0.000195
998.9662	0.001567
999.2090	-0.000459
999.4518	0.001610
999.6946	0.000786
999.9374	0.000216
1000.1802	0.000765
1000.4230	0.001567
1000.6659	0.000807
1000.9087	-0.001219
1001.1515	0.001166
1001.3944	0.000533
1001.6372	0.000596
1001.8801	0.000406
1002.1230	0.000259
1002.3658	0.001082
1002.6087	-0.000016
1002.8516	0.000216
1003.0945	0.000343
1003.3374	0.000153
1003.5803	0.000364
1003.8232	0.000554
1004.0661	0.000681
1004.3091	0.001377
1004.5520	0.001610
1004.7949	0.001272
1005.0379	-0.000290
1005.2808	0.001272
1005.5238	0.000702
1005.7667	0.000301
1006.0097	0.001441
1006.2527	-0.000628
1006.4957	-0.000480
1006.7387	0.000660
1006.9817	0.000343
1007.2247	0.000090
1007.4677	0.001145
1007.7107	0.000913
1007.9538	0.000765
1008.1968	0.000892
1008.4398	0.000427
1008.6829	0.000850
1008.9259	0.000322
1009.1690	-0.000164
1009.4121	0.001061
1009.6551	-0.001050
1009.8982	0.000829
1010.1413	0.000533
1010.3844	0.001272
1010.6275	0.000660
1010.8706	0.000111
1011.1137	0.001567
1011.3568	0.001230
1011.6000	0.001124
1011.8431	0.001926
1012.0863	0.000343
1012.3294	0.000702
1012.5726	-0.000037
1012.8157	0.000786
1013.0589	0.000216
1013.3021	0.001589
1013.5452	0.000892
1013.7884	0.000195
1014.0316	0.000153
1014.2748	0.002074
1014.5180	-0.000290
1014.7613	-0.000206
1015.0045	0.000575
1015.2477	0.000765
1015.4909	0.000744
1015.7342	-0.000058
1015.9774	-0.000628
1016.2207	0.000470
1016.4640	-0.000058
1016.7072	0.000744
1016.9505	-0.000417
1017.1938	0.000322
1017.4371	0.000280
1017.6804	0.000744
1017.9237	0.000237
1018.1670	0.000723
1018.4103	0.002053
1018.6536	0.001230
1018.8969	-0.000058
1019.1403	0.000807
1019.3836	0.001166
1019.6270	0.001082
1019.8703	0.000132
1020.1137	-0.000628
1020.3571	0.000111
1020.6004	0.001040
1020.8438	-0.000438
1021.0872	0.000343
1021.3306	0.000237
1021.5740	0.001293
1021.8174	-0.001261
1022.0608	0.000702
1022.3042	0.000660
1022.5477	0.000026
1022.7911	0.001314
1023.0345	0.000280
