# Wavelength (nm)	Intensity (a.u.)
197.7802	0.000614
197.9842	-0.001096
198.1882	0.000952
198.3922	-0.001434
198.5963	0.000171
198.8003	-0.000083
199.0044	-0.001033
199.2085	-0.000970
199.4126	0.001036
199.6168	-0.000252
199.8209	-0.000653
200.0251	0.000593
200.2292	0.001163
200.4334	-0.000167
200.6376	-0.000231
200.8418	0.001100
201.0461	0.000002
201.2503	0.000023
201.4546	0.000635
201.6589	0.000677
201.8631	0.000340
202.0674	-0.000083
202.2718	0.000445
202.4761	-0.000442
202.6805	0.000403
202.8848	0.000234
203.0892	0.000128
203.2936	0.000276
203.4980	0.001860
203.7024	-0.000948
203.9069	0.000318
204.1113	-0.000146
204.3158	0.000403
204.5203	0.000804
204.7248	-0.000716
204.9293	-0.000463
205.1338	0.000044
205.3384	0.000551
205.5430	0.000867
205.7475	0.000150
205.9521	0.000086
206.1567	-0.000822
206.3614	0.001585
206.5660	-0.000231
206.7706	-0.000399
206.9753	-0.000822
207.1800	0.000867
207.3847	-0.000801
207.5894	0.000614
207.7941	0.001522
207.9989	0.001881
208.2036	0.000466
208.4084	0.000762
208.6132	0.000318
208.8180	-0.000019
209.0228	-0.000779
209.2276	0.000614
209.4325	-0.000357
209.6373	0.001332
209.8422	-0.000019
210.0471	0.000318
210.2520	-0.000484
210.4569	0.000255
210.6618	-0.000695
210.8668	-0.000125
211.0718	0.001015
211.2767	0.000572
211.4817	-0.000906
211.6867	0.001564
211.8918	-0.000737
212.0968	0.000213
212.3018	0.000340
212.5069	-0.000885
212.7120	0.000593
212.9171	0.000361
213.1222	-0.000674
213.3273	0.000677
213.5325	0.000107
213.7376	0.001332
213.9428	0.000804
214.1480	-0.000442
214.3532	0.000551
214.5584	-0.000125
214.7636	-0.000252
214.9689	0.000044
215.1741	-0.000568
215.3794	0.000677
215.5847	-0.001350
215.7900	0.001100
215.9953	-0.000040
216.2007	0.001480
216.4060	0.000762
216.6114	0.001438
216.8168	0.001142
217.0222	0.000656
217.2276	0.000361
217.4330	0.000234
217.6384	-0.000209
217.8439	0.002303
218.0494	-0.001455
218.2548	-0.000505
218.4603	-0.001772
218.6659	0.000572
218.8714	-0.001117
219.0769	-0.000779
219.2825	0.000255
219.4881	0.000656
219.6936	-0.001181
219.8992	0.001226
220.1049	0.000044
220.3105	-0.000040
220.5161	0.000382
220.7218	-0.000167
220.9275	-0.000695
221.1332	-0.000019
221.3389	0.000255
221.5446	0.000825
221.7503	0.000340
221.9561	0.000825
222.1618	-0.000378
222.3676	0.000677
222.5734	0.000783
222.7792	0.000171
222.9850	-0.001138
223.1909	0.000445
223.3967	0.000783
223.6026	0.000424
223.8085	-0.000674
224.0144	0.000656
224.2203	0.000002
224.4262	-0.000463
224.6322	0.000361
224.8381	-0.000104
225.0441	0.001015
225.2501	0.000466
225.4561	0.000403
225.6621	0.000846
225.8681	0.001184
226.0742	-0.001350
226.2802	0.001585
226.4863	-0.000758
226.6924	-0.001645
226.8985	0.000128
227.1046	-0.000146
227.3107	0.001142
227.5169	0.000171
227.7230	-0.000104
227.9292	-0.001160
228.1354	-0.000632
228.3416	-0.000019
228.5478	-0.000505
228.7541	0.000466
228.9603	0.000741
229.1666	0.000044
229.3729	0.000276
229.5791	-0.001033
229.7855	0.001353
229.9918	-0.000040
230.1981	-0.000336
230.4045	0.000889
230.6108	0.001163
230.8172	0.000466
231.0236	0.000867
231.2300	-0.000484
231.4364	0.000867
231.6429	0.000825
231.8493	0.000403
232.0558	-0.001286
232.2623	-0.000674
232.4688	-0.000040
232.6753	-0.000040
232.8818	0.001416
233.0884	0.000318
233.2949	-0.000040
233.5015	0.001733
233.7081	0.000065
233.9147	0.000804
234.1213	-0.000526
234.3279	0.001121
234.5346	-0.000019
234.7413	0.000931
234.9479	0.000213
235.1546	-0.000040
235.3613	0.000002
235.5680	0.001585
235.7748	0.000213
235.9815	-0.000336
236.1883	-0.000231
236.3951	-0.000231
236.6018	-0.000104
236.8087	0.000361
237.0155	-0.000146
237.2223	0.000889
237.4292	0.000720
237.6360	0.000614
237.8429	0.000276
238.0498	-0.000231
238.2567	0.000107
238.4636	0.000086
238.6706	0.000846
238.8775	0.001374
239.0845	0.000192
239.2915	0.000255
239.4985	0.000234
239.7055	0.001058
239.9125	0.000171
240.1195	0.000128
240.3266	0.000931
240.5337	-0.000336
240.7407	0.000023
240.9478	0.000952
241.1549	0.000551
241.3621	-0.000442
241.5692	-0.001434
241.7764	0.001712
241.9835	0.000445
242.1907	0.001712
242.3979	0.000635
242.6051	0.001353
242.8124	0.000065
243.0196	-0.000062
243.2269	-0.000083
243.4341	0.001015
243.6414	0.000466
243.8487	0.001522
244.0560	0.000614
244.2634	0.000171
244.4707	0.000023
244.6781	0.001058
244.8854	-0.000864
245.0928	-0.000948
245.3002	-0.000294
245.5076	0.000677
245.7151	-0.000589
245.9225	0.000783
246.1300	-0.001075
246.3375	0.001121
246.5449	0.000382
246.7524	0.001987
246.9600	0.001374
247.1675	-0.000231
247.3750	0.000276
247.5826	0.001121
247.7902	0.000044
247.9978	-0.000083
248.2054	-0.000188
248.4130	0.000150
248.6206	0.000107
248.8283	0.000973
249.0359	0.000487
249.2436	0.000276
249.4513	0.001628
249.6590	0.000466
249.8667	-0.000505
250.0745	-0.001835
250.2822	-0.000062
250.4900	0.000403
250.6978	0.000023
250.9056	0.000192
251.1134	-0.000294
251.3212	0.001881
251.5290	-0.000357
251.7369	-0.001519
251.9447	-0.001012
252.1526	-0.000083
252.3605	0.000340
252.5684	-0.001117
252.7763	0.000572
252.9843	-0.000399
253.1922	-0.001328
253.4002	-0.000399
253.6082	-0.000399
253.8162	-0.000421
254.0242	0.001015
254.2322	0.001459
254.4402	0.000340
254.6483	-0.000399
254.8564	0.000783
255.0644	0.001248
255.2725	0.000297
255.4806	0.000086
255.6888	0.000361
255.8969	-0.001223
256.1051	0.000593
256.3132	0.000466
256.5214	0.000804
256.7296	-0.000399
256.9378	-0.001265
257.1460	0.001543
257.3543	0.000255
257.5625	0.000445
257.7708	0.000424
257.9791	0.000086
258.1874	-0.000062
258.3957	0.000255
258.6040	-0.000589
258.8124	0.002134
259.0207	-0.000273
259.2291	0.001438
259.4375	0.000867
259.6459	0.000065
259.8543	-0.001603
260.0627	0.000044
260.2711	0.001332
260.4796	-0.000589
260.6881	-0.000906
260.8965	0.001058
261.1050	-0.000019
261.3135	0.000171
261.5221	-0.000062
261.7306	0.000720
261.9392	-0.000822
262.1477	0.000044
262.3563	-0.001117
262.5649	0.000150
262.7735	0.000487
262.9822	-0.000421
263.1908	-0.000062
263.3995	-0.002469
263.6081	-0.002004
263.8168	-0.000653
264.0255	0.000234
264.2342	0.000952
264.4429	0.000487
264.6517	0.001374
264.8604	0.000086
265.0692	-0.000336
265.2780	-0.000885
265.4868	0.001332
265.6956	0.000509
265.9044	0.000677
266.1133	-0.000906
266.3221	-0.000357
266.5310	0.000530
266.7399	0.000635
266.9488	-0.000442
267.1577	0.000741
267.3666	-0.000632
267.5755	0.000002
267.7845	-0.000758
267.9935	-0.000822
268.2024	-0.000674
268.4114	0.000466
268.6205	0.000065
268.8295	0.000002
269.0385	0.000255
269.2476	0.000276
269.4566	0.000086
269.6657	0.001015
269.8748	-0.000378
270.0839	-0.000991
270.2931	0.000783
270.5022	0.000065
270.7114	-0.001540
270.9205	0.000825
271.1297	0.001311
271.3389	0.000403
271.5481	-0.000991
271.7573	0.000318
271.9666	0.000297
272.1758	0.000340
272.3851	-0.001814
272.5944	0.000002
272.8037	-0.001687
273.0130	-0.000505
273.2223	0.000445
273.4316	-0.000484
273.6410	-0.000991
273.8504	0.000023
274.0597	0.001438
274.2691	0.000699
274.4785	0.000002
274.6880	0.001079
274.8974	0.000910
275.1069	0.000656
275.3163	0.000445
275.5258	-0.000695
275.7353	-0.000399
275.9448	-0.000927
276.1543	0.000192
276.3639	0.000382
276.5734	-0.000526
276.7830	0.000297
276.9926	-0.002025
277.2022	-0.000146
277.4118	0.001290
277.6214	0.001395
277.8310	0.000551
278.0407	0.000318
278.2503	0.000318
278.4600	0.000762
278.6697	-0.000611
278.8794	0.000509
279.0891	-0.000843
279.2989	0.000741
279.5086	-0.000294
279.7184	-0.000104
279.9281	0.000255
280.1379	-0.000526
280.3477	-0.000801
280.5576	0.000086
280.7674	0.000487
280.9772	0.000002
281.1871	-0.000167
281.3970	-0.000252
281.6069	-0.000357
281.8168	0.001290
282.0267	-0.000611
282.2366	0.000023
282.4466	-0.000674
282.6565	0.000509
282.8665	-0.001181
283.0765	0.000150
283.2865	-0.001455
283.4965	-0.000167
283.7065	-0.000948
283.9166	0.001564
284.1266	0.000741
284.3367	-0.000505
284.5468	0.000910
284.7569	-0.000442
284.9670	0.000044
285.1771	-0.000378
285.3873	0.000509
285.5974	0.000382
285.8076	-0.000357
286.0178	-0.001012
286.2280	0.001226
286.4382	0.001015
286.6484	-0.001138
286.8587	0.000424
287.0689	0.000403
287.2792	0.001184
287.4895	-0.000611
287.6998	0.001564
287.9101	0.000171
288.1204	-0.000273
288.3308	-0.000948
288.5411	-0.000294
288.7515	0.000361
288.9619	0.000065
289.1723	-0.000294
289.3827	0.000572
289.5931	0.000128
289.8035	0.000276
290.0140	-0.001202
290.2245	0.001585
290.4349	-0.000526
290.6454	0.001100
290.8559	-0.001012
291.0665	0.000023
291.2770	-0.000526
291.4875	0.000910
291.6981	-0.000273
291.9087	-0.000589
292.1193	0.000150
292.3299	-0.000906
292.5405	0.000509
292.7511	0.000318
292.9618	0.001163
293.1724	-0.000801
293.3831	-0.001371
293.5938	0.000403
293.8045	0.000234
294.0152	0.000741
294.2260	0.000530
294.4367	0.001142
294.6475	-0.000843
294.8582	0.000910
295.0690	0.000213
295.2798	0.000065
295.4906	-0.000231
295.7015	0.000107
295.9123	-0.000083
296.1232	-0.001096
296.3340	-0.000695
296.5449	0.000023
296.7558	-0.000611
296.9667	0.001248
297.1777	0.001248
297.3886	0.000424
297.5995	-0.001434
297.8105	-0.000125
298.0215	-0.000146
298.2325	0.000530
298.4435	0.000044
298.6545	0.000889
298.8656	-0.000188
299.0766	-0.000252
299.2877	0.000044
299.4988	0.000551
299.7099	-0.000357
299.9210	0.000044
300.1321	0.001248
300.3432	0.001079
300.5544	0.000403
300.7655	0.000318
300.9767	-0.000040
301.1879	-0.000083
301.3991	0.001923
301.6103	-0.000695
301.8215	0.002198
302.0328	0.001290
302.2441	-0.000104
302.4553	0.000150
302.6666	-0.000526
302.8779	0.000593
303.0892	-0.000357
303.3006	-0.000336
303.5119	0.000593
303.7233	-0.001223
303.9346	-0.000357
304.1460	0.001459
304.3574	0.000023
304.5688	0.001079
304.7803	0.000234
304.9917	-0.000209
305.2031	-0.001307
305.4146	-0.000146
305.6261	0.000509
305.8376	0.000720
306.0491	-0.000716
306.2606	0.000107
306.4722	-0.000632
306.6837	0.000656
306.8953	0.000128
307.1069	0.000340
307.3184	-0.000315
307.5301	-0.000273
307.7417	0.000931
307.9533	-0.000991
308.1650	-0.000019
308.3766	-0.000442
308.5883	0.000107
308.8000	0.000128
309.0117	0.000340
309.2234	0.000002
309.4351	0.000931
309.6469	0.000297
309.8586	0.000044
310.0704	0.000677
310.2822	0.000720
310.4940	0.000445
310.7058	-0.000273
310.9176	-0.000674
311.1295	0.000656
311.3413	0.002029
311.5532	-0.000822
311.7651	0.000150
311.9770	-0.000273
312.1889	0.001184
312.4008	-0.000801
312.6127	0.000572
312.8247	0.001248
313.0366	0.001395
313.2486	-0.000948
313.4606	0.000002
313.6726	-0.000547
313.8846	-0.001138
314.0967	0.000276
314.3087	-0.000442
314.5208	-0.001181
314.7328	0.000340
314.9449	-0.000568
315.1570	0.000614
315.3692	0.001353
315.5813	0.000318
315.7934	0.000593
316.0056	0.001248
316.2177	-0.000294
316.4299	0.002388
316.6421	0.000234
316.8543	0.000107
317.0666	-0.000125
317.2788	0.000234
317.4911	0.000297
317.7033	0.000086
317.9156	0.000340
318.1279	0.000994
318.3402	0.000044
318.5525	0.002050
318.7649	0.000171
318.9772	-0.000273
319.1896	-0.000991
319.4019	0.000340
319.6143	0.000002
319.8267	0.000044
320.0392	-0.000252
320.2516	0.001079
320.4640	-0.000568
320.6765	0.000677
320.8890	-0.000231
321.1014	0.000614
321.3139	0.000466
321.5265	0.000487
321.7390	-0.000611
321.9515	0.000403
322.1641	0.000424
322.3766	0.000297
322.5892	-0.001434
322.8018	0.000952
323.0144	-0.001033
323.2270	-0.000611
323.4397	0.001058
323.6523	0.001965
323.8650	-0.001054
324.0777	-0.000378
324.2904	0.000023
324.5031	0.000340
324.7158	-0.000991
324.9285	0.001290
325.1412	-0.000611
325.3540	0.001142
325.5668	-0.000695
325.7796	0.000867
325.9924	0.000023
326.2052	0.000255
326.4180	-0.000906
326.6308	-0.001497
326.8437	0.002367
327.0566	0.000255
327.2694	0.001459
327.4823	-0.000019
327.6952	-0.000125
327.9082	-0.000231
328.1211	-0.000019
328.3340	0.001670
328.5470	0.000213
328.7600	-0.000357
328.9730	-0.000421
329.1860	0.000572
329.3990	0.000107
329.6120	0.000699
329.8251	0.000445
330.0381	0.000107
330.2512	-0.000104
330.4643	-0.000083
330.6774	-0.000843
330.8905	0.000318
331.1036	0.000931
331.3167	-0.000568
331.5299	0.000192
331.7431	-0.000315
331.9562	-0.000315
332.1694	0.000593
332.3826	-0.000336
332.5959	0.001501
332.8091	-0.000188
333.0223	0.001628
333.2356	0.000382
333.4489	0.000361
333.6622	0.000150
333.8755	0.000318
334.0888	0.000318
334.3021	0.001839
334.5154	0.000804
334.7288	0.001353
334.9422	0.000340
335.1555	0.000065
335.3689	0.000424
335.5823	0.001290
335.7958	-0.000547
336.0092	0.001670
336.2227	-0.000019
336.4361	-0.000252
336.6496	-0.000421
336.8631	-0.000758
337.0766	-0.000378
337.2901	-0.000104
337.5036	0.000086
337.7172	0.002641
337.9307	-0.000801
338.1443	-0.000273
338.3579	-0.000674
338.5715	-0.001202
338.7851	0.001015
338.9987	0.000276
339.2124	-0.000104
339.4260	0.001564
339.6397	-0.000421
339.8533	0.001585
340.0670	0.000192
340.2807	0.000213
340.4945	0.000720
340.7082	-0.000864
340.9219	-0.000589
341.1357	0.002092
341.3495	-0.000484
341.5633	0.000889
341.7771	-0.000526
341.9909	0.000551
342.2047	-0.000632
342.4185	0.000635
342.6324	-0.000589
342.8463	-0.000526
343.0601	-0.002089
343.2740	0.000340
343.4879	0.000065
343.7019	0.000699
343.9158	-0.000062
344.1297	-0.000526
344.3437	-0.000104
344.5577	0.000150
344.7717	0.000255
344.9857	-0.000019
345.1997	0.000530
345.4137	0.000530
345.6277	-0.000779
345.8418	0.000804
346.0559	-0.000843
346.2699	-0.000927
346.4840	-0.000209
346.6981	-0.000188
346.9123	0.000931
347.1264	0.000509
347.3406	0.000445
347.5547	-0.000040
347.7689	-0.000948
347.9831	0.000445
348.1973	-0.000801
348.4115	0.000065
348.6257	0.000340
348.8400	0.001205
349.0542	0.000973
349.2685	0.000086
349.4828	-0.000442
349.6971	0.001015
349.9114	0.000572
350.1257	-0.000547
350.3400	-0.000209
350.5544	0.001205
350.7687	0.000530
350.9831	0.000487
351.1975	0.000741
351.4119	-0.000188
351.6263	-0.000357
351.8407	0.000699
352.0552	-0.000758
352.2696	0.000720
352.4841	0.001100
352.6986	0.000255
352.9131	0.000656
353.1276	-0.000357
353.3421	0.000044
353.5566	0.001163
353.7712	-0.001075
353.9858	0.000297
354.2003	0.000509
354.4149	0.001248
354.6295	-0.000188
354.8441	0.001248
355.0588	-0.000378
355.2734	-0.001202
355.4881	0.001058
355.7027	-0.000442
355.9174	0.000445
356.1321	0.001438
356.3468	-0.000442
356.5615	0.000150
356.7763	0.000044
356.9910	0.000086
357.2058	0.001058
357.4206	-0.000146
357.6353	0.000234
357.8501	0.000889
358.0650	-0.000991
358.2798	0.001459
358.4946	-0.000167
358.7095	-0.000104
358.9243	-0.000294
359.1392	0.000466
359.3541	-0.000843
359.5690	-0.000083
359.7839	-0.000674
359.9989	0.001142
360.2138	-0.000357
360.4288	0.000213
360.6438	-0.000273
360.8587	0.001079
361.0737	-0.000442
361.2888	0.000487
361.5038	-0.000970
361.7188	-0.001096
361.9339	0.000466
362.1489	0.000403
362.3640	0.000234
362.5791	0.000318
362.7942	0.001269
363.0093	0.002092
363.2245	-0.000885
363.4396	0.000466
363.6548	-0.001603
363.8699	0.001733
364.0851	0.000741
364.3003	-0.000104
364.5155	0.000889
364.7308	0.000509
364.9460	0.000255
365.1612	0.000867
365.3765	-0.000125
365.5918	-0.000019
365.8071	0.000572
366.0224	0.000128
366.2377	0.000276
366.4530	0.000593
366.6684	0.000931
366.8837	0.000593
367.0991	-0.000970
367.3145	-0.000885
367.5299	0.000931
367.7453	-0.000146
367.9607	-0.000188
368.1761	0.000276
368.3916	-0.000294
368.6070	0.000382
368.8225	0.000424
369.0380	-0.000779
369.2535	-0.000442
369.4690	-0.000421
369.6845	0.000171
369.9001	0.000551
370.1156	-0.000547
370.3312	0.001269
370.5468	0.000128
370.7624	0.000825
370.9780	-0.000273
371.1936	0.000487
371.4092	-0.000357
371.6249	0.000699
371.8405	-0.001265
372.0562	0.001712
372.2719	-0.000695
372.4876	0.000487
372.7033	0.000551
372.9190	0.000910
373.1348	-0.000357
373.3505	0.001585
373.5663	-0.000589
373.7820	0.001649
373.9978	0.000276
374.2136	0.000804
374.4294	-0.000062
374.6453	0.000825
374.8611	0.000044
375.0770	0.000804
375.2928	0.000128
375.5087	-0.000062
375.7246	-0.000632
375.9405	0.000931
376.1564	0.000192
376.3724	-0.000399
376.5883	0.000804
376.8043	0.001353
377.0203	-0.000484
377.2362	0.000171
377.4522	0.000150
377.6682	0.002409
377.8843	0.000276
378.1003	0.000086
378.3164	-0.000378
378.5324	0.000255
378.7485	0.000530
378.9646	0.000762
379.1807	-0.000864
379.3968	0.000213
379.6129	-0.000695
379.8291	0.000551
380.0452	0.000551
380.2614	0.000572
380.4776	0.000150
380.6938	-0.000674
380.9100	0.001691
381.1262	0.000994
381.3424	0.000846
381.5587	0.000361
381.7749	-0.000442
381.9912	-0.000019
382.2075	-0.000611
382.4238	0.000530
382.6401	0.000466
382.8564	-0.000399
383.0728	0.000509
383.2891	0.000276
383.5055	-0.000167
383.7219	0.000086
383.9382	0.001036
384.1546	0.000002
384.3711	0.001438
384.5875	0.000593
384.8039	-0.000019
385.0204	0.001311
385.2368	-0.000589
385.4533	0.000150
385.6698	0.000086
385.8863	0.001987
386.1028	-0.000970
386.3194	0.000255
386.5359	0.000741
386.7525	0.000192
386.9690	0.000424
387.1856	0.000783
387.4022	0.001311
387.6188	-0.000167
387.8355	0.002113
388.0521	0.001564
388.2687	0.001184
388.4854	0.002155
388.7021	0.000445
388.9188	0.000255
389.1355	0.001987
389.3522	0.002219
389.5689	0.001839
389.7856	0.003085
390.0024	0.002578
390.2192	0.002282
390.4359	0.002599
390.6527	0.004541
390.8695	0.003634
391.0863	0.003697
391.3032	0.002873
391.5200	0.003824
391.7369	0.003211
391.9537	0.004731
392.1706	0.004795
392.3875	0.005893
392.6044	0.005724
392.8213	0.006737
393.0383	0.005365
393.2552	0.007181
393.4722	0.006737
393.6891	0.007645
393.9061	0.006822
394.1231	0.007519
394.3401	0.006927
394.5572	0.007540
394.7742	0.007519
394.9912	0.008954
395.2083	0.009123
395.4254	0.010242
395.6425	0.008173
395.8596	0.008279
396.0767	0.009715
396.2938	0.010580
396.5109	0.011024
396.7281	0.011467
396.9453	0.008469
397.1624	0.011868
397.3796	0.011889
397.5968	0.014043
397.8140	0.013579
398.0313	0.015479
398.2485	0.013515
398.4658	0.015162
398.6830	0.014951
398.9003	0.016197
399.1176	0.013874
399.3349	0.016112
399.5522	0.014867
399.7696	0.014360
399.9869	0.015268
400.2043	0.015352
400.4216	0.013769
400.6390	0.016302
400.8564	0.016999
401.0738	0.013515
401.2912	0.018900
401.5087	0.017464
401.7261	0.017717
401.9436	0.017063
402.1610	0.017020
402.3785	0.019047
402.5960	0.016492
402.8135	0.019575
403.0310	0.016366
403.2486	0.019153
403.4661	0.018921
403.6837	0.019427
403.9013	0.019955
404.1189	0.019406
404.3365	0.019681
404.5541	0.021011
404.7717	0.020040
404.9893	0.020842
405.2070	0.023186
405.4246	0.022109
405.6423	0.024769
405.8600	0.022215
406.0777	0.022975
406.2954	0.024368
406.5131	0.022510
406.7309	0.021856
406.9486	0.022046
407.1664	0.025023
407.3842	0.020884
407.6020	0.023080
407.8198	0.022848
408.0376	0.021138
408.2554	0.022637
408.4733	0.025002
408.6911	0.024748
408.9090	0.022320
409.1269	0.023439
409.3448	0.022003
409.5627	0.026395
409.7806	0.024875
409.9985	0.023397
410.2165	0.024579
410.4344	0.024389
410.6524	0.024157
410.8704	0.025128
411.0884	0.023819
411.3064	0.024664
411.5244	0.023418
411.7424	0.024769
411.9605	0.025804
412.1785	0.024474
412.3966	0.025192
412.6147	0.025825
412.8328	0.026860
413.0509	0.026543
413.2690	0.027134
413.4871	0.028063
413.7053	0.027155
413.9234	0.025846
414.1416	0.025952
414.3598	0.025825
414.5780	0.024495
414.7962	0.025276
415.0144	0.027852
415.2326	0.026374
415.4509	0.027367
415.6692	0.028190
415.8874	0.025487
416.1057	0.025593
416.3240	0.027557
416.5423	0.027979
416.7606	0.027810
416.9790	0.027261
417.1973	0.024601
417.4157	0.028697
417.6341	0.026205
417.8524	0.025656
418.0708	0.028275
418.2893	0.026649
418.5077	0.028275
418.7261	0.028655
418.9446	0.027620
419.1630	0.028528
419.3815	0.029140
419.6000	0.028992
419.8185	0.029246
420.0370	0.030259
420.2555	0.030133
420.4741	0.031906
420.6926	0.029351
420.9112	0.030238
421.1298	0.032117
421.3483	0.032941
421.5669	0.032244
421.7856	0.034398
422.0042	0.034862
422.2228	0.033405
422.4415	0.032075
422.6601	0.032709
422.8788	0.031167
423.0975	0.033427
423.3162	0.034989
423.5349	0.032202
423.7536	0.031590
423.9724	0.031505
424.1911	0.030618
424.4099	0.030893
424.6287	0.027704
424.8475	0.030449
425.0663	0.030576
425.2851	0.030724
425.5039	0.030449
425.7228	0.028465
425.9416	0.028106
426.1605	0.028084
426.3793	0.027747
426.5982	0.027282
426.8171	0.028106
427.0361	0.028655
427.2550	0.029753
427.4739	0.030639
427.6929	0.029457
427.9118	0.029372
428.1308	0.031400
428.3498	0.029563
428.5688	0.030470
428.7878	0.030048
429.0068	0.028950
429.2259	0.029014
429.4449	0.033236
429.6640	0.034039
429.8831	0.032645
430.1022	0.036742
430.3213	0.035221
430.5404	0.033680
430.7595	0.034757
430.9787	0.032307
431.1978	0.033870
431.4170	0.031927
431.6362	0.030344
431.8553	0.029563
432.0745	0.028591
432.2938	0.030069
432.5130	0.026226
432.7322	0.027894
432.9515	0.026057
433.1707	0.027557
433.3900	0.028739
433.6093	0.031611
433.8286	0.031695
434.0479	0.031104
434.2673	0.031146
434.4866	0.030217
434.7059	0.028760
434.9253	0.028823
435.1447	0.029647
435.3641	0.029351
435.5835	0.028422
435.8029	0.029288
436.0223	0.029626
436.2418	0.029056
436.4612	0.029309
436.6807	0.030555
436.9001	0.030470
437.1196	0.031231
437.3391	0.028760
437.5586	0.029499
437.7782	0.028887
437.9977	0.028148
438.2173	0.027261
438.4368	0.029119
438.6564	0.027726
438.8760	0.029541
439.0956	0.029394
439.3152	0.030407
439.5348	0.029288
439.7545	0.030386
439.9741	0.029267
440.1938	0.029140
440.4135	0.027008
440.6331	0.028676
440.8528	0.027514
441.0725	0.030787
441.2923	0.033427
441.5120	0.033828
441.7318	0.036214
441.9515	0.035137
442.1713	0.034630
442.3911	0.033384
442.6109	0.031780
442.8307	0.030344
443.0505	0.032983
443.2703	0.033173
443.4902	0.032983
443.7101	0.032519
443.9299	0.032920
444.1498	0.034271
444.3697	0.031231
444.5896	0.033258
444.8095	0.032350
445.0295	0.031484
445.2494	0.030808
445.4694	0.030682
445.6894	0.029415
445.9093	0.030956
446.1293	0.028971
446.3493	0.030006
446.5694	0.030196
446.7894	0.030851
447.0094	0.029225
447.2295	0.028929
447.4496	0.028507
447.6696	0.026649
447.8897	0.028275
448.1098	0.028275
448.3300	0.027535
448.5501	0.028443
448.7702	0.028000
448.9904	0.028253
449.2106	0.025741
449.4307	0.028718
449.6509	0.025318
449.8711	0.028633
450.0914	0.027726
450.3116	0.025508
450.5318	0.024389
450.7521	0.028718
450.9724	0.025234
451.1926	0.025508
451.4129	0.027873
451.6332	0.024685
451.8535	0.026163
452.0739	0.026923
452.2942	0.023249
452.5146	0.024579
452.7349	0.022193
452.9553	0.022785
453.1757	0.021750
453.3961	0.021961
453.6165	0.021898
453.8369	0.022236
454.0574	0.020652
454.2778	0.021560
454.4983	0.020884
454.7188	0.019702
454.9393	0.021349
455.1597	0.023967
455.3803	0.021708
455.6008	0.021961
455.8213	0.021623
456.0419	0.023313
456.2624	0.020758
456.4830	0.019449
456.7036	0.020610
456.9242	0.020082
457.1448	0.019491
457.3654	0.019681
457.5860	0.020166
457.8067	0.020779
458.0274	0.020441
458.2480	0.021919
458.4687	0.020969
458.6894	0.021898
458.9101	0.022046
459.1308	0.021180
459.3516	0.020504
459.5723	0.020821
459.7931	0.019195
460.0138	0.019955
460.2346	0.020842
460.4554	0.020504
460.6762	0.019216
460.8970	0.020082
461.1178	0.017400
461.3387	0.018752
461.5595	0.018773
461.7804	0.018393
462.0013	0.016957
462.2222	0.015965
462.4431	0.016366
462.6640	0.017949
462.8849	0.016366
463.1059	0.016492
463.3268	0.017210
463.5478	0.015521
463.7687	0.020019
463.9897	0.015416
464.2107	0.018646
464.4317	0.016746
464.6528	0.017590
464.8738	0.016830
465.0948	0.016535
465.3159	0.017020
465.5370	0.018963
465.7581	0.018139
465.9792	0.017168
466.2003	0.017485
466.4214	0.016366
466.6425	0.015416
466.8637	0.013515
467.0848	0.014698
467.3060	0.014296
467.5272	0.014275
467.7484	0.013093
467.9696	0.014254
468.1908	0.012945
468.4120	0.013959
468.6333	0.013663
468.8545	0.012502
469.0758	0.012164
469.2970	0.012248
469.5183	0.010327
469.7396	0.011742
469.9610	0.011193
470.1823	0.012375
470.4036	0.011340
470.6250	0.010876
470.8463	0.009883
471.0677	0.010454
471.2891	0.009588
471.5105	0.009482
471.7319	0.010010
471.9533	0.008933
472.1748	0.009060
472.3962	0.009503
472.6177	0.010411
472.8391	0.009271
473.0606	0.010369
473.2821	0.011404
473.5036	0.011573
473.7251	0.010348
473.9467	0.009651
474.1682	0.007413
474.3898	0.008089
474.6113	0.009398
474.8329	0.007709
475.0545	0.009778
475.2761	0.009862
475.4977	0.010348
475.7193	0.008532
475.9410	0.009862
476.1626	0.008828
476.3843	0.008511
476.6060	0.007793
476.8277	0.008659
477.0494	0.009525
477.2711	0.007624
477.4928	0.007878
477.7145	0.007814
477.9363	0.007307
478.1580	0.009313
478.3798	0.008363
478.6016	0.007582
478.8234	0.010052
479.0452	0.008363
479.2670	0.007856
479.4888	0.007286
479.7107	0.008469
479.9325	0.005280
480.1544	0.007561
480.3763	0.007371
480.5982	0.008617
480.8201	0.007603
481.0420	0.008384
481.2639	0.007814
481.4859	0.007688
481.7078	0.006843
481.9298	0.007603
482.1517	0.008110
482.3737	0.006822
482.5957	0.007286
482.8177	0.008427
483.0398	0.005787
483.2618	0.006125
483.4838	0.006674
483.7059	0.008617
483.9280	0.006991
484.1501	0.006906
484.3721	0.005766
484.5943	0.007561
484.8164	0.008152
485.0385	0.006927
485.2606	0.005766
485.4828	0.009271
485.7050	0.016176
485.9271	0.021370
486.1493	0.020420
486.3715	0.018900
486.5937	0.014149
486.8160	0.012312
487.0382	0.011552
487.2605	0.011214
487.4827	0.008870
487.7050	0.006526
487.9273	0.006273
488.1496	0.005470
488.3719	0.004879
488.5942	0.006653
488.8165	0.005428
489.0389	0.004795
489.2612	0.004457
489.4836	0.004225
489.7060	0.003612
489.9284	0.005090
490.1508	0.004922
490.3732	0.004309
490.5956	0.005365
490.8180	0.004520
491.0405	0.005365
491.2630	0.004922
491.4854	0.004225
491.7079	0.004436
491.9304	0.004182
492.1529	0.005027
492.3755	0.004035
492.5980	0.004879
492.8205	0.003781
493.0431	0.005238
493.2657	0.003401
493.4882	0.004246
493.7108	0.004415
493.9334	0.003718
494.1561	0.003908
494.3787	0.002873
494.6013	0.003085
494.8240	0.004774
495.0466	0.004288
495.2693	0.003359
495.4920	0.002493
495.7147	0.003549
495.9374	0.004351
496.1601	0.004774
496.3829	0.003781
496.6056	0.004119
496.8284	0.003950
497.0511	0.003992
497.2739	0.003000
497.4967	0.004267
497.7195	0.003528
497.9423	0.004415
498.1652	0.002894
498.3880	0.004584
498.6109	0.004309
498.8337	0.004182
499.0566	0.003127
499.2795	0.003739
499.5024	0.003950
499.7253	0.003021
499.9482	0.003042
500.1712	0.003718
500.3941	0.003148
500.6171	0.002937
500.8400	0.002641
501.0630	0.002768
501.2860	0.003465
501.5090	0.003528
501.7320	0.003570
501.9551	0.003042
502.1781	0.002367
502.4012	0.003655
502.6242	0.004288
502.8473	0.003802
503.0704	0.000614
503.2935	0.004161
503.5166	0.003465
503.7397	0.004605
503.9628	0.003359
504.1860	0.003781
504.4092	0.002958
504.6323	0.002916
504.8555	0.001818
505.0787	0.004225
505.3019	0.003042
505.5251	0.004225
505.7483	0.002472
505.9716	0.003655
506.1948	0.003443
506.4181	0.003676
506.6414	0.003021
506.8647	0.002831
507.0880	0.001839
507.3113	0.002641
507.5346	0.002008
507.7579	0.002831
507.9813	0.003106
508.2046	0.004014
508.4280	0.002536
508.6514	0.003085
508.8748	0.004161
509.0982	0.003612
509.3216	0.003359
509.5450	0.003612
509.7685	0.002578
509.9919	0.002578
510.2154	0.003401
510.4388	0.004140
510.6623	0.003887
510.8858	0.002662
511.1093	0.002768
511.3329	0.003676
511.5564	0.001712
511.7799	0.003127
512.0035	0.002958
512.2270	0.002916
512.4506	0.003929
512.6742	0.002894
512.8978	0.003211
513.1214	0.004182
513.3451	0.002472
513.5687	0.002916
513.7923	0.001163
514.0160	0.003655
514.2397	0.002704
514.4634	0.002810
514.6871	0.003866
514.9108	0.002514
515.1345	0.002451
515.3582	0.001585
515.5819	0.002282
515.8057	0.002451
516.0295	0.003380
516.2532	0.003275
516.4770	0.002683
516.7008	0.002409
516.9246	0.003021
517.1485	0.004140
517.3723	0.003042
517.5961	0.001585
517.8200	0.003000
518.0439	0.003802
518.2677	0.002916
518.4916	0.003612
518.7155	0.002367
518.9395	0.002282
519.1634	0.002894
519.3873	0.002810
519.6113	0.002578
519.8352	0.003296
520.0592	0.002641
520.2832	0.002261
520.5072	0.003169
520.7312	0.003887
520.9552	0.003781
521.1792	0.001923
521.4033	0.002662
521.6273	0.002852
521.8514	0.004710
522.0755	0.003275
522.2996	0.002852
522.5237	0.003106
522.7478	0.003422
522.9719	0.002493
523.1960	0.002768
523.4202	0.003127
523.6443	0.003802
523.8685	0.003359
524.0927	0.003992
524.3169	0.002747
524.5411	0.002958
524.7653	0.003739
524.9895	0.003042
525.2138	0.003549
525.4380	0.003718
525.6623	0.002493
525.8865	0.004478
526.1108	0.004056
526.3351	0.005449
526.5594	0.004035
526.7837	0.003296
527.0081	0.004478
527.2324	0.003106
527.4568	0.002683
527.6811	0.003570
527.9055	0.003781
528.1299	0.004182
528.3543	0.003232
528.5787	0.004837
528.8031	0.004330
529.0276	0.005006
529.2520	0.005829
529.4765	0.006716
529.7009	0.003739
529.9254	0.005217
530.1499	0.004373
530.3744	0.003802
530.5989	0.003866
530.8234	0.005112
531.0480	0.005217
531.2725	0.004922
531.4971	0.003655
531.7217	0.005386
531.9462	0.005259
532.1708	0.004204
532.3954	0.004943
532.6200	0.006949
532.8447	0.004161
533.0693	0.006273
533.2940	0.006505
533.5186	0.006484
533.7433	0.008047
533.9680	0.008068
534.1927	0.006906
534.4174	0.006970
534.6421	0.007075
534.8668	0.007139
535.0916	0.007878
535.3163	0.008152
535.5411	0.007371
535.7659	0.008025
535.9907	0.007709
536.2155	0.008342
536.4403	0.006801
536.6651	0.008194
536.8899	0.007012
537.1148	0.008215
537.3396	0.008448
537.5645	0.007286
537.7894	0.006315
538.0143	0.008617
538.2392	0.007941
538.4641	0.009356
538.6890	0.007983
538.9139	0.008511
539.1389	0.008997
539.3638	0.008976
539.5888	0.009989
539.8138	0.009905
540.0388	0.008786
540.2638	0.010981
540.4888	0.011003
540.7138	0.010918
540.9389	0.010559
541.1639	0.012101
541.3890	0.009968
541.6140	0.011530
541.8391	0.010728
542.0642	0.012987
542.2893	0.010855
542.5144	0.012396
542.7396	0.012692
542.9647	0.012776
543.1899	0.011720
543.4150	0.013705
543.6402	0.012797
543.8654	0.014106
544.0906	0.015500
544.3158	0.015563
544.5410	0.014106
544.7662	0.014761
544.9915	0.015901
545.2167	0.014529
545.4420	0.016830
545.6673	0.014698
545.8926	0.013600
546.1179	0.014212
546.3432	0.015268
546.5685	0.015986
546.7938	0.016091
547.0192	0.015141
547.2445	0.015627
547.4699	0.017844
547.6953	0.017738
547.9206	0.018836
548.1460	0.020188
548.3715	0.017907
548.5969	0.019913
548.8223	0.019807
549.0478	0.018604
549.2732	0.018773
549.4987	0.017126
549.7242	0.018393
549.9496	0.017274
550.1751	0.018773
550.4007	0.017949
550.6262	0.019575
550.8517	0.019470
551.0773	0.018857
551.3028	0.015965
551.5284	0.018836
551.7540	0.019068
551.9796	0.021180
552.2052	0.022552
552.4308	0.019850
552.6564	0.022510
552.8820	0.020905
553.1077	0.023460
553.3333	0.022193
553.5590	0.023270
553.7847	0.023883
554.0104	0.023862
554.2361	0.022806
554.4618	0.021919
554.6875	0.020927
554.9132	0.024516
555.1390	0.022827
555.3648	0.024537
555.5905	0.026163
555.8163	0.024769
556.0421	0.026923
556.2679	0.025466
556.4937	0.027155
556.7195	0.025994
556.9454	0.025889
557.1712	0.026290
557.3971	0.025952
557.6230	0.022742
557.8488	0.027092
558.0747	0.026670
558.3006	0.027831
558.5266	0.024432
558.7525	0.025551
558.9784	0.022848
559.2044	0.023587
559.4303	0.026226
559.6563	0.026100
559.8823	0.025973
560.1083	0.029246
560.3343	0.029478
560.5603	0.030217
560.7863	0.031231
561.0124	0.032835
561.2384	0.033258
561.4645	0.037502
561.6905	0.032075
561.9166	0.034715
562.1427	0.034292
562.3688	0.035242
562.5949	0.031737
562.8211	0.033933
563.0472	0.033997
563.2733	0.035158
563.4995	0.034841
563.7257	0.037101
563.9519	0.036889
564.1781	0.038325
564.4043	0.039001
564.6305	0.040035
564.8567	0.038515
565.0829	0.040880
565.3092	0.039550
565.5355	0.039529
565.7617	0.037924
565.9880	0.039318
566.2143	0.041704
566.4406	0.042253
566.6669	0.043034
566.8932	0.045103
567.1196	0.047721
567.3459	0.050340
567.5723	0.051712
567.7987	0.056716
568.0250	0.054731
568.2514	0.058997
568.4778	0.060834
568.7043	0.063937
568.9307	0.069533
569.1571	0.071433
569.3836	0.079520
569.6100	0.086467
569.8365	0.094913
570.0630	0.100952
570.2895	0.106252
570.5160	0.103464
570.7425	0.106209
570.9690	0.115289
571.1956	0.119047
571.4221	0.128295
571.6487	0.126775
571.8752	0.132265
572.1018	0.137269
572.3284	0.138726
572.5550	0.128908
572.7816	0.121708
573.0082	0.120589
573.2349	0.124474
573.4615	0.138832
573.6882	0.152366
573.9149	0.154457
574.1415	0.158637
574.3682	0.168414
574.5949	0.175086
574.8216	0.177282
575.0484	0.172341
575.2751	0.174854
575.5018	0.174790
575.7286	0.169300
575.9554	0.161995
576.1821	0.156083
576.4089	0.167379
576.6357	0.174072
576.8626	0.184735
577.0894	0.189803
577.3162	0.187206
577.5431	0.196792
577.7699	0.213853
577.9968	0.251691
578.2237	0.241872
578.4505	0.229900
578.6774	0.214866
578.9044	0.205238
579.1313	0.193941
579.3582	0.193414
579.5851	0.199980
579.8121	0.205217
580.0391	0.210728
580.2660	0.210031
580.4930	0.208891
580.7200	0.205132
580.9470	0.205702
581.1741	0.240584
581.4011	0.291112
581.6281	0.322045
581.8552	0.326500
582.0822	0.319237
582.3093	0.307814
582.5364	0.291661
582.7635	0.268160
582.9906	0.240394
583.2177	0.225529
583.4449	0.212670
583.6720	0.201606
583.8991	0.192970
584.1263	0.200572
584.3535	0.199600
584.5807	0.202810
584.8079	0.211171
585.0351	0.229541
585.2623	0.236530
585.4895	0.238346
585.7167	0.239465
585.9440	0.230935
586.1713	0.218139
586.3985	0.204372
586.6258	0.199727
586.8531	0.202218
587.0804	0.211741
587.3077	0.223756
587.5350	0.231821
587.7624	0.229837
587.9897	0.222679
588.2171	0.206125
588.4445	0.201923
588.6718	0.202007
588.8992	0.188705
589.1266	0.181273
589.3540	0.170335
589.5815	0.166323
589.8089	0.166450
590.0363	0.160052
590.2638	0.158996
590.4913	0.150762
590.7187	0.143836
590.9462	0.136192
591.1737	0.131822
591.4012	0.131294
591.6288	0.131273
591.8563	0.132898
592.0838	0.129393
592.3114	0.133025
592.5389	0.154541
592.7665	0.179034
592.9941	0.197404
593.2217	0.203232
593.4493	0.201860
593.6769	0.196475
593.9046	0.197974
594.1322	0.185284
594.3598	0.176986
594.5875	0.168730
594.8152	0.182835
595.0429	0.195166
595.2705	0.199347
595.4983	0.195039
595.7260	0.185981
595.9537	0.174664
596.1814	0.166239
596.4092	0.153253
596.6369	0.148122
596.8647	0.143899
597.0925	0.150403
597.3203	0.151733
597.5481	0.151733
597.7759	0.151121
598.0037	0.146518
598.2315	0.142611
598.4594	0.143583
598.6872	0.153908
598.9151	0.174136
599.1430	0.187839
599.3709	0.183616
599.5988	0.174685
599.8267	0.177767
600.0546	0.184545
600.2825	0.185411
600.5105	0.180892
600.7384	0.179309
600.9664	0.183785
601.1944	0.187142
601.4223	0.184524
601.6503	0.178464
601.8783	0.173587
602.1064	0.168393
602.3344	0.166598
602.5624	0.169934
602.7905	0.173186
603.0185	0.175023
603.2466	0.179942
603.4747	0.188262
603.7028	0.187227
603.9309	0.186931
604.1590	0.174790
604.3871	0.172299
604.6152	0.163515
604.8434	0.153866
605.0715	0.156610
605.2997	0.155470
605.5279	0.163008
605.7561	0.173164
605.9843	0.175593
606.2125	0.175001
606.4407	0.166661
606.6689	0.157624
606.8972	0.157096
607.1254	0.159778
607.3537	0.156442
607.5819	0.159250
607.8102	0.158257
608.0385	0.157159
608.2668	0.153422
608.4951	0.150846
608.7235	0.149643
608.9518	0.142590
609.1801	0.138578
609.4085	0.134862
609.6369	0.133152
609.8653	0.142844
610.0936	0.149579
610.3220	0.151796
610.5505	0.148481
610.7789	0.143245
611.0073	0.137354
611.2357	0.139254
611.4642	0.138599
611.6927	0.138768
611.9211	0.134567
612.1496	0.134271
612.3781	0.128359
612.6066	0.130470
612.8351	0.130745
613.0637	0.129267
613.2922	0.127873
613.5208	0.127662
613.7493	0.127366
613.9779	0.127599
614.2065	0.129034
614.4351	0.128464
614.6637	0.127472
614.8923	0.128063
615.1209	0.126268
615.3495	0.130132
615.5782	0.130639
615.8068	0.133215
616.0355	0.124263
616.2642	0.122975
616.4929	0.116830
616.7216	0.113515
616.9503	0.111256
617.1790	0.111763
617.4077	0.108933
617.6365	0.113072
617.8652	0.112333
618.0940	0.108194
618.3227	0.104921
618.5515	0.102789
618.7803	0.096328
619.0091	0.093224
619.2379	0.091366
619.4667	0.089296
619.6956	0.089212
619.9244	0.094111
620.1533	0.096855
620.3821	0.098165
620.6110	0.095652
620.8399	0.087607
621.0688	0.083490
621.2977	0.076416
621.5266	0.073819
621.7556	0.078718
621.9845	0.082244
622.2135	0.084630
622.4424	0.082751
622.6714	0.084989
622.9004	0.086235
623.1294	0.091302
623.3584	0.090732
623.5874	0.090521
623.8164	0.090289
624.0454	0.085665
624.2745	0.087079
624.5035	0.090225
624.7326	0.092442
624.9617	0.089402
625.1908	0.084714
625.4199	0.083025
625.6490	0.081252
625.8781	0.079964
626.1072	0.078063
626.3364	0.077557
626.5655	0.070568
626.7947	0.072257
627.0238	0.069427
627.2530	0.068393
627.4822	0.071074
627.7114	0.071307
627.9406	0.070103
628.1698	0.065817
628.3991	0.062692
628.6283	0.059736
628.8576	0.058659
629.0868	0.059799
629.3161	0.061150
629.5454	0.063600
629.7747	0.061087
630.0040	0.060834
630.2333	0.061171
630.4626	0.058152
630.6920	0.056758
630.9213	0.056589
631.1507	0.056674
631.3801	0.054985
631.6094	0.051860
631.8388	0.054394
632.0682	0.052894
632.2976	0.050994
632.5271	0.049453
632.7565	0.046497
632.9859	0.043773
633.2154	0.043393
633.4448	0.043942
633.6743	0.043688
633.9038	0.045272
634.1333	0.044026
634.3628	0.041915
634.5923	0.044195
634.8218	0.040606
635.0514	0.043899
635.2809	0.038853
635.5105	0.041556
635.7400	0.040247
635.9696	0.040943
636.1992	0.043013
636.4288	0.047067
636.6584	0.043414
636.8880	0.045314
637.1177	0.044617
637.3473	0.042654
637.5770	0.040437
637.8066	0.041978
638.0363	0.041239
638.2660	0.042548
638.4957	0.042041
638.7254	0.042611
638.9551	0.041323
639.1848	0.039698
639.4145	0.042421
639.6443	0.040208
639.8740	0.038219
640.1038	0.034710
640.3336	0.036922
640.5633	0.037186
640.7931	0.036912
641.0229	0.036370
641.2528	0.035890
641.4826	0.033375
641.7124	0.032328
641.9423	0.030899
642.1721	0.029784
642.4020	0.030874
642.6319	0.029422
642.8617	0.029531
643.0916	0.029778
643.3216	0.031535
643.5515	0.027966
643.7814	0.026865
644.0113	0.029847
644.2413	0.027497
644.4712	0.028938
644.7012	0.026993
644.9312	0.026837
645.1612	0.026207
645.3912	0.027242
645.6212	0.026797
645.8512	0.027243
646.0812	0.024769
646.3113	0.025264
646.5413	0.025196
646.7714	0.026343
647.0015	0.023288
647.2316	0.026289
647.4616	0.024423
647.6918	0.025181
647.9219	0.026823
648.1520	0.031059
648.3821	0.030476
648.6123	0.031488
648.8424	0.032331
649.0726	0.032814
649.3028	0.034172
649.5329	0.033631
649.7631	0.031656
649.9933	0.033346
650.2236	0.030920
650.4538	0.029463
650.6840	0.028678
650.9143	0.030543
651.1445	0.027569
651.3748	0.029398
651.6051	0.028224
651.8354	0.029401
652.0657	0.031915
652.2960	0.030494
652.5263	0.030705
652.7566	0.032861
652.9870	0.033063
653.2173	0.031200
653.4477	0.031991
653.6780	0.031873
653.9084	0.029666
654.1388	0.033197
654.3692	0.033471
654.5996	0.036569
654.8300	0.041214
655.0605	0.065747
655.2909	0.187362
655.5213	0.528609
655.7518	0.956030
655.9823	1.013447
656.2128	1.004490
656.4433	1.006725
656.6738	1.005680
656.9043	1.013171
657.1348	0.867912
657.3653	0.717589
657.5959	0.617598
657.8264	0.535872
658.0570	0.487875
658.2875	0.454635
658.5181	0.411737
658.7487	0.380607
658.9793	0.373668
659.2099	0.331543
659.4406	0.256765
659.6712	0.166720
659.9018	0.099877
660.1325	0.061865
660.3632	0.040719
660.5938	0.032436
660.8245	0.026728
661.0552	0.024258
661.2859	0.023088
661.5166	0.023638
661.7474	0.025144
661.9781	0.021094
662.2088	0.022081
662.4396	0.023527
662.6704	0.023385
662.9011	0.023935
663.1319	0.022701
663.3627	0.023904
663.5935	0.022032
663.8243	0.019874
664.0552	0.024039
664.2860	0.021950
664.5168	0.021565
664.7477	0.023456
664.9786	0.023331
665.2094	0.023161
665.4403	0.022906
665.6712	0.024936
665.9021	0.024321
666.1330	0.024094
666.3640	0.022761
666.5949	0.021388
666.8259	0.020051
667.0568	0.021914
667.2878	0.021432
667.5188	0.021117
667.7497	0.019175
667.9807	0.021912
668.2117	0.021366
668.4428	0.022489
668.6738	0.020314
668.9048	0.021982
669.1359	0.020568
669.3669	0.022362
669.5980	0.019998
669.8291	0.021117
670.0602	0.022130
670.2913	0.022236
670.5224	0.022405
670.7535	0.022130
670.9846	0.022552
671.2157	0.024178
671.4469	0.026121
671.6781	0.027092
671.9092	0.030851
672.1404	0.033511
672.3716	0.034187
672.6028	0.036277
672.8340	0.032920
673.0652	0.033701
673.2964	0.032666
673.5277	0.030217
673.7589	0.031104
673.9902	0.030576
674.2214	0.030872
674.4527	0.028042
674.6840	0.026205
674.9153	0.025551
675.1466	0.024157
675.3779	0.027345
675.6093	0.025889
675.8406	0.024411
676.0719	0.024685
676.3033	0.025128
676.5347	0.024136
676.7661	0.024009
676.9974	0.024833
677.2288	0.022996
677.4602	0.024305
677.6917	0.028380
677.9231	0.027747
678.1545	0.029837
678.3860	0.027852
678.6174	0.029182
678.8489	0.029563
679.0804	0.031188
679.3119	0.032413
679.5434	0.035770
679.7749	0.037375
680.0064	0.032814
680.2379	0.034102
680.4694	0.034799
680.7010	0.035073
680.9325	0.032856
681.1641	0.031167
681.3957	0.036425
681.6273	0.034609
681.8589	0.031970
682.0905	0.032329
682.3221	0.033131
682.5537	0.033448
682.7854	0.029964
683.0170	0.032075
683.2487	0.030808
683.4803	0.031167
683.7120	0.031273
683.9437	0.032920
684.1754	0.032476
684.4071	0.034546
684.6388	0.037776
684.8705	0.039001
685.1023	0.040965
685.3340	0.042041
685.5658	0.046433
685.7975	0.044301
686.0293	0.045019
686.2611	0.044491
686.4929	0.042675
686.7247	0.043118
686.9565	0.043519
687.1883	0.042992
687.4202	0.046201
687.6520	0.043097
687.8838	0.041218
688.1157	0.039655
688.3476	0.037396
688.5795	0.038177
688.8114	0.037164
689.0433	0.034609
689.2752	0.038051
689.5071	0.036720
689.7390	0.037269
689.9710	0.033089
690.2029	0.032455
690.4349	0.034482
690.6669	0.032645
690.8988	0.034546
691.1308	0.039655
691.3628	0.038410
691.5948	0.040437
691.8269	0.037671
692.0589	0.037565
692.2909	0.036319
692.5230	0.039128
692.7550	0.036953
692.9871	0.038853
693.2192	0.038684
693.4513	0.039360
693.6834	0.040268
693.9155	0.036805
694.1476	0.034081
694.3797	0.034651
694.6119	0.032413
694.8440	0.034862
695.0762	0.032519
695.3083	0.033025
695.5405	0.032371
695.7727	0.030302
696.0049	0.030069
696.2371	0.029098
696.4693	0.033236
696.7016	0.036699
696.9338	0.039655
697.1660	0.039318
697.3983	0.038684
697.6306	0.039613
697.8628	0.037143
698.0951	0.037016
698.3274	0.037016
698.5597	0.038832
698.7920	0.036256
699.0243	0.034862
699.2567	0.034693
699.4890	0.034039
699.7214	0.035200
699.9537	0.031273
700.1861	0.031906
700.4185	0.031357
700.6509	0.033680
700.8833	0.031695
701.1157	0.030133
701.3481	0.025445
701.5806	0.031378
701.8130	0.029668
702.0454	0.030006
702.2779	0.031273
702.5104	0.029900
702.7429	0.030787
702.9753	0.031104
703.2078	0.029415
703.4403	0.029372
703.6729	0.028992
703.9054	0.028486
704.1379	0.026902
704.3705	0.028718
704.6030	0.025213
704.8356	0.025614
705.0682	0.025002
705.3008	0.024242
705.5334	0.023756
705.7660	0.023397
705.9986	0.026628
706.2312	0.027578
706.4638	0.030069
706.6965	0.033279
706.9291	0.032413
707.1618	0.038726
707.3945	0.035770
707.6272	0.039170
707.8599	0.038008
708.0926	0.039064
708.3253	0.037945
708.5580	0.037502
708.7907	0.035960
709.0235	0.036087
709.2562	0.033764
709.4890	0.032371
709.7217	0.035918
709.9545	0.036298
710.1873	0.032856
710.4201	0.034567
710.6529	0.034841
710.8857	0.033722
711.1186	0.033680
711.3514	0.030787
711.5842	0.032202
711.8171	0.029309
712.0500	0.028063
712.2828	0.029478
712.5157	0.028443
712.7486	0.028866
712.9815	0.028845
713.2144	0.029837
713.4474	0.031231
713.6803	0.032561
713.9132	0.033511
714.1462	0.033300
714.3791	0.036720
714.6121	0.033300
714.8451	0.035559
715.0781	0.032688
715.3111	0.034018
715.5441	0.035221
715.7771	0.033046
716.0102	0.033954
716.2432	0.029605
716.4762	0.029626
716.7093	0.030217
716.9424	0.028507
717.1754	0.028063
717.4085	0.027704
717.6416	0.027282
717.8747	0.027134
718.1078	0.030745
718.3410	0.029774
718.5741	0.026628
718.8072	0.027578
719.0404	0.028275
719.2736	0.029710
719.5067	0.030090
719.7399	0.025889
719.9731	0.029499
720.2063	0.029520
720.4395	0.026374
720.6727	0.029035
720.9060	0.028591
721.1392	0.030238
721.3725	0.029415
721.6057	0.029288
721.8390	0.029710
722.0723	0.030998
722.3055	0.026965
722.5388	0.027747
722.7721	0.026670
723.0055	0.028253
723.2388	0.027029
723.4721	0.029056
723.7055	0.027514
723.9388	0.027873
724.1722	0.027768
724.4056	0.027894
724.6389	0.027388
724.8723	0.027620
725.1057	0.030069
725.3391	0.030872
725.5726	0.031294
725.8060	0.033743
726.0394	0.034102
726.2729	0.034187
726.5063	0.033025
726.7398	0.030914
726.9733	0.031653
727.2068	0.032561
727.4403	0.031590
727.6738	0.032054
727.9073	0.032350
728.1408	0.032476
728.3743	0.034905
728.6079	0.033680
728.8414	0.032751
729.0750	0.035073
729.3086	0.034862
729.5421	0.036340
729.7757	0.037755
730.0093	0.033912
730.2429	0.035813
730.4766	0.036742
730.7102	0.039170
730.9438	0.042231
731.1775	0.042780
731.4111	0.044111
731.6448	0.041112
731.8785	0.042062
732.1122	0.041725
732.3458	0.041133
732.5795	0.041556
732.8133	0.041915
733.0470	0.043477
733.2807	0.044554
733.5145	0.043688
733.7482	0.045631
733.9820	0.048376
734.2157	0.051311
734.4495	0.050065
734.6833	0.051057
734.9171	0.048587
735.1509	0.049622
735.3847	0.050002
735.6185	0.047742
735.8524	0.048460
736.0862	0.046518
736.3201	0.048101
736.5539	0.048671
736.7878	0.047299
737.0217	0.048291
737.2556	0.048228
737.4895	0.048080
737.7234	0.045800
737.9573	0.043118
738.1912	0.041514
738.4252	0.039128
738.6591	0.040880
738.8931	0.042886
739.1271	0.045821
739.3610	0.047320
739.5950	0.048080
739.8290	0.045779
740.0630	0.044090
740.2970	0.039867
740.5310	0.038536
740.7651	0.037206
740.9991	0.037565
741.2332	0.036636
741.4672	0.033870
741.7013	0.032139
741.9354	0.031991
742.1695	0.033490
742.4036	0.035728
742.6377	0.033764
742.8718	0.035137
743.1059	0.035369
743.3400	0.032117
743.5742	0.029731
743.8083	0.028697
744.0425	0.030344
744.2767	0.029647
744.5108	0.028760
744.7450	0.028971
744.9792	0.029795
745.2134	0.031146
745.4477	0.027557
745.6819	0.028042
745.9161	0.027345
746.1504	0.028866
746.3846	0.031146
746.6189	0.027683
746.8532	0.027155
747.0874	0.029774
747.3217	0.032540
747.5560	0.029921
747.7903	0.028380
748.0247	0.028866
748.2590	0.029014
748.4933	0.027704
748.7277	0.028697
748.9620	0.029225
749.1964	0.030069
749.4308	0.031927
749.6652	0.032814
749.8995	0.036066
750.1339	0.037396
750.3684	0.040310
750.6028	0.041176
750.8372	0.037248
751.0717	0.038346
751.3061	0.037755
751.5406	0.039655
751.7750	0.036742
752.0095	0.038304
752.2440	0.038177
752.4785	0.038346
752.7130	0.037924
752.9475	0.037903
753.1820	0.035116
753.4166	0.036657
753.6511	0.039740
753.8856	0.040880
754.1202	0.042548
754.3548	0.041155
754.5894	0.040458
754.8239	0.037734
755.0585	0.040014
755.2931	0.041872
755.5278	0.041450
755.7624	0.042654
755.9970	0.043646
756.2317	0.046328
756.4663	0.048503
756.7010	0.049178
756.9356	0.052008
757.1703	0.053528
757.4050	0.054921
757.6397	0.056906
757.8744	0.059398
758.1091	0.059102
758.3438	0.055280
758.5786	0.054520
758.8133	0.051311
759.0481	0.053106
759.2828	0.056906
759.5176	0.058321
759.7524	0.057138
759.9872	0.058068
760.2220	0.060454
760.4568	0.063937
760.6916	0.064634
760.9264	0.061256
761.1613	0.062438
761.3961	0.059398
761.6310	0.055407
761.8658	0.055766
762.1007	0.051965
762.3356	0.047975
762.5705	0.047616
762.8054	0.047848
763.0403	0.049052
763.2752	0.050002
763.5101	0.051247
763.7450	0.050825
763.9800	0.048334
764.2149	0.052493
764.4499	0.054710
764.6849	0.057117
764.9198	0.060158
765.1548	0.058046
765.3898	0.055259
765.6248	0.056167
765.8599	0.054605
766.0949	0.050530
766.3299	0.046771
766.5650	0.044660
766.8000	0.041408
767.0351	0.040859
767.2701	0.036974
767.5052	0.038262
767.7403	0.037143
767.9754	0.040542
768.2105	0.042696
768.4456	0.044850
768.6808	0.048122
768.9159	0.049178
769.1510	0.047827
769.3862	0.046729
769.6214	0.047468
769.8565	0.043034
770.0917	0.044913
770.3269	0.044955
770.5621	0.043118
770.7973	0.045863
771.0325	0.047236
771.2677	0.048650
771.5030	0.046856
771.7382	0.045568
771.9735	0.043604
772.2087	0.041155
772.4440	0.039212
772.6793	0.040880
772.9146	0.040141
773.1499	0.039085
773.3852	0.039698
773.6205	0.038367
773.8558	0.037101
774.0911	0.034525
774.3265	0.035348
774.5618	0.034250
774.7972	0.031632
775.0326	0.031716
775.2679	0.030048
775.5033	0.029563
775.7387	0.026881
775.9741	0.027641
776.2095	0.026987
776.4450	0.026121
776.6804	0.025931
776.9158	0.027789
777.1513	0.023629
777.3868	0.022383
777.6222	0.025171
777.8577	0.023714
778.0932	0.025867
778.3287	0.024664
778.5642	0.027662
778.7997	0.028718
779.0352	0.027958
779.2707	0.031336
779.5063	0.032160
779.7418	0.030048
779.9774	0.028950
780.2130	0.029753
780.4485	0.026712
780.6841	0.027747
780.9197	0.030618
781.1553	0.031568
781.3909	0.033131
781.6265	0.035791
781.8622	0.035095
782.0978	0.035052
782.3335	0.035559
782.5691	0.032582
782.8048	0.035010
783.0405	0.034588
783.2761	0.034862
783.5118	0.033954
783.7475	0.034503
783.9832	0.033215
784.2190	0.032265
784.4547	0.032835
784.6904	0.028253
784.9262	0.029035
785.1619	0.028929
785.3977	0.028866
785.6335	0.028486
785.8692	0.026269
786.1050	0.029563
786.3408	0.028697
786.5766	0.030133
786.8124	0.026649
787.0483	0.029330
787.2841	0.026332
787.5199	0.030618
787.7558	0.029900
787.9917	0.030682
788.2275	0.030090
788.4634	0.029056
788.6993	0.030724
788.9352	0.032603
789.1711	0.030682
789.4070	0.027831
789.6429	0.027894
789.8789	0.027979
790.1148	0.028106
790.3507	0.026353
790.5867	0.025213
790.8227	0.024685
791.0586	0.023207
791.2946	0.024305
791.5306	0.024664
791.7666	0.024136
792.0026	0.022278
792.2387	0.023101
792.4747	0.022046
792.7107	0.022658
792.9468	0.020842
793.1828	0.022679
793.4189	0.022426
793.6550	0.022827
793.8910	0.026100
794.1271	0.030302
794.3632	0.032139
794.5993	0.031104
794.8355	0.030618
795.0716	0.029837
795.3077	0.031547
795.5439	0.030576
795.7800	0.031801
796.0162	0.027937
796.2523	0.025699
796.4885	0.024706
796.7247	0.021961
796.9609	0.021433
797.1971	0.022954
797.4333	0.021750
797.6695	0.023122
797.9058	0.024495
798.1420	0.022764
798.3783	0.023101
798.6145	0.021856
798.8508	0.024199
799.0871	0.022890
799.3233	0.022341
799.5596	0.020673
799.7959	0.021518
800.0322	0.020040
800.2686	0.020610
800.5049	0.018857
800.7412	0.019153
800.9776	0.019955
801.2139	0.020061
801.4503	0.018308
801.6867	0.017970
801.9230	0.016746
802.1594	0.017189
802.3958	0.014867
802.6322	0.017802
802.8686	0.014803
803.1051	0.016302
803.3415	0.017886
803.5779	0.017654
803.8144	0.018266
804.0508	0.016028
804.2873	0.015036
804.5238	0.018541
804.7603	0.017421
804.9968	0.018435
805.2333	0.016218
805.4698	0.017274
805.7063	0.018646
805.9428	0.020230
806.1794	0.021497
806.4159	0.022721
806.6525	0.023186
806.8890	0.025276
807.1256	0.022975
807.3622	0.023418
807.5988	0.022025
807.8354	0.024157
808.0720	0.022151
808.3086	0.021581
808.5452	0.023080
808.7818	0.023608
809.0185	0.022193
809.2551	0.022510
809.4918	0.021159
809.7284	0.020314
809.9651	0.021792
810.2018	0.020082
810.4385	0.017485
810.6752	0.019533
810.9119	0.019786
811.1486	0.018435
811.3853	0.018984
811.6221	0.016556
811.8588	0.016619
812.0956	0.015310
812.3323	0.015120
812.5691	0.017548
812.8059	0.013030
813.0427	0.013663
813.2795	0.012396
813.5163	0.016767
813.7531	0.018456
813.9899	0.019639
814.2267	0.017633
814.4636	0.019829
814.7004	0.018646
814.9373	0.016429
815.1742	0.014867
815.4110	0.016345
815.6479	0.015247
815.8848	0.012776
816.1217	0.014318
816.3586	0.012840
816.5955	0.014719
816.8324	0.014212
817.0694	0.015732
817.3063	0.012924
817.5433	0.013895
817.7802	0.013241
818.0172	0.014698
818.2542	0.014550
818.4912	0.014170
818.7282	0.011784
818.9652	0.013621
819.2022	0.011003
819.4392	0.012650
819.6762	0.011319
819.9133	0.012396
820.1503	0.012840
820.3874	0.014423
820.6244	0.014867
820.8615	0.016366
821.0986	0.016091
821.3357	0.015479
821.5727	0.013515
821.8099	0.015796
822.0470	0.012797
822.2841	0.014085
822.5212	0.012417
822.7584	0.013325
822.9955	0.011509
823.2327	0.011784
823.4698	0.011467
823.7070	0.010918
823.9442	0.011425
824.1814	0.010665
824.4186	0.010200
824.6558	0.013283
824.8930	0.012058
825.1302	0.012438
825.3675	0.011003
825.6047	0.012797
825.8419	0.011932
826.0792	0.013262
826.3165	0.011488
826.5537	0.012797
826.7910	0.012164
827.0283	0.013748
827.2656	0.011742
827.5029	0.013726
827.7402	0.013114
827.9776	0.012861
828.2149	0.013093
828.4522	0.012966
828.6896	0.011467
828.9270	0.012945
829.1643	0.012227
829.4017	0.012438
829.6391	0.011868
829.8765	0.012079
830.1139	0.011657
830.3513	0.010074
830.5887	0.011277
830.8261	0.010517
831.0636	0.008490
831.3010	0.008173
831.5385	0.008807
831.7759	0.006949
832.0134	0.007878
832.2509	0.007075
832.4884	0.006484
832.7259	0.007244
832.9634	0.009356
833.2009	0.008405
833.4384	0.010707
833.6759	0.009208
833.9135	0.010728
834.1510	0.009060
834.3886	0.009715
834.6261	0.010813
834.8637	0.009419
835.1013	0.009926
835.3389	0.009018
835.5765	0.011573
835.8141	0.008701
836.0517	0.009947
836.2893	0.008849
836.5269	0.009187
836.7646	0.007666
837.0022	0.007329
837.2399	0.007455
837.4775	0.006737
837.7152	0.006357
837.9529	0.006062
838.1906	0.007666
838.4283	0.008173
838.6660	0.006442
838.9037	0.007223
839.1414	0.008025
839.3791	0.007033
839.6169	0.008089
839.8546	0.007371
840.0924	0.008448
840.3302	0.006906
840.5679	0.007709
840.8057	0.008173
841.0435	0.005724
841.2813	0.007962
841.5191	0.005048
841.7569	0.006991
841.9947	0.005935
842.2326	0.005808
842.4704	0.006421
842.7082	0.003718
842.9461	0.006526
843.1840	0.006885
843.4218	0.005851
843.6597	0.005534
843.8976	0.005154
844.1355	0.004689
844.3734	0.004605
844.6113	0.006590
844.8492	0.004351
845.0872	0.004563
845.3251	0.004626
845.5631	0.006421
845.8010	0.005639
846.0390	0.004731
846.2770	0.004267
846.5149	0.004879
846.7529	0.004204
846.9909	0.004668
847.2289	0.004837
847.4669	0.004563
847.7050	0.004879
847.9430	0.005829
848.1810	0.004541
848.4191	0.005217
848.6571	0.003591
848.8952	0.004689
849.1333	0.004373
849.3713	0.004753
849.6094	0.004879
849.8475	0.004415
850.0856	0.005175
850.3237	0.004119
850.5619	0.003697
850.8000	0.006083
851.0381	0.005386
851.2763	0.003190
851.5144	0.004288
851.7526	0.005090
851.9908	0.004204
852.2289	0.005344
852.4671	0.007286
852.7053	0.007941
852.9435	0.008997
853.1817	0.011573
853.4200	0.013367
853.6582	0.014677
853.8964	0.013051
854.1347	0.014677
854.3729	0.014191
854.6112	0.013811
854.8495	0.013008
855.0877	0.013452
855.3260	0.011615
855.5643	0.013114
855.8026	0.012713
856.0409	0.013389
856.2792	0.011974
856.5176	0.012079
856.7559	0.011214
856.9942	0.012692
857.2326	0.011573
857.4710	0.011889
857.7093	0.008701
857.9477	0.010623
858.1861	0.010411
858.4245	0.011425
858.6629	0.009187
858.9013	0.008933
859.1397	0.009271
859.3781	0.009398
859.6166	0.009102
859.8550	0.010137
860.0935	0.008363
860.3319	0.007793
860.5704	0.006801
860.8089	0.007793
861.0473	0.006062
861.2858	0.007498
861.5243	0.006991
861.7628	0.006695
862.0013	0.005851
862.2399	0.005998
862.4784	0.004520
862.7169	0.006801
862.9555	0.005555
863.1940	0.007329
863.4326	0.006970
863.6712	0.006801
863.9098	0.006125
864.1483	0.007054
864.3869	0.005745
864.6255	0.005977
864.8642	0.004182
865.1028	0.006949
865.3414	0.005808
865.5800	0.005914
865.8187	0.005006
866.0573	0.004204
866.2960	0.003401
866.5347	0.004309
866.7733	0.004541
867.0120	0.006231
867.2507	0.005048
867.4894	0.005428
867.7281	0.005323
867.9669	0.005259
868.2056	0.004520
868.4443	0.005576
868.6831	0.005597
868.9218	0.005027
869.1606	0.004795
869.3993	0.005154
869.6381	0.004415
869.8769	0.004204
870.1157	0.003486
870.3545	0.006547
870.5933	0.004753
870.8321	0.005555
871.0709	0.005006
871.3097	0.004943
871.5486	0.006231
871.7874	0.004922
872.0263	0.005703
872.2651	0.004795
872.5040	0.004858
872.7429	0.004204
872.9818	0.006273
873.2207	0.005745
873.4596	0.003845
873.6985	0.006083
873.9374	0.005935
874.1763	0.004330
874.4153	0.005470
874.6542	0.005112
874.8932	0.006843
875.1321	0.006273
875.3711	0.004964
875.6101	0.007181
875.8491	0.004879
876.0880	0.005639
876.3270	0.006188
876.5661	0.005555
876.8051	0.004457
877.0441	0.004351
877.2831	0.006062
877.5222	0.004753
877.7612	0.006125
878.0003	0.004098
878.2393	0.005576
878.4784	0.007033
878.7175	0.005555
878.9566	0.005302
879.1957	0.008448
879.4348	0.008764
879.6739	0.008384
879.9130	0.006716
880.1521	0.007075
880.3913	0.008448
880.6304	0.008089
880.8696	0.007160
881.1087	0.007519
881.3479	0.006927
881.5871	0.007307
881.8262	0.007054
882.0654	0.007160
882.3046	0.006442
882.5438	0.005302
882.7831	0.006125
883.0223	0.005534
883.2615	0.005449
883.5007	0.005977
883.7400	0.006695
883.9792	0.006885
884.2185	0.006991
884.4578	0.006695
884.6971	0.008786
884.9363	0.005576
885.1756	0.005998
885.4149	0.005069
885.6542	0.005893
885.8936	0.005851
886.1329	0.006210
886.3722	0.005851
886.6116	0.006104
886.8509	0.006547
887.0903	0.005069
887.3296	0.006188
887.5690	0.004647
887.8084	0.004922
888.0478	0.005154
888.2872	0.005470
888.5266	0.005217
888.7660	0.005787
889.0054	0.003824
889.2448	0.003655
889.4843	0.004161
889.7237	0.004563
889.9632	0.003845
890.2026	0.005914
890.4421	0.003718
890.6816	0.005217
890.9211	0.003486
891.1606	0.004225
891.4001	0.003824
891.6396	0.003676
891.8791	0.005048
892.1186	0.006590
892.3581	0.003570
892.5977	0.006104
892.8372	0.006315
893.0768	0.004563
893.3163	0.003190
893.5559	0.005470
893.7955	0.004394
894.0351	0.004056
894.2747	0.004119
894.5143	0.004605
894.7539	0.004689
894.9935	0.004478
895.2331	0.004964
895.4727	0.004056
895.7124	0.004161
895.9520	0.004394
896.1917	0.004373
896.4314	0.005576
896.6710	0.004668
896.9107	0.005365
897.1504	0.004563
897.3901	0.004478
897.6298	0.004689
897.8695	0.003781
898.1092	0.003760
898.3489	0.003063
898.5887	0.005259
898.8284	0.006442
899.0682	0.004330
899.3079	0.004204
899.5477	0.004647
899.7875	0.004605
900.0272	0.003802
900.2670	0.004161
900.5068	0.005196
900.7466	0.004457
900.9864	0.004056
901.2263	0.003676
901.4661	0.003591
901.7059	0.004415
901.9458	0.002430
902.1856	0.004225
902.4255	0.004288
902.6654	0.004436
902.9052	0.002873
903.1451	0.003760
903.3850	0.004056
903.6249	0.004204
903.8648	0.004964
904.1047	0.004415
904.3446	0.004225
904.5846	0.004879
904.8245	0.004774
905.0644	0.003908
905.3044	0.005238
905.5444	0.005470
905.7843	0.004204
906.0243	0.004457
906.2643	0.004605
906.5043	0.006062
906.7443	0.005280
906.9843	0.003718
907.2243	0.003612
907.4643	0.006083
907.7043	0.005872
907.9444	0.004415
908.1844	0.002578
908.4245	0.002472
908.6645	0.004710
908.9046	0.005280
909.1447	0.003021
909.3847	0.002388
909.6248	0.001691
909.8649	0.004330
910.1050	0.002536
910.3452	0.003021
910.5853	0.002641
910.8254	0.003380
911.0655	0.002958
911.3057	0.003148
911.5458	0.003781
911.7860	0.003697
912.0262	0.004689
912.2663	0.004014
912.5065	0.003085
912.7467	0.003211
912.9869	0.003824
913.2271	0.004056
913.4673	0.004837
913.7075	0.004584
913.9478	0.002620
914.1880	0.002979
914.4283	0.002536
914.6685	0.004499
914.9088	0.002261
915.1490	0.003591
915.3893	0.003929
915.6296	0.002557
915.8699	0.003338
916.1102	0.003190
916.3505	0.002937
916.5908	0.002937
916.8311	0.001353
917.0714	0.004161
917.3118	0.003232
917.5521	0.004014
917.7925	0.004753
918.0328	0.004626
918.2732	0.003106
918.5136	0.002620
918.7539	0.003106
918.9943	0.002367
919.2347	0.003063
919.4751	0.003950
919.7155	0.004161
919.9560	0.002557
920.1964	0.004394
920.4368	0.003021
920.6773	0.004457
920.9177	0.001374
921.1582	0.002430
921.3986	0.002177
921.6391	0.003422
921.8796	0.003739
922.1201	0.003169
922.3606	0.003845
922.6011	0.003190
922.8416	0.003169
923.0821	0.001628
923.3226	0.002873
923.5631	0.002578
923.8037	0.000783
924.0442	0.002578
924.2848	0.004035
924.5254	0.002578
924.7659	0.002409
925.0065	0.002810
925.2471	0.004119
925.4877	0.002683
925.7283	0.003443
925.9689	0.001860
926.2095	0.003169
926.4501	0.002873
926.6908	0.002451
926.9314	0.002514
927.1720	0.002155
927.4127	0.002240
927.6533	0.002683
927.8940	0.002050
928.1347	0.000889
928.3754	0.001459
928.6161	0.003549
928.8568	0.001797
929.0975	0.002514
929.3382	0.003634
929.5789	0.001902
929.8196	0.002514
930.0604	0.001839
930.3011	0.002430
930.5419	0.001248
930.7826	0.001163
931.0234	0.002493
931.2642	0.001965
931.5049	0.002388
931.7457	0.001733
931.9865	0.002430
932.2273	0.002409
932.4681	0.001839
932.7089	0.002029
932.9498	0.003528
933.1906	0.001332
933.4314	0.001438
933.6723	0.000910
933.9131	0.002599
934.1540	0.001881
934.3949	0.002683
934.6358	0.003591
934.8766	0.002029
935.1175	0.003401
935.3584	0.002726
935.5993	0.001416
935.8403	0.001522
936.0812	0.002388
936.3221	0.001733
936.5630	0.000867
936.8040	0.001564
937.0449	0.002704
937.2859	0.000424
937.5269	0.001839
937.7678	0.001480
938.0088	0.000572
938.2498	0.001205
938.4908	0.001416
938.7318	0.001290
938.9728	0.000825
939.2138	0.002134
939.4549	0.001606
939.6959	0.000846
939.9369	-0.000040
940.1780	0.001649
940.4190	0.000487
940.6601	0.000572
940.9012	0.001353
941.1422	0.000403
941.3833	0.002219
941.6244	0.000530
941.8655	0.002536
942.1066	0.000487
942.3477	0.001353
942.5889	0.001923
942.8300	0.000952
943.0711	0.000762
943.3123	0.000614
943.5534	0.000572
943.7946	0.002219
944.0357	0.000910
944.2769	0.001290
944.5181	-0.000336
944.7593	0.001712
945.0005	0.000403
945.2417	0.000065
945.4829	-0.000146
945.7241	0.002198
945.9653	0.001058
946.2066	0.000318
946.4478	0.000044
946.6891	0.002134
946.9303	0.001332
947.1716	0.000487
947.4128	0.001121
947.6541	0.001036
947.8954	0.001374
948.1367	0.001100
948.3780	-0.001096
948.6193	0.000973
948.8606	0.000234
949.1019	0.001416
949.3433	0.001797
949.5846	0.001649
949.8259	-0.000167
950.0673	0.001163
950.3086	0.001163
950.5500	-0.000568
950.7914	0.001142
951.0327	0.002388
951.2741	0.000994
951.5155	0.001628
951.7569	0.001205
951.9983	0.001944
952.2398	0.001797
952.4812	0.001670
952.7226	0.001459
952.9640	0.000741
953.2055	0.001775
953.4469	0.000445
953.6884	0.001628
953.9299	0.001965
954.1713	0.000213
954.4128	0.001459
954.6543	0.001015
954.8958	0.001965
955.1373	0.000825
955.3788	0.000994
955.6203	0.000276
955.8618	0.002198
956.1034	0.001775
956.3449	0.001881
956.5865	0.000825
956.8280	0.000551
957.0696	0.000107
957.3111	0.000994
957.5527	0.000994
957.7943	0.000255
958.0359	0.000910
958.2775	0.001480
958.5191	0.001987
958.7607	0.001142
959.0023	0.001670
959.2439	0.002134
959.4856	0.000086
959.7272	-0.000864
959.9688	-0.000421
960.2105	0.000741
960.4522	0.000656
960.6938	0.000065
960.9355	0.000276
961.1772	0.000952
961.4189	0.000889
961.6606	0.001438
961.9023	-0.000209
962.1440	0.000276
962.3857	0.001543
962.6274	0.000635
962.8692	0.001416
963.1109	-0.000252
963.3527	-0.001413
963.5944	0.000171
963.8362	-0.000906
964.0779	0.002155
964.3197	-0.000019
964.5615	0.001691
964.8033	-0.001181
965.0451	0.001290
965.2869	-0.000104
965.5287	0.002092
965.7705	0.001944
966.0123	0.001142
966.2542	0.001100
966.4960	-0.000062
966.7379	0.001353
966.9797	0.000065
967.2216	0.000213
967.4634	0.000065
967.7053	0.001311
967.9472	0.002177
968.1891	0.000572
968.4310	0.001712
968.6729	-0.000611
968.9148	0.002071
969.1567	0.000572
969.3987	0.001248
969.6406	0.000255
969.8825	0.001121
970.1245	-0.000442
970.3664	0.001311
970.6084	-0.000589
970.8504	0.000340
971.0923	0.001353
971.3343	0.001205
971.5763	0.000509
971.8183	0.001353
972.0603	0.001374
972.3023	-0.000273
972.5443	0.000192
972.7864	0.001058
973.0284	-0.000399
973.2704	0.000023
973.5125	-0.000040
973.7545	-0.000484
973.9966	0.000086
974.2387	0.001184
974.4807	0.000023
974.7228	0.000192
974.9649	0.001184
975.2070	0.000466
975.4491	-0.001519
975.6912	0.001100
975.9333	0.000487
976.1755	0.000783
976.4176	0.000213
976.6597	0.001015
976.9019	0.000044
977.1440	0.001374
977.3862	-0.000294
977.6283	0.000720
977.8705	0.000044
978.1127	0.001058
978.3549	0.001712
978.5971	0.001416
978.8393	-0.000019
979.0815	0.001142
979.3237	0.001079
979.5659	-0.000062
979.8082	0.000487
980.0504	0.001332
980.2926	0.000867
980.5349	-0.000336
980.7771	0.000931
981.0194	0.001649
981.2617	0.000318
981.5040	0.001332
981.7462	-0.000019
981.9885	-0.000336
982.2308	0.000889
982.4731	0.000720
982.7155	0.000509
982.9578	-0.000336
983.2001	0.000403
983.4424	0.001205
983.6848	0.000234
983.9271	0.001353
984.1695	0.000361
984.4118	0.000445
984.6542	-0.000674
984.8966	0.002430
985.1390	0.001374
985.3814	-0.001392
985.6238	0.000867
985.8662	0.000804
986.1086	0.000382
986.3510	0.000002
986.5934	-0.000252
986.8358	0.001459
987.0783	-0.000062
987.3207	0.001015
987.5632	-0.000421
987.8056	0.000783
988.0481	0.000107
988.2906	0.000910
988.5331	-0.000336
988.7756	0.001290
989.0180	-0.000948
989.2605	0.000065
989.5031	-0.001054
989.7456	0.001248
989.9881	0.000044
990.2306	0.001311
990.4732	0.000424
990.7157	-0.000463
990.9582	-0.000040
991.2008	0.000107
991.4434	-0.000336
991.6859	0.001438
991.9285	0.000361
992.1711	0.001775
992.4137	-0.001117
992.6563	0.000699
992.8989	0.000804
993.1415	0.000086
993.3841	0.000804
993.6267	0.001163
993.8694	-0.000632
994.1120	0.001036
994.3547	0.001670
994.5973	-0.000167
994.8400	0.000783
995.0826	-0.000505
995.3253	0.000445
995.5680	-0.000273
995.8107	-0.000568
996.0534	-0.000927
996.2961	0.000107
996.5388	0.000952
996.7815	0.000487
997.0242	0.001712
997.2670	0.000973
997.5097	-0.000336
997.7524	0.001670
997.9952	0.001058
998.2379	-0.000589
998.4807	0.000255
998.7235	-0.000505
998.9662	0.000973
999.2090	-0.000611
999.4518	0.000825
999.6946	-0.000843
999.9374	-0.001434
1000.1802	0.000340
1000.4230	-0.001350
1000.6659	0.001184
1000.9087	-0.000146
1001.1515	-0.001709
1001.3944	0.000213
1001.6372	-0.000019
1001.8801	-0.001202
1002.1230	0.000994
1002.3658	0.001543
1002.6087	0.000762
1002.8516	-0.000252
1003.0945	0.000340
1003.3374	0.000213
1003.5803	-0.000188
1003.8232	0.000318
1004.0661	0.000572
1004.3091	-0.000062
1004.5520	0.000255
1004.7949	0.000910
1005.0379	-0.000146
1005.2808	-0.001265
1005.5238	0.001564
1005.7667	-0.000674
1006.0097	0.001332
1006.2527	-0.000062
1006.4957	0.000846
1006.7387	-0.000695
1006.9817	0.000635
1007.2247	-0.000484
1007.4677	0.000107
1007.7107	0.000150
1007.9538	-0.000125
1008.1968	0.000297
1008.4398	0.000382
1008.6829	-0.000421
1008.9259	-0.000083
1009.1690	-0.000209
1009.4121	0.000023
1009.6551	-0.000188
1009.8982	-0.000125
1010.1413	-0.000948
1010.3844	0.001184
1010.6275	0.000910
1010.8706	0.001395
1011.1137	0.000340
1011.3568	0.000656
1011.6000	0.001100
1011.8431	0.000931
1012.0863	0.000128
1012.3294	0.000677
1012.5726	0.001564
1012.8157	0.000466
1013.0589	-0.000146
1013.3021	-0.000252
1013.5452	0.000086
1013.7884	0.000572
1014.0316	0.000530
1014.2748	0.000530
1014.5180	0.000340
1014.7613	0.000276
1015.0045	0.000002
1015.2477	0.001142
1015.4909	0.000086
1015.7342	0.001184
1015.9774	0.000361
1016.2207	0.001015
1016.4640	0.000044
1016.7072	-0.000040
1016.9505	-0.001286
1017.1938	0.001205
1017.4371	-0.000167
1017.6804	-0.000716
1017.9237	0.000361
1018.1670	-0.000252
1018.4103	-0.000505
1018.6536	0.001142
1018.8969	-0.000336
1019.1403	-0.000695
1019.3836	0.000318
1019.6270	0.000931
1019.8703	-0.000632
1020.1137	0.000804
1020.3571	0.000276
1020.6004	0.000128
1020.8438	0.000804
1021.0872	0.000635
1021.3306	-0.000653
1021.5740	-0.001033
1021.8174	0.000466
1022.0608	0.000255
1022.3042	-0.001160
1022.5477	-0.000378
1022.7911	-0.001476
1023.0345	0.000509
