# Wavelength (nm)	Intensity (a.u.)
197.7802	0.000164
197.9842	-0.000892
198.1882	0.001388
198.3922	-0.000237
198.5963	0.001029
198.8003	0.000755
199.0044	0.001008
199.2085	0.000733
199.4126	0.001535
199.6168	0.000248
199.8209	0.000944
200.0251	0.001177
200.2292	0.001071
200.4334	0.001493
200.6376	0.000543
200.8418	0.001557
201.0461	0.001113
201.2503	0.001029
201.4546	0.001599
201.6589	0.000860
201.8631	0.001008
202.0674	-0.000195
202.2718	0.000269
202.4761	0.001134
202.6805	0.001746
202.8848	-0.000575
203.0892	0.000628
203.2936	0.001303
203.4980	0.001219
203.7024	0.001641
203.9069	0.000607
204.1113	-0.000491
204.3158	0.001071
204.5203	-0.000301
204.7248	0.001641
204.9293	0.000100
205.1338	0.001092
205.3384	0.000079
205.5430	0.001472
205.7475	-0.001757
205.9521	0.001409
206.1567	0.000396
206.3614	0.000417
206.5660	0.000543
206.7706	-0.000807
206.9753	0.000480
207.1800	0.000354
207.3847	0.000987
207.5894	0.000121
207.7941	0.000755
207.9989	0.001050
208.2036	0.000818
208.4084	-0.000301
208.6132	0.000923
208.8180	0.001451
209.0228	-0.000617
209.2276	0.001177
209.4325	0.000628
209.6373	0.000522
209.8422	-0.000385
210.0471	0.000586
210.2520	0.000776
210.4569	-0.000448
210.6618	-0.000153
210.8668	0.000375
211.0718	0.001219
211.2767	0.002570
211.4817	0.001894
211.6867	0.000164
211.8918	0.000100
212.0968	0.000058
212.3018	-0.000195
212.5069	0.001641
212.7120	0.000206
212.9171	0.000839
213.1222	0.001704
213.3273	-0.000047
213.5325	-0.001061
213.7376	0.001683
213.9428	0.000248
214.1480	-0.000259
214.3532	-0.000427
214.5584	0.000607
214.7636	0.000058
214.9689	0.001810
215.1741	0.001113
215.3794	0.000565
215.5847	0.001008
215.7900	0.001156
215.9953	-0.000385
216.2007	-0.000491
216.4060	0.001367
216.6114	0.001768
216.8168	0.001725
217.0222	0.002063
217.2276	0.000248
217.4330	0.001303
217.6384	-0.000153
217.8439	0.000818
218.0494	0.002042
218.2548	0.000586
218.4603	0.000375
218.6659	0.001008
218.8714	0.000290
219.0769	0.001050
219.2825	-0.000448
219.4881	0.000501
219.6936	0.000944
219.8992	0.001240
220.1049	-0.001018
220.3105	0.000037
220.5161	-0.000301
220.7218	0.000839
220.9275	-0.000385
221.1332	0.000923
221.3389	0.000522
221.5446	0.000121
221.7503	0.001472
221.9561	0.000733
222.1618	0.001177
222.3676	0.000206
222.5734	0.000206
222.7792	0.000818
222.9850	0.000206
223.1909	0.000480
223.3967	0.000269
223.6026	0.000417
223.8085	0.000269
224.0144	0.000607
224.2203	-0.000385
224.4262	0.001873
224.6322	0.001240
224.8381	0.002063
225.0441	0.000797
225.2501	0.000248
225.4561	0.000966
225.6621	0.001472
225.8681	-0.000259
226.0742	0.000396
226.2802	0.000100
226.4863	0.000944
226.6924	-0.000638
226.8985	0.000480
227.1046	0.001282
227.3107	0.000670
227.5169	0.000543
227.7230	0.000480
227.9292	-0.000723
228.1354	0.001704
228.3416	0.001029
228.5478	0.000607
228.7541	-0.000427
228.9603	0.000269
229.1666	0.001704
229.3729	0.001261
229.5791	-0.000047
229.7855	0.000607
229.9918	0.000037
230.1981	0.001514
230.4045	-0.000406
230.6108	0.000417
230.8172	0.000058
231.0236	0.002295
231.2300	0.000037
231.4364	0.000185
231.6429	-0.000533
231.8493	-0.000575
232.0558	0.000164
232.2623	0.001535
232.4688	0.000628
232.6753	0.000565
232.8818	-0.000681
233.0884	0.001451
233.2949	0.000332
233.5015	0.000121
233.7081	0.001451
233.9147	0.000079
234.1213	0.000142
234.3279	0.001620
234.5346	-0.000259
234.7413	0.001641
234.9479	0.001345
235.1546	0.001979
235.3613	0.000881
235.5680	0.001535
235.7748	-0.000237
235.9815	0.001071
236.1883	0.001050
236.3951	0.001240
236.6018	0.000543
236.8087	0.000396
237.0155	0.001113
237.2223	0.002570
237.4292	0.000776
237.6360	-0.000448
237.8429	0.000839
238.0498	0.001198
238.2567	-0.000005
238.4636	0.000269
238.6706	0.000586
238.8775	0.000290
239.0845	-0.000195
239.2915	0.001662
239.4985	-0.000322
239.7055	0.001177
239.9125	0.002274
240.1195	0.001852
240.3266	0.000586
240.5337	0.001029
240.7407	0.000269
240.9478	0.000058
241.1549	0.000185
241.3621	0.000691
241.5692	-0.000448
241.7764	0.000776
241.9835	0.000712
242.1907	0.001493
242.3979	0.000966
242.6051	0.000100
242.8124	0.001029
243.0196	0.001219
243.2269	0.001303
243.4341	0.000459
243.6414	0.000290
243.8487	0.000121
244.0560	0.001177
244.2634	0.000860
244.4707	0.000818
244.6781	0.000565
244.8854	-0.000596
245.0928	0.001430
245.3002	0.000396
245.5076	0.001050
245.7151	0.001345
245.9225	0.001345
246.1300	0.000480
246.3375	0.001050
246.5449	-0.000090
246.7524	-0.000132
246.9600	-0.000259
247.1675	0.000987
247.3750	-0.000575
247.5826	0.000649
247.7902	0.000902
247.9978	0.000206
248.2054	-0.000237
248.4130	0.001810
248.6206	0.001535
248.8283	0.000459
249.0359	0.000670
249.2436	0.000438
249.4513	0.000185
249.6590	0.000375
249.8667	0.001725
250.0745	-0.000343
250.2822	0.001113
250.4900	-0.000322
250.6978	0.001367
250.9056	0.002105
251.1134	0.000543
251.3212	0.001514
251.5290	-0.000343
251.7369	0.000142
251.9447	0.001367
252.1526	0.001388
252.3605	0.000417
252.5684	0.001662
252.7763	0.000269
252.9843	0.000480
253.1922	0.000016
253.4002	0.001240
253.6082	-0.000090
253.8162	-0.000047
254.0242	0.000354
254.2322	0.000543
254.4402	0.000332
254.6483	0.000037
254.8564	-0.000364
255.0644	0.001852
255.2725	-0.001018
255.4806	0.001746
255.6888	0.000649
255.8969	0.001936
256.1051	0.000227
256.3132	0.001177
256.5214	0.000185
256.7296	0.000079
256.9378	-0.000301
257.1460	0.001430
257.3543	0.000923
257.5625	0.001240
257.7708	-0.000596
257.9791	-0.000047
258.1874	0.000417
258.3957	0.001388
258.6040	0.000142
258.8124	0.001979
259.0207	-0.000069
259.2291	0.000375
259.4375	0.001177
259.6459	0.000902
259.8543	-0.000533
260.0627	0.001894
260.2711	0.001324
260.4796	0.000987
260.6881	0.000776
260.8965	0.000839
261.1050	-0.000976
261.3135	-0.000638
261.5221	0.000037
261.7306	0.002021
261.9392	0.002021
262.1477	0.000839
262.3563	0.001430
262.5649	-0.000596
262.7735	0.000058
262.9822	0.000755
263.1908	0.001472
263.3995	0.000923
263.6081	0.000565
263.8168	0.002021
264.0255	0.000164
264.2342	0.000649
264.4429	0.000311
264.6517	0.002527
264.8604	0.000058
265.0692	0.000797
265.2780	0.000438
265.4868	0.002126
265.6956	-0.001546
265.9044	0.001113
266.1133	0.000944
266.3221	0.001282
266.5310	0.001936
266.7399	0.000522
266.9488	0.000797
267.1577	0.000100
267.3666	0.000375
267.5755	0.001071
267.7845	0.000100
267.9935	-0.000638
268.2024	0.000206
268.4114	0.001198
268.6205	0.001050
268.8295	0.002105
269.0385	0.000586
269.2476	0.001303
269.4566	0.000860
269.6657	0.001113
269.8748	0.001345
270.0839	0.001282
270.2931	-0.000153
270.5022	0.001240
270.7114	0.001704
270.9205	0.000459
271.1297	0.000417
271.3389	0.000417
271.5481	0.002380
271.7573	0.000755
271.9666	0.000797
272.1758	0.002042
272.3851	-0.000005
272.5944	0.001789
272.8037	-0.000153
273.0130	0.002760
273.2223	-0.000280
273.4316	0.001557
273.6410	-0.000153
273.8504	0.001472
274.0597	-0.000237
274.2691	0.001430
274.4785	-0.000638
274.6880	0.000079
274.8974	0.001261
275.1069	0.000670
275.3163	0.001451
275.5258	0.001324
275.7353	0.001134
275.9448	-0.000364
276.1543	0.000290
276.3639	0.000396
276.5734	0.001177
276.7830	0.000797
276.9926	-0.000069
277.2022	0.000121
277.4118	0.000121
277.6214	0.001409
277.8310	-0.000828
278.0407	0.002021
278.2503	0.000755
278.4600	0.001198
278.6697	0.001367
278.8794	0.000797
279.0891	0.000966
279.2989	0.001831
279.5086	0.000733
279.7184	0.000902
279.9281	0.001071
280.1379	-0.000153
280.3477	0.000733
280.5576	0.000966
280.7674	0.000565
280.9772	0.000987
281.1871	0.000755
281.3970	0.000839
281.6069	0.001050
281.8168	0.001261
282.0267	-0.000069
282.2366	-0.000132
282.4466	0.000733
282.6565	0.001050
282.8665	0.001768
283.0765	0.001008
283.2865	0.000902
283.4965	0.000290
283.7065	-0.001208
283.9166	0.001409
284.1266	-0.000617
284.3367	0.000860
284.5468	0.000016
284.7569	0.000016
284.9670	0.002000
285.1771	0.001050
285.3873	0.000987
285.5974	0.001493
285.8076	0.001472
286.0178	0.000649
286.2280	0.000269
286.4382	0.002105
286.6484	0.000966
286.8587	0.002401
287.0689	-0.000111
287.2792	0.001324
287.4895	0.000037
287.6998	0.000164
287.9101	-0.000638
288.1204	0.000839
288.3308	-0.000617
288.5411	0.001388
288.7515	-0.000807
288.9619	0.001261
289.1723	0.001219
289.3827	0.000417
289.5931	0.000100
289.8035	0.001156
290.0140	0.000543
290.2245	0.002190
290.4349	0.001050
290.6454	0.001071
290.8559	0.000396
291.0665	0.000332
291.2770	0.000860
291.4875	0.001303
291.6981	0.000649
291.9087	0.000121
292.1193	0.000522
292.3299	0.001578
292.5405	0.001958
292.7511	0.001451
292.9618	0.000944
293.1724	0.000417
293.3831	0.000628
293.5938	0.000290
293.8045	0.000755
294.0152	0.002464
294.2260	0.000818
294.4367	-0.000237
294.6475	-0.000005
294.8582	0.001662
295.0690	0.001535
295.2798	-0.000090
295.4906	0.000881
295.7015	0.000037
295.9123	-0.000005
296.1232	0.000607
296.3340	0.000607
296.5449	0.001514
296.7558	-0.000111
296.9667	-0.000596
297.1777	0.000332
297.3886	0.001303
297.5995	-0.000301
297.8105	0.001388
298.0215	-0.000216
298.2325	0.000860
298.4435	0.001029
298.6545	0.001282
298.8656	0.000860
299.0766	0.001599
299.2877	0.001219
299.4988	-0.000744
299.7099	0.000227
299.9210	0.000818
300.1321	0.000797
300.3432	-0.000871
300.5544	-0.000828
300.7655	0.000290
300.9767	0.000079
301.1879	0.000818
301.3991	0.000944
301.6103	0.001430
301.8215	0.001683
302.0328	0.000185
302.2441	0.000269
302.4553	0.001282
302.6666	-0.000871
302.8779	0.000501
303.0892	0.000586
303.3006	0.000607
303.5119	-0.000681
303.7233	0.001578
303.9346	0.000797
304.1460	0.000290
304.3574	0.000417
304.5688	0.001409
304.7803	0.000776
304.9917	0.000290
305.2031	-0.000216
305.4146	0.000712
305.6261	0.001113
305.8376	0.001704
306.0491	0.001008
306.2606	0.001873
306.4722	0.000966
306.6837	0.000459
306.8953	0.000712
307.1069	0.000839
307.3184	0.000565
307.5301	0.001852
307.7417	0.000818
307.9533	0.002042
308.1650	0.000354
308.3766	0.000691
308.5883	0.001029
308.8000	0.001113
309.0117	0.000311
309.2234	0.002211
309.4351	0.000797
309.6469	0.000311
309.8586	-0.000026
310.0704	-0.000069
310.2822	0.000269
310.4940	0.000944
310.7058	-0.000005
310.9176	-0.000069
311.1295	0.000733
311.3413	-0.000005
311.5532	0.002316
311.7651	-0.001546
311.9770	0.000037
312.1889	0.001071
312.4008	0.000543
312.6127	0.000565
312.8247	0.000121
313.0366	0.000438
313.2486	0.000881
313.4606	0.000396
313.6726	0.000522
313.8846	0.000185
314.0967	0.000501
314.3087	0.000142
314.5208	0.000142
314.7328	0.000332
314.9449	0.002000
315.1570	0.000206
315.3692	0.001282
315.5813	0.001345
315.7934	-0.000280
316.0056	0.000121
316.2177	0.000902
316.4299	0.001894
316.6421	0.000354
316.8543	0.000860
317.0666	0.000902
317.2788	0.000712
317.4911	-0.000554
317.7033	0.001409
317.9156	0.000522
318.1279	0.001240
318.3402	0.000987
318.5525	-0.000259
318.7649	0.001894
318.9772	0.000818
319.1896	-0.000047
319.4019	0.000628
319.6143	0.002274
319.8267	0.002169
320.0392	0.001810
320.2516	0.001979
320.4640	-0.000174
320.6765	0.002907
320.8890	0.000354
321.1014	0.000649
321.3139	-0.000723
321.5265	0.000691
321.7390	-0.000090
321.9515	0.000459
322.1641	0.000733
322.3766	0.000881
322.5892	0.000016
322.8018	0.002696
323.0144	0.000607
323.2270	0.000290
323.4397	0.000944
323.6523	-0.000090
323.8650	0.000670
324.0777	0.000501
324.2904	0.000121
324.5031	0.001240
324.7158	0.001831
324.9285	0.001388
325.1412	0.000206
325.3540	0.002316
325.5668	0.000776
325.7796	0.002147
325.9924	0.000733
326.2052	0.001578
326.4180	-0.000364
326.6308	0.001345
326.8437	0.001303
327.0566	0.001345
327.2694	0.001746
327.4823	-0.000111
327.6952	0.001746
327.9082	0.000121
328.1211	0.000290
328.3340	0.000121
328.5470	0.000164
328.7600	0.001789
328.9730	0.001198
329.1860	0.000881
329.3990	0.000923
329.6120	0.001240
329.8251	0.000417
330.0381	0.001367
330.2512	0.000185
330.4643	0.001451
330.6774	0.001261
330.8905	0.000923
331.1036	0.000248
331.3167	0.001198
331.5299	0.000058
331.7431	0.001725
331.9562	0.002316
332.1694	0.000142
332.3826	0.000839
332.5959	0.001641
332.8091	0.001557
333.0223	0.001388
333.2356	-0.000111
333.4489	0.001050
333.6622	0.001113
333.8755	0.001578
334.0888	0.002401
334.3021	-0.000301
334.5154	0.001388
334.7288	0.001008
334.9422	0.000290
335.1555	-0.000090
335.3689	-0.000174
335.5823	0.002295
335.7958	-0.000259
336.0092	0.000797
336.2227	0.001282
336.4361	0.000755
336.6496	-0.001082
336.8631	0.000375
337.0766	0.000037
337.2901	0.002126
337.5036	0.000860
337.7172	0.000459
337.9307	0.000607
338.1443	-0.000533
338.3579	0.000944
338.5715	0.002000
338.7851	0.001198
338.9987	0.002443
339.2124	-0.000723
339.4260	0.001345
339.6397	-0.000765
339.8533	0.000776
340.0670	0.000121
340.2807	0.001050
340.4945	-0.000512
340.7082	0.002485
340.9219	0.000565
341.1357	0.000712
341.3495	0.000269
341.5633	-0.000448
341.7771	0.001409
341.9909	0.001683
342.2047	0.002147
342.4185	0.001451
342.6324	0.001156
342.8463	0.001620
343.0601	-0.000090
343.2740	0.000565
343.4879	0.001345
343.7019	0.002570
343.9158	0.001430
344.1297	0.000459
344.3437	-0.000216
344.5577	0.001134
344.7717	0.000480
344.9857	0.000459
345.1997	0.000058
345.4137	0.000290
345.6277	0.001303
345.8418	0.001156
346.0559	0.000607
346.2699	0.002316
346.4840	0.000860
346.6981	0.000480
346.9123	0.001725
347.1264	0.000375
347.3406	-0.000153
347.5547	0.000164
347.7689	0.001958
347.9831	-0.000259
348.1973	0.001472
348.4115	0.001388
348.6257	0.001282
348.8400	0.000755
349.0542	0.001219
349.2685	0.000586
349.4828	-0.000195
349.6971	-0.000470
349.9114	0.000417
350.1257	-0.000491
350.3400	0.000332
350.5544	0.001071
350.7687	0.001113
350.9831	0.001324
351.1975	0.000691
351.4119	-0.000470
351.6263	-0.000132
351.8407	0.000311
352.0552	-0.000005
352.2696	0.001409
352.4841	0.000438
352.6986	0.000818
352.9131	-0.000828
353.1276	0.000776
353.3421	-0.000934
353.5566	0.000923
353.7712	0.000121
353.9858	0.001704
354.2003	0.001050
354.4149	0.000248
354.6295	-0.000491
354.8441	0.000797
355.0588	0.000501
355.2734	0.001345
355.4881	0.000944
355.7027	0.000860
355.9174	0.000269
356.1321	0.000712
356.3468	0.000375
356.5615	0.001261
356.7763	0.000354
356.9910	0.000227
357.2058	0.000459
357.4206	0.000797
357.6353	0.000354
357.8501	0.001958
358.0650	0.001113
358.2798	0.000944
358.4946	0.000354
358.7095	0.001599
358.9243	0.000311
359.1392	0.000332
359.3541	0.001958
359.5690	0.000628
359.7839	0.000501
359.9989	0.001514
360.2138	0.000649
360.4288	0.000923
360.6438	-0.000259
360.8587	0.002021
361.0737	-0.000195
361.2888	0.001303
361.5038	-0.001124
361.7188	0.001936
361.9339	0.000227
362.1489	0.000987
362.3640	0.000649
362.5791	0.000628
362.7942	0.000480
363.0093	0.002380
363.2245	-0.000237
363.4396	0.000164
363.6548	0.001704
363.8699	-0.000638
364.0851	0.000396
364.3003	0.001578
364.5155	0.001936
364.7308	0.000966
364.9460	0.000311
365.1612	0.000586
365.3765	0.000269
365.5918	0.000206
365.8071	0.001746
366.0224	0.001451
366.2377	0.001768
366.4530	0.000881
366.6684	0.000522
366.8837	0.000586
367.0991	0.001156
367.3145	0.000142
367.5299	0.001641
367.7453	0.001156
367.9607	0.000121
368.1761	0.000565
368.3916	0.001345
368.6070	0.001683
368.8225	-0.000237
369.0380	0.001134
369.2535	0.001240
369.4690	0.002274
369.6845	0.000206
369.9001	0.000923
370.1156	0.001451
370.3312	0.002232
370.5468	0.000459
370.7624	0.000565
370.9780	0.000037
371.1936	0.001071
371.4092	-0.000406
371.6249	-0.000195
371.8405	0.000375
372.0562	0.000501
372.2719	0.002042
372.4876	0.002485
372.7033	0.000290
372.9190	0.000987
373.1348	0.001725
373.3505	0.000628
373.5663	-0.000364
373.7820	0.000670
373.9978	0.000586
374.2136	0.000966
374.4294	0.000142
374.6453	0.002422
374.8611	0.000501
375.0770	0.001936
375.2928	0.002126
375.5087	0.001430
375.7246	-0.000069
375.9405	0.001725
376.1564	0.000628
376.3724	0.001831
376.5883	0.000417
376.8043	0.000354
377.0203	0.000311
377.2362	0.000164
377.4522	0.000522
377.6682	-0.000174
377.8843	0.000691
378.1003	0.001409
378.3164	0.000269
378.5324	0.001852
378.7485	0.001050
378.9646	0.001831
379.1807	0.002000
379.3968	0.001324
379.6129	0.000501
379.8291	0.001092
380.0452	-0.001018
380.2614	0.000987
380.4776	-0.000069
380.6938	0.000206
380.9100	-0.000026
381.1262	-0.000512
381.3424	0.000248
381.5587	0.001683
381.7749	0.000185
381.9912	0.001662
382.2075	0.000438
382.4238	0.001092
382.6401	0.000565
382.8564	0.000185
383.0728	0.001388
383.2891	0.000290
383.5055	0.000100
383.7219	0.000269
383.9382	0.002000
384.1546	-0.000195
384.3711	0.001683
384.5875	0.001008
384.8039	0.000670
385.0204	0.001261
385.2368	0.000185
385.4533	0.001683
385.6698	0.000944
385.8863	0.000565
386.1028	0.000332
386.3194	0.001134
386.5359	-0.000237
386.7525	0.000501
386.9690	0.000670
387.1856	0.000839
387.4022	0.001156
387.6188	0.000016
387.8355	0.001894
388.0521	0.001789
388.2687	0.000227
388.4854	0.001050
388.7021	-0.000090
388.9188	0.001092
389.1355	-0.000575
389.3522	0.001261
389.5689	0.001029
389.7856	0.002253
390.0024	0.001451
390.2192	0.000691
390.4359	0.000966
390.6527	0.002591
390.8695	0.002844
391.0863	0.001345
391.3032	0.001050
391.5200	0.002401
391.7369	0.001704
391.9537	0.001852
392.1706	0.001873
392.3875	0.001662
392.6044	0.001557
392.8213	0.003477
393.0383	0.003097
393.2552	0.002865
393.4722	0.002147
393.6891	0.002021
393.9061	0.001388
394.1231	0.003203
394.3401	0.001578
394.5572	0.002675
394.7742	0.002802
394.9912	0.002443
395.2083	0.001557
395.4254	0.001958
395.6425	0.002570
395.8596	0.003013
396.0767	0.001303
396.2938	0.003752
396.5109	0.002380
396.7281	0.002992
396.9453	0.003393
397.1624	0.003667
397.3796	0.003604
397.5968	0.004786
397.8140	0.004026
398.0313	0.003815
398.2485	0.004427
398.4658	0.004131
398.6830	0.003604
398.9003	0.005440
399.1176	0.003055
399.3349	0.004849
399.5522	0.004089
399.7696	0.005947
399.9869	0.004153
400.2043	0.006770
400.4216	0.005524
400.6390	0.004955
400.8564	0.004554
401.0738	0.007867
401.2912	0.005018
401.5087	0.005862
401.7261	0.004448
401.9436	0.005904
402.1610	0.003794
402.3785	0.005187
402.5960	0.006854
402.8135	0.005968
403.0310	0.005440
403.2486	0.006031
403.4661	0.006200
403.6837	0.006474
403.9013	0.005799
404.1189	0.006369
404.3365	0.008015
404.5541	0.007361
404.7717	0.006981
404.9893	0.008458
405.2070	0.006158
405.4246	0.008901
405.6423	0.007973
405.8600	0.007508
406.0777	0.007804
406.2954	0.008458
406.5131	0.008163
406.7309	0.009176
406.9486	0.007044
407.1664	0.007656
407.3842	0.008542
407.6020	0.007762
407.8198	0.009408
408.0376	0.010083
408.2554	0.008416
408.4733	0.007973
408.6911	0.008669
408.9090	0.009767
409.1269	0.009556
409.3448	0.008542
409.5627	0.009724
409.7806	0.008901
409.9985	0.011941
410.2165	0.007508
410.4344	0.009893
410.6524	0.010062
410.8704	0.011497
411.0884	0.009640
411.3064	0.009302
411.5244	0.009281
411.7424	0.011096
411.9605	0.010885
412.1785	0.010315
412.3966	0.010104
412.6147	0.011181
412.8328	0.011160
413.0509	0.010780
413.2690	0.011160
413.4871	0.012257
413.7053	0.013629
413.9234	0.012848
414.1416	0.011392
414.3598	0.011012
414.5780	0.012996
414.7962	0.012004
415.0144	0.011898
415.2326	0.011835
415.4509	0.011413
415.6692	0.013967
415.8874	0.012067
416.1057	0.013312
416.3240	0.011708
416.5423	0.013355
416.7606	0.013080
416.9790	0.014009
417.1973	0.013080
417.4157	0.013439
417.6341	0.012954
417.8524	0.014135
418.0708	0.012679
418.2893	0.014579
418.5077	0.015212
418.7261	0.014558
418.9446	0.012764
419.1630	0.013924
419.3815	0.013692
419.6000	0.013903
419.8185	0.015360
420.0370	0.013608
420.2555	0.015106
420.4741	0.015022
420.6926	0.015550
420.9112	0.017934
421.1298	0.018610
421.3483	0.017259
421.5669	0.018019
421.7856	0.022071
422.0042	0.019074
422.2228	0.020045
422.4415	0.017934
422.6601	0.019285
422.8788	0.018146
423.0975	0.020805
423.3162	0.017090
423.5349	0.019602
423.7536	0.018124
423.9724	0.017723
424.1911	0.018800
424.4099	0.018441
424.6287	0.016204
424.8475	0.017871
425.0663	0.019644
425.2851	0.018272
425.5039	0.020108
425.7228	0.018103
425.9416	0.016921
426.1605	0.016774
426.3793	0.018990
426.5982	0.018926
426.8171	0.017132
427.0361	0.018926
427.2550	0.017533
427.4739	0.019728
427.6929	0.018990
427.9118	0.017766
428.1308	0.017745
428.3498	0.019792
428.5688	0.018547
428.7878	0.021079
429.0068	0.019496
429.2259	0.018715
429.4449	0.019517
429.6640	0.022683
429.8831	0.021691
430.1022	0.023000
430.3213	0.022367
430.5404	0.022979
430.7595	0.022156
430.9787	0.021649
431.1978	0.022536
431.4170	0.021438
431.6362	0.021037
431.8553	0.019792
432.0745	0.019581
432.2938	0.020974
432.5130	0.018631
432.7322	0.020045
432.9515	0.018314
433.1707	0.018863
433.3900	0.017449
433.6093	0.021121
433.8286	0.022050
434.0479	0.022303
434.2673	0.021016
434.4866	0.021438
434.7059	0.020298
434.9253	0.020488
435.1447	0.018525
435.3641	0.022156
435.5835	0.020341
435.8029	0.021522
436.0223	0.019982
436.2418	0.020277
436.4612	0.022662
436.6807	0.022071
436.9001	0.021016
437.1196	0.021206
437.3391	0.021354
437.5586	0.021438
437.7782	0.019855
437.9977	0.021143
438.2173	0.020847
438.4368	0.021691
438.6564	0.021607
438.8760	0.020974
439.0956	0.022219
439.3152	0.022704
439.5348	0.022725
439.7545	0.022472
439.9741	0.021459
440.1938	0.021755
440.4135	0.020151
440.6331	0.020763
440.8528	0.021164
441.0725	0.023549
441.2923	0.023971
441.5120	0.024836
441.7318	0.026862
441.9515	0.026123
442.1713	0.025807
442.3911	0.026271
442.6109	0.024878
442.8307	0.024308
443.0505	0.023570
443.2703	0.026947
443.4902	0.026440
443.7101	0.027516
443.9299	0.023928
444.1498	0.024414
444.3697	0.025490
444.5896	0.025596
444.8095	0.024836
445.0295	0.025765
445.2494	0.024245
445.4694	0.024688
445.6894	0.024498
445.9093	0.023570
446.1293	0.023549
446.3493	0.025132
446.5694	0.025110
446.7894	0.023760
447.0094	0.023739
447.2295	0.023338
447.4496	0.023063
447.6696	0.023971
447.8897	0.023549
448.1098	0.023612
448.3300	0.022261
448.5501	0.020784
448.7702	0.022620
448.9904	0.022240
449.2106	0.021459
449.4307	0.022810
449.6509	0.022472
449.8711	0.021290
450.0914	0.022282
450.3116	0.020974
450.5318	0.021100
450.7521	0.023928
450.9724	0.019243
451.1926	0.021185
451.4129	0.020425
451.6332	0.021438
451.8535	0.021100
452.0739	0.021565
452.2942	0.019792
452.5146	0.018905
452.7349	0.019264
452.9553	0.019792
453.1757	0.020235
453.3961	0.018293
453.6165	0.018631
453.8369	0.018948
454.0574	0.020003
454.2778	0.018905
454.4983	0.017322
454.7188	0.017238
454.9393	0.016373
455.1597	0.019095
455.3803	0.018357
455.6008	0.017766
455.8213	0.018568
456.0419	0.017006
456.2624	0.017745
456.4830	0.018146
456.7036	0.017787
456.9242	0.017977
457.1448	0.018293
457.3654	0.018209
457.5860	0.018357
457.8067	0.017512
458.0274	0.019138
458.2480	0.017618
458.4687	0.016964
458.6894	0.019264
458.9101	0.018673
459.1308	0.018251
459.3516	0.016119
459.5723	0.018842
459.7931	0.017069
460.0138	0.018082
460.2346	0.016731
460.4554	0.018019
460.6762	0.016668
460.8970	0.017048
461.1178	0.014938
461.3387	0.015339
461.5595	0.016689
461.7804	0.015507
462.0013	0.015550
462.2222	0.014220
462.4431	0.013629
462.6640	0.014051
462.8849	0.014051
463.1059	0.013713
463.3268	0.014726
463.5478	0.012975
463.7687	0.014325
463.9897	0.013671
464.2107	0.014178
464.4317	0.015402
464.6528	0.015001
464.8738	0.014579
465.0948	0.016436
465.3159	0.015803
465.5370	0.015001
465.7581	0.014895
465.9792	0.015908
466.2003	0.015697
466.4214	0.012764
466.6425	0.013903
466.8637	0.012911
467.0848	0.014600
467.3060	0.013798
467.5272	0.012785
467.7484	0.010674
467.9696	0.012236
468.1908	0.011518
468.4120	0.010906
468.6333	0.012700
468.8545	0.009851
469.0758	0.011603
469.2970	0.011075
469.5183	0.010653
469.7396	0.009155
469.9610	0.009703
470.1823	0.009703
470.4036	0.009851
470.6250	0.007466
470.8463	0.009809
471.0677	0.008965
471.2891	0.008690
471.5105	0.009049
471.7319	0.008627
471.9533	0.007740
472.1748	0.008374
472.3962	0.009788
472.6177	0.009556
472.8391	0.009218
473.0606	0.009556
473.2821	0.007973
473.5036	0.010231
473.7251	0.009049
473.9467	0.009197
474.1682	0.008965
474.3898	0.008732
474.6113	0.009091
474.8329	0.007551
475.0545	0.008922
475.2761	0.009408
475.4977	0.008711
475.7193	0.007593
475.9410	0.008078
476.1626	0.009809
476.3843	0.009556
476.6060	0.007762
476.8277	0.009176
477.0494	0.006791
477.2711	0.007424
477.4928	0.007909
477.7145	0.008141
477.9363	0.008944
478.1580	0.008880
478.3798	0.007276
478.6016	0.006242
478.8234	0.008120
479.0452	0.007445
479.2670	0.005820
479.4888	0.006559
479.7107	0.007361
479.9325	0.006854
480.1544	0.007424
480.3763	0.006495
480.5982	0.006664
480.8201	0.007719
481.0420	0.006411
481.2639	0.006390
481.4859	0.007804
481.7078	0.007508
481.9298	0.007192
482.1517	0.005799
482.3737	0.006537
482.5957	0.007487
482.8177	0.007128
483.0398	0.006664
483.2618	0.004933
483.4838	0.007128
483.7059	0.006854
483.9280	0.005609
484.1501	0.007297
484.3721	0.005482
484.5943	0.006348
484.8164	0.006727
485.0385	0.006685
485.2606	0.006622
485.4828	0.008289
485.7050	0.013756
485.9271	0.019834
486.1493	0.020425
486.3715	0.017639
486.5937	0.012215
486.8160	0.010104
487.0382	0.012173
487.2605	0.012489
487.4827	0.008732
487.7050	0.008458
487.9273	0.005883
488.1496	0.007255
488.3719	0.005018
488.5942	0.005461
488.8165	0.004870
489.0389	0.004765
489.2612	0.003963
489.4836	0.005018
489.7060	0.004575
489.9284	0.004659
490.1508	0.005588
490.3732	0.004385
490.5956	0.003287
490.8180	0.005778
491.0405	0.005081
491.2630	0.005334
491.4854	0.004722
491.7079	0.004659
491.9304	0.004279
492.1529	0.005208
492.3755	0.004174
492.5980	0.004385
492.8205	0.005229
493.0431	0.004933
493.2657	0.003245
493.4882	0.004237
493.7108	0.004912
493.9334	0.005419
494.1561	0.004680
494.3787	0.003963
494.6013	0.003519
494.8240	0.004701
495.0466	0.003562
495.2693	0.005419
495.4920	0.003688
495.7147	0.003224
495.9374	0.003688
496.1601	0.003477
496.3829	0.004342
496.6056	0.004828
496.8284	0.005862
497.0511	0.004364
497.2739	0.003245
497.4967	0.004532
497.7195	0.004680
497.9423	0.005313
498.1652	0.002950
498.3880	0.003308
498.6109	0.004364
498.8337	0.004701
499.0566	0.003477
499.2795	0.003329
499.5024	0.002760
499.7253	0.004722
499.9482	0.003456
500.1712	0.004110
500.3941	0.004089
500.6171	0.002464
500.8400	0.004469
501.0630	0.003435
501.2860	0.004490
501.5090	0.005123
501.7320	0.004406
501.9551	0.003857
502.1781	0.003308
502.4012	0.003139
502.6242	0.003583
502.8473	0.003203
503.0704	0.005757
503.2935	0.003625
503.5166	0.003372
503.7397	0.005778
503.9628	0.003393
504.1860	0.002971
504.4092	0.003034
504.6323	0.003435
504.8555	0.003984
505.0787	0.003519
505.3019	0.003562
505.5251	0.004195
505.7483	0.003646
505.9716	0.004891
506.1948	0.003393
506.4181	0.006031
506.6414	0.003224
506.8647	0.002886
507.0880	0.004364
507.3113	0.003013
507.5346	0.001894
507.7579	0.003646
507.9813	0.002823
508.2046	0.004427
508.4280	0.002527
508.6514	0.003308
508.8748	0.004174
509.0982	0.004026
509.3216	0.003308
509.5450	0.003224
509.7685	0.002950
509.9919	0.002886
510.2154	0.002717
510.4388	0.003941
510.6623	0.002992
510.8858	0.003456
511.1093	0.003266
511.3329	0.002928
511.5564	0.003076
511.7799	0.002802
512.0035	0.004174
512.2270	0.003857
512.4506	0.002337
512.6742	0.004131
512.8978	0.002084
513.1214	0.003414
513.3451	0.004406
513.5687	0.003329
513.7923	0.005398
514.0160	0.001683
514.2397	0.003920
514.4634	0.004976
514.6871	0.003562
514.9108	0.001430
515.1345	0.004364
515.3582	0.004891
515.5819	0.002633
515.8057	0.003393
516.0295	0.001979
516.2532	0.003456
516.4770	0.003709
516.7008	0.002823
516.9246	0.001789
517.1485	0.004342
517.3723	0.003139
517.5961	0.003055
517.8200	0.003118
518.0439	0.003224
518.2677	0.004638
518.4916	0.003583
518.7155	0.002950
518.9395	0.001557
519.1634	0.004026
519.3873	0.004701
519.6113	0.003646
519.8352	0.004786
520.0592	0.002802
520.2832	0.003583
520.5072	0.003393
520.7312	0.003393
520.9552	0.003414
521.1792	0.002380
521.4033	0.005377
521.6273	0.003308
521.8514	0.004511
522.0755	0.003941
522.2996	0.004005
522.5237	0.003625
522.7478	0.003266
522.9719	0.003329
523.1960	0.004532
523.4202	0.003815
523.6443	0.004026
523.8685	0.002126
524.0927	0.003266
524.3169	0.003435
524.5411	0.004933
524.7653	0.002422
524.9895	0.003941
525.2138	0.004765
525.4380	0.005123
525.6623	0.004258
525.8865	0.004131
526.1108	0.005630
526.3351	0.005609
526.5594	0.005060
526.7837	0.004849
527.0081	0.004026
527.2324	0.004554
527.4568	0.003878
527.6811	0.004469
527.9055	0.004849
528.1299	0.003245
528.3543	0.004385
528.5787	0.005693
528.8031	0.004279
529.0276	0.005039
529.2520	0.005166
529.4765	0.004955
529.7009	0.005398
529.9254	0.005947
530.1499	0.005250
530.3744	0.004068
530.5989	0.006158
530.8234	0.005208
531.0480	0.004891
531.2725	0.005947
531.4971	0.003519
531.7217	0.005377
531.9462	0.003899
532.1708	0.005334
532.3954	0.007255
532.6200	0.004596
532.8447	0.006411
533.0693	0.006073
533.2940	0.006580
533.5186	0.007635
533.7433	0.006200
533.9680	0.006917
534.1927	0.007403
534.4174	0.007213
534.6421	0.005947
534.8668	0.009112
535.0916	0.007213
535.3163	0.009978
535.5411	0.006833
535.7659	0.008078
535.9907	0.007255
536.2155	0.008754
536.4403	0.007171
536.6651	0.008711
536.8899	0.007930
537.1148	0.008521
537.3396	0.007255
537.5645	0.009133
537.7894	0.008184
538.0143	0.008353
538.2392	0.010970
538.4641	0.008479
538.6890	0.009513
538.9139	0.007867
539.1389	0.010484
539.3638	0.011160
539.5888	0.010843
539.8138	0.010716
540.0388	0.009914
540.2638	0.010294
540.4888	0.010759
540.7138	0.011561
540.9389	0.009281
541.1639	0.009429
541.3890	0.011434
541.6140	0.012679
541.8391	0.010484
542.0642	0.012299
542.2893	0.012342
542.5144	0.013418
542.7396	0.012574
542.9647	0.012468
543.1899	0.012848
543.4150	0.013355
543.6402	0.012194
543.8654	0.014325
544.0906	0.013165
544.3158	0.014241
544.5410	0.014135
544.7662	0.012848
544.9915	0.013608
545.2167	0.015170
545.4420	0.013861
545.6673	0.013903
545.8926	0.013713
546.1179	0.014157
546.3432	0.014347
546.5685	0.014262
546.7938	0.014558
547.0192	0.016520
547.2445	0.014431
547.4699	0.014853
547.6953	0.017175
547.9206	0.018821
548.1460	0.018673
548.3715	0.019644
548.5969	0.017808
548.8223	0.019581
549.0478	0.019159
549.2732	0.017386
549.4987	0.017892
549.7242	0.017555
549.9496	0.016921
550.1751	0.019433
550.4007	0.017808
550.6262	0.016985
550.8517	0.017913
551.0773	0.017111
551.3028	0.017238
551.5284	0.018272
551.7540	0.016162
551.9796	0.019095
552.2052	0.021290
552.4308	0.021227
552.6564	0.020784
552.8820	0.023928
553.1077	0.018758
553.3333	0.022557
553.5590	0.021058
553.7847	0.024308
554.0104	0.022557
554.2361	0.023338
554.4618	0.021902
554.6875	0.021839
554.9132	0.022451
555.1390	0.023084
555.3648	0.024203
555.5905	0.024963
555.8163	0.023971
556.0421	0.025490
556.2679	0.027369
556.4937	0.027094
556.7195	0.023084
556.9454	0.026377
557.1712	0.022852
557.3971	0.022683
557.6230	0.025490
557.8488	0.027981
558.0747	0.025533
558.3006	0.027179
558.5266	0.024308
558.7525	0.025237
558.9784	0.023823
559.2044	0.025068
559.4303	0.026039
559.6563	0.024182
559.8823	0.025364
560.1083	0.026609
560.3343	0.029120
560.5603	0.030513
560.7863	0.031843
561.0124	0.031695
561.2384	0.034439
561.4645	0.034080
561.6905	0.031970
561.9166	0.032962
562.1427	0.032054
562.3688	0.033764
562.5949	0.031632
562.8211	0.032392
563.0472	0.033426
563.2733	0.034819
563.4995	0.034882
563.7257	0.035220
563.9519	0.036529
564.1781	0.034439
564.4043	0.036444
564.6305	0.038808
564.8567	0.036170
565.0829	0.038006
565.3092	0.039188
565.5355	0.038555
565.7617	0.038449
565.9880	0.040159
566.2143	0.041721
566.4406	0.038829
566.6669	0.039821
566.8932	0.042333
567.1196	0.043472
567.3459	0.048664
567.5723	0.052484
567.7987	0.051556
568.0250	0.052611
568.2514	0.053666
568.4778	0.057951
568.7043	0.062045
568.9307	0.065844
569.1571	0.068356
569.3836	0.071669
569.6100	0.080660
569.8365	0.088596
570.0630	0.099508
570.2895	0.097355
570.5160	0.100542
570.7425	0.101154
570.9690	0.108393
571.1956	0.117595
571.4221	0.117469
571.6487	0.121584
571.8752	0.127051
572.1018	0.131609
572.3284	0.132749
572.5550	0.122808
572.7816	0.115210
573.0082	0.115358
573.2349	0.119030
573.4615	0.132644
573.6882	0.142816
573.9149	0.148409
574.1415	0.156556
574.3682	0.161558
574.5949	0.165209
574.8216	0.165632
575.0484	0.164576
575.2751	0.169135
575.5018	0.171478
575.7286	0.163922
575.9554	0.153897
576.1821	0.151765
576.4089	0.157400
576.6357	0.165378
576.8626	0.171541
577.0894	0.178337
577.3162	0.181820
577.5431	0.188573
577.7699	0.211410
577.9968	0.237982
578.2237	0.230552
578.4505	0.217974
578.6774	0.206429
578.9044	0.193322
579.1313	0.185513
579.3582	0.186589
579.5851	0.194842
579.8121	0.195475
580.0391	0.200920
580.2660	0.205416
580.4930	0.199844
580.7200	0.194335
580.9470	0.196762
581.1741	0.231249
581.4011	0.278800
581.6281	0.307504
581.8552	0.310247
582.0822	0.304528
582.3093	0.293363
582.5364	0.277871
582.7635	0.254149
582.9906	0.233360
583.2177	0.219472
583.4449	0.200962
583.6720	0.191106
583.8991	0.187223
584.1263	0.190705
584.3535	0.191655
584.5807	0.192647
584.8079	0.200688
585.0351	0.220633
585.2623	0.229814
585.4895	0.233170
585.7167	0.228948
585.9440	0.223334
586.1713	0.206703
586.3985	0.195749
586.6258	0.190684
586.8531	0.198662
587.0804	0.204445
587.3077	0.220337
587.5350	0.223567
587.7624	0.217404
587.9897	0.208349
588.2171	0.199401
588.4445	0.198092
588.6718	0.194166
588.8992	0.183086
589.1266	0.172955
589.3540	0.161600
589.5815	0.157379
589.8089	0.159891
590.0363	0.159173
590.2638	0.156577
590.4913	0.142247
590.7187	0.140790
590.9462	0.133298
591.1737	0.132137
591.4012	0.130807
591.6288	0.129879
591.8563	0.127219
592.0838	0.126671
592.3114	0.131483
592.5389	0.149190
592.7665	0.177873
592.9941	0.192394
593.2217	0.201659
593.4493	0.195897
593.6769	0.191971
593.9046	0.186484
594.1322	0.177240
594.3598	0.168396
594.5875	0.168122
594.8152	0.174770
595.0429	0.190199
595.2705	0.190895
595.4983	0.187835
595.7260	0.180490
595.9537	0.171119
596.1814	0.161115
596.4092	0.149887
596.6369	0.139608
596.8647	0.138258
597.0925	0.140980
597.3203	0.145455
597.5481	0.150794
597.7759	0.147333
598.0037	0.142521
598.2315	0.139862
598.4594	0.140643
598.6872	0.147016
598.9151	0.172744
599.1430	0.184078
599.3709	0.179751
599.5988	0.171478
599.8267	0.172997
600.0546	0.176775
600.2825	0.181292
600.5105	0.181777
600.7384	0.179751
600.9664	0.181946
601.1944	0.180891
601.4223	0.177957
601.6503	0.174011
601.8783	0.167067
602.1064	0.162677
602.3344	0.166075
602.5624	0.162276
602.7905	0.164112
603.0185	0.169198
603.2466	0.178126
603.4747	0.184458
603.7028	0.183023
603.9309	0.177894
604.1590	0.172892
604.3871	0.166159
604.6152	0.158456
604.8434	0.153158
605.0715	0.154235
605.2997	0.154826
605.5279	0.158561
605.7561	0.165062
605.9843	0.169663
606.2125	0.169916
606.4407	0.162445
606.6689	0.156852
606.8972	0.154994
607.1254	0.155037
607.3537	0.154192
607.5819	0.154087
607.8102	0.157717
608.0385	0.153728
608.2668	0.143597
608.4951	0.143323
608.7235	0.142605
608.9518	0.140242
609.1801	0.135451
609.4085	0.128845
609.6369	0.134965
609.8653	0.136886
610.0936	0.147586
610.3220	0.147185
610.5505	0.150858
610.7789	0.141508
611.0073	0.137287
611.2357	0.136865
611.4642	0.135619
611.6927	0.138152
611.9211	0.134839
612.1496	0.133446
612.3781	0.124856
612.6066	0.129224
612.8351	0.128929
613.0637	0.132475
613.2922	0.125257
613.5208	0.126059
613.7493	0.123990
613.9779	0.129710
614.2065	0.127853
614.4351	0.125024
614.6637	0.126565
614.8923	0.124117
615.1209	0.125721
615.3495	0.123800
615.5782	0.129414
615.8068	0.129182
616.0355	0.122682
616.2642	0.116012
616.4929	0.113965
616.7216	0.111876
616.9503	0.109554
617.1790	0.105987
617.4077	0.109744
617.6365	0.111538
617.8652	0.111221
618.0940	0.111158
618.3227	0.109638
618.5515	0.102526
618.7803	0.096469
619.0091	0.091867
619.2379	0.091572
619.4667	0.087984
619.6956	0.088385
619.9244	0.093746
620.1533	0.093028
620.3821	0.098980
620.6110	0.093725
620.8399	0.089504
621.0688	0.079035
621.2977	0.073083
621.5266	0.071353
621.7556	0.078930
621.9845	0.078909
622.2135	0.082454
622.4424	0.082982
622.6714	0.086042
622.9004	0.086338
623.1294	0.086190
623.3584	0.089926
623.5874	0.088765
623.8164	0.088258
624.0454	0.086211
624.2745	0.087794
624.5035	0.088617
624.7326	0.090158
624.9617	0.088554
625.1908	0.086549
625.4199	0.083932
625.6490	0.080998
625.8781	0.080048
626.1072	0.076017
626.3364	0.077579
626.5655	0.070741
626.7947	0.073273
627.0238	0.070614
627.2530	0.068060
627.4822	0.072894
627.7114	0.070086
627.9406	0.067702
628.1698	0.065739
628.3991	0.059956
628.6283	0.059977
628.8576	0.056706
629.0868	0.061750
629.3161	0.059407
629.5454	0.061771
629.7747	0.064092
630.0040	0.059787
630.2333	0.061961
630.4626	0.058711
630.6920	0.059006
630.9213	0.054489
631.1507	0.053202
631.3801	0.051556
631.6094	0.052463
631.8388	0.050880
632.0682	0.050311
632.2976	0.050796
632.5271	0.051556
632.7565	0.046258
632.9859	0.044886
633.2154	0.045899
633.4448	0.046828
633.6743	0.045097
633.9038	0.041615
634.1333	0.044105
634.3628	0.042311
634.5923	0.040771
634.8218	0.039610
635.0514	0.041953
635.2809	0.039927
635.5105	0.042396
635.7400	0.043831
635.9696	0.041784
636.1992	0.043050
636.4288	0.045984
636.6584	0.047525
636.8880	0.044084
637.1177	0.041953
637.3473	0.041087
637.5770	0.040581
637.8066	0.038702
638.0363	0.039272
638.2660	0.044169
638.4957	0.042712
638.7254	0.039504
638.9551	0.041404
639.1848	0.042333
639.4145	0.040454
639.6443	0.040690
639.8740	0.039620
640.1038	0.037184
640.3336	0.038078
640.5633	0.036652
640.7931	0.038380
641.0229	0.036641
641.2528	0.035149
641.4826	0.036068
641.7124	0.033454
641.9423	0.032617
642.1721	0.033381
642.4020	0.030620
642.6319	0.029360
642.8617	0.029869
643.0916	0.031317
643.3216	0.029333
643.5515	0.027169
643.7814	0.030822
644.0113	0.029850
644.2413	0.026704
644.4712	0.029743
644.7012	0.025881
644.9312	0.028266
645.1612	0.025919
645.3912	0.027514
645.6212	0.029626
645.8512	0.026977
646.0812	0.026266
646.3113	0.027430
646.5413	0.024580
646.7714	0.025879
647.0015	0.023960
647.2316	0.027664
647.4616	0.024050
647.6918	0.026741
647.9219	0.028462
648.1520	0.030226
648.3821	0.029032
648.6123	0.033005
648.8424	0.032266
649.0726	0.032318
649.3028	0.032938
649.5329	0.032090
649.7631	0.032680
649.9933	0.032900
650.2236	0.031678
650.4538	0.028750
650.6840	0.028976
650.9143	0.028568
651.1445	0.028018
651.3748	0.028781
651.6051	0.030746
651.8354	0.032439
652.0657	0.032659
652.2960	0.030642
652.5263	0.032694
652.7566	0.034504
652.9870	0.032253
653.2173	0.031348
653.4477	0.032395
653.6780	0.032409
653.9084	0.033445
654.1388	0.033537
654.3692	0.033576
654.5996	0.037528
654.8300	0.039395
655.0605	0.065199
655.2909	0.188644
655.5213	0.516695
655.7518	0.941279
655.9823	1.000000
656.2128	1.000000
656.4433	1.000000
656.6738	1.000000
656.9043	1.000000
657.1348	0.862694
657.3653	0.703665
657.5959	0.613116
657.8264	0.530293
658.0570	0.482540
658.2875	0.449439
658.5181	0.412561
658.7487	0.378478
658.9793	0.364562
659.2099	0.334812
659.4406	0.257412
659.6712	0.170282
659.9018	0.100080
660.1325	0.060919
660.3632	0.039274
660.5938	0.031234
660.8245	0.028531
661.0552	0.024325
661.2859	0.025123
661.5166	0.024021
661.7474	0.021361
661.9781	0.024190
662.2088	0.021027
662.4396	0.021672
662.6704	0.022497
662.9011	0.021523
663.1319	0.020958
663.3627	0.020955
663.5935	0.023250
663.8243	0.021995
664.0552	0.022033
664.2860	0.021664
664.5168	0.022729
664.7477	0.021151
664.9786	0.021942
665.2094	0.024341
665.4403	0.023702
665.6712	0.022510
665.9021	0.023616
666.1330	0.024160
666.3640	0.022807
666.5949	0.023102
666.8259	0.019930
667.0568	0.021961
667.2878	0.020576
667.5188	0.022598
667.7497	0.021795
667.9807	0.021768
668.2117	0.020114
668.4428	0.021290
668.6738	0.021712
668.9048	0.023190
669.1359	0.021522
669.3669	0.021923
669.5980	0.022367
669.8291	0.021290
670.0602	0.022008
670.2913	0.021902
670.5224	0.022557
670.7535	0.022346
670.9846	0.022451
671.2157	0.023928
671.4469	0.026672
671.6781	0.030577
671.9092	0.029479
672.1404	0.031189
672.3716	0.032962
672.6028	0.036275
672.8340	0.034186
673.0652	0.033679
673.2964	0.031442
673.5277	0.030450
673.7589	0.028719
673.9902	0.029247
674.2214	0.028107
674.4527	0.026925
674.6840	0.026799
674.9153	0.025786
675.1466	0.027115
675.3779	0.028023
675.6093	0.027432
675.8406	0.026778
676.0719	0.025638
676.3033	0.026271
676.5347	0.025575
676.7661	0.024224
676.9974	0.022557
677.2288	0.023549
677.4602	0.025174
677.6917	0.027094
677.9231	0.028044
678.1545	0.029289
678.3860	0.029521
678.6174	0.029163
678.8489	0.030007
679.0804	0.030725
679.3119	0.034418
679.5434	0.037774
679.7749	0.036360
680.0064	0.035959
680.2379	0.034840
680.4694	0.036360
680.7010	0.031780
680.9325	0.032497
681.1641	0.034650
681.3957	0.035030
681.6273	0.035178
681.8589	0.034334
682.0905	0.034925
682.3221	0.032223
682.5537	0.030598
682.7854	0.030408
683.0170	0.030809
683.2487	0.030619
683.4803	0.032012
683.7120	0.031906
683.9437	0.031104
684.1754	0.033131
684.4071	0.035895
684.6388	0.038998
684.8705	0.039082
685.1023	0.042079
685.3340	0.042185
685.5658	0.044021
685.7975	0.045604
686.0293	0.045815
686.2611	0.044929
686.4929	0.043641
686.7247	0.043916
686.9565	0.044000
687.1883	0.045435
687.4202	0.043029
687.6520	0.043050
687.8838	0.043303
688.1157	0.041699
688.3476	0.039357
688.5795	0.039673
688.8114	0.036402
689.0433	0.037162
689.2752	0.038639
689.5071	0.038534
689.7390	0.034608
689.9710	0.036381
690.2029	0.035030
690.4349	0.033067
690.6669	0.033890
690.8988	0.037246
691.1308	0.039737
691.3628	0.038956
691.5948	0.038154
691.8269	0.037246
692.0589	0.037943
692.2909	0.037436
692.5230	0.038428
692.7550	0.037732
692.9871	0.037647
693.2192	0.038365
693.4513	0.040264
693.6834	0.040813
693.9155	0.036550
694.1476	0.035705
694.3797	0.034249
694.6119	0.034270
694.8440	0.033257
695.0762	0.034355
695.3083	0.035051
695.5405	0.031674
695.7727	0.030176
696.0049	0.032075
696.2371	0.030556
696.4693	0.031548
696.7016	0.035684
696.9338	0.039547
697.1660	0.039526
697.3983	0.039948
697.6306	0.037563
697.8628	0.037584
698.0951	0.038766
698.3274	0.038323
698.5597	0.037521
698.7920	0.037795
699.0243	0.036507
699.2567	0.035959
699.4890	0.033996
699.7214	0.034481
699.9537	0.032603
700.1861	0.031421
700.4185	0.031738
700.6509	0.032730
700.8833	0.029057
701.1157	0.029036
701.3481	0.027474
701.5806	0.030176
701.8130	0.028340
702.0454	0.030049
702.2779	0.027284
702.5104	0.030893
702.7429	0.031949
702.9753	0.030619
703.2078	0.027179
703.4403	0.030492
703.6729	0.028424
703.9054	0.028846
704.1379	0.027516
704.3705	0.027664
704.6030	0.026419
704.8356	0.026630
705.0682	0.025765
705.3008	0.024899
705.5334	0.024942
705.7660	0.023591
705.9986	0.024351
706.2312	0.026524
706.4638	0.032096
706.6965	0.033046
706.9291	0.035600
707.1618	0.036254
707.3945	0.037225
707.6272	0.039293
707.8599	0.038027
708.0926	0.038344
708.3253	0.038344
708.5580	0.036761
708.7907	0.037246
709.0235	0.035431
709.2562	0.033278
709.4890	0.032392
709.7217	0.033553
709.9545	0.034291
710.1873	0.035368
710.4201	0.034671
710.6529	0.034524
710.8857	0.034376
711.1186	0.033553
711.3514	0.031505
711.5842	0.031379
711.8171	0.031315
712.0500	0.029627
712.2828	0.028593
712.5157	0.027981
712.7486	0.031168
712.9815	0.030936
713.2144	0.030408
713.4474	0.031864
713.6803	0.033954
713.9132	0.035895
714.1462	0.034524
714.3791	0.033152
714.6121	0.034545
714.8451	0.035368
715.0781	0.037014
715.3111	0.034165
715.5441	0.035727
715.7771	0.032096
716.0102	0.032624
716.2432	0.030893
716.4762	0.030028
716.7093	0.029944
716.9424	0.029395
717.1754	0.028044
717.4085	0.029078
717.6416	0.028023
717.8747	0.030535
718.1078	0.030513
718.3410	0.028572
718.5741	0.026925
718.8072	0.030556
719.0404	0.030134
719.2736	0.030323
719.5067	0.030197
719.7399	0.030661
719.9731	0.028762
720.2063	0.027875
720.4395	0.028635
720.6727	0.030598
720.9060	0.030429
721.1392	0.028635
721.3725	0.028973
721.6057	0.029965
721.8390	0.030577
722.0723	0.031337
722.3055	0.029986
722.5388	0.029817
722.7721	0.026166
723.0055	0.027411
723.2388	0.027770
723.4721	0.027896
723.7055	0.028783
723.9388	0.030155
724.1722	0.028382
724.4056	0.026693
724.6389	0.027664
724.8723	0.027221
725.1057	0.029901
725.3391	0.031442
725.5726	0.032181
725.8060	0.034819
726.0394	0.033722
726.2729	0.032075
726.5063	0.036845
726.7398	0.031759
726.9733	0.032856
727.2068	0.033278
727.4403	0.031168
727.6738	0.032814
727.9073	0.032919
728.1408	0.033194
728.3743	0.035980
728.6079	0.036951
728.8414	0.033468
729.0750	0.033320
729.3086	0.034925
729.5421	0.037352
729.7757	0.037098
730.0093	0.037985
730.2429	0.037837
730.4766	0.038407
730.7102	0.041699
730.9438	0.043050
731.1775	0.042755
731.4111	0.042037
731.6448	0.043451
731.8785	0.045456
732.1122	0.042881
732.3458	0.038407
732.5795	0.041763
732.8133	0.043071
733.0470	0.042100
733.2807	0.046364
733.5145	0.046005
733.7482	0.046533
733.9820	0.046047
734.2157	0.049107
734.4495	0.053308
734.6833	0.051619
734.9171	0.047208
735.1509	0.047525
735.3847	0.048263
735.6185	0.048284
735.8524	0.047039
736.0862	0.047989
736.3201	0.048812
736.5539	0.049720
736.7878	0.048305
737.0217	0.050627
737.2556	0.047039
737.4895	0.048685
737.7234	0.046596
737.9573	0.043240
738.1912	0.042185
738.4252	0.040792
738.6591	0.039863
738.8931	0.042058
739.1271	0.045097
739.3610	0.046343
739.5950	0.047271
739.8290	0.046976
740.0630	0.042945
740.2970	0.040581
740.5310	0.042924
740.7651	0.039483
740.9991	0.039188
741.2332	0.036275
741.4672	0.035136
741.7013	0.033152
741.9354	0.035368
742.1695	0.034798
742.4036	0.031991
742.6377	0.035494
742.8718	0.035600
743.1059	0.033447
743.3400	0.032117
743.5742	0.030978
743.8083	0.031906
744.0425	0.030872
744.2767	0.031273
744.5108	0.028424
744.7450	0.028783
744.9792	0.031147
745.2134	0.031062
745.4477	0.029142
745.6819	0.028192
745.9161	0.028677
746.1504	0.030513
746.3846	0.029057
746.6189	0.029458
746.8532	0.029775
747.0874	0.027601
747.3217	0.031231
747.5560	0.032772
747.7903	0.030535
748.0247	0.030134
748.2590	0.030345
748.4933	0.027390
748.7277	0.030112
748.9620	0.029184
749.1964	0.031273
749.4308	0.034334
749.6652	0.035494
749.8995	0.036655
750.1339	0.039715
750.3684	0.041151
750.6028	0.042079
750.8372	0.039547
751.0717	0.039779
751.3061	0.037563
751.5406	0.041573
751.7750	0.038956
752.0095	0.039399
752.2440	0.040349
752.4785	0.038449
752.7130	0.037605
752.9475	0.037542
753.1820	0.036676
753.4166	0.037732
753.6511	0.041024
753.8856	0.043768
754.1202	0.042417
754.3548	0.041995
754.5894	0.038850
754.8239	0.039610
755.0585	0.040454
755.2931	0.042523
755.5278	0.043135
755.7624	0.043219
755.9970	0.045815
756.2317	0.046638
756.4663	0.048116
756.7010	0.048580
756.9356	0.051767
757.1703	0.054299
757.4050	0.055861
757.6397	0.059006
757.8744	0.057571
758.1091	0.056917
758.3438	0.056832
758.5786	0.055291
758.8133	0.052316
759.0481	0.054468
759.2828	0.058267
759.5176	0.060821
759.7524	0.059808
759.9872	0.061475
760.2220	0.060652
760.4568	0.063544
760.6916	0.065697
760.9264	0.064873
761.1613	0.062868
761.3961	0.057149
761.6310	0.056558
761.8658	0.053856
762.1007	0.051809
762.3356	0.050205
762.5705	0.047947
762.8054	0.046554
763.0403	0.047356
763.2752	0.051788
763.5101	0.050289
763.7450	0.050015
763.9800	0.049192
764.2149	0.053751
764.4499	0.057592
764.6849	0.057360
764.9198	0.058964
765.1548	0.058141
765.3898	0.058858
765.6248	0.055524
765.8599	0.051197
766.0949	0.050205
766.3299	0.046174
766.5650	0.045498
766.8000	0.042881
767.0351	0.037415
767.2701	0.037668
767.5052	0.038956
767.7403	0.039758
767.9754	0.039652
768.2105	0.043472
768.4456	0.045414
768.6808	0.048664
768.9159	0.049530
769.1510	0.048939
769.3862	0.046047
769.6214	0.047736
769.8565	0.043747
770.0917	0.045498
770.3269	0.045182
770.5621	0.046322
770.7973	0.049129
771.0325	0.049720
771.2677	0.048812
771.5030	0.050543
771.7382	0.045857
771.9735	0.043198
772.2087	0.042734
772.4440	0.042438
772.6793	0.040940
772.9146	0.041889
773.1499	0.040623
773.3852	0.041742
773.6205	0.038280
773.8558	0.039547
774.0911	0.035283
774.3265	0.035494
774.5618	0.033722
774.7972	0.031695
775.0326	0.029986
775.2679	0.030091
775.5033	0.028213
775.7387	0.028361
775.9741	0.027390
776.2095	0.027348
776.4450	0.026419
776.6804	0.025321
776.9158	0.025912
777.1513	0.025005
777.3868	0.024519
777.6222	0.023739
777.8577	0.025110
778.0932	0.026757
778.3287	0.027031
778.5642	0.027643
778.7997	0.027137
779.0352	0.028276
779.2707	0.030577
779.5063	0.030746
779.7418	0.030978
779.9774	0.028698
780.2130	0.028445
780.4485	0.028129
780.6841	0.028107
780.9197	0.030323
781.1553	0.033405
781.3909	0.034460
781.6265	0.034925
781.8622	0.035051
782.0978	0.034566
782.3335	0.034207
782.5691	0.036444
782.8048	0.034418
783.0405	0.034967
783.2761	0.034946
783.5118	0.033933
783.7475	0.037246
783.9832	0.035304
784.2190	0.034587
784.4547	0.032054
784.6904	0.031569
784.9262	0.029796
785.1619	0.029205
785.3977	0.029965
785.6335	0.027812
785.8692	0.028234
786.1050	0.029754
786.3408	0.028656
786.5766	0.029416
786.8124	0.029205
787.0483	0.028044
787.2841	0.029585
787.5199	0.029880
787.7558	0.028698
787.9917	0.031294
788.2275	0.029458
788.4634	0.030471
788.6993	0.029796
788.9352	0.031864
789.1711	0.032666
789.4070	0.029268
789.6429	0.027601
789.8789	0.025596
790.1148	0.027685
790.3507	0.026714
790.5867	0.025744
790.8227	0.024118
791.0586	0.026039
791.2946	0.025026
791.5306	0.025216
791.7666	0.023506
792.0026	0.022177
792.2387	0.023211
792.4747	0.022789
792.7107	0.022683
792.9468	0.023739
793.1828	0.023063
793.4189	0.021079
793.6550	0.022915
793.8910	0.027179
794.1271	0.030492
794.3632	0.031759
794.5993	0.030471
794.8355	0.030323
795.0716	0.030999
795.3077	0.032751
795.5439	0.031083
795.7800	0.030492
796.0162	0.025617
796.2523	0.025765
796.4885	0.024013
796.7247	0.023021
796.9609	0.022894
797.1971	0.021164
797.4333	0.023591
797.6695	0.024393
797.9058	0.023696
798.1420	0.023549
798.3783	0.023739
798.6145	0.024330
798.8508	0.023169
799.0871	0.022641
799.3233	0.022029
799.5596	0.022493
799.7959	0.022261
800.0322	0.020657
800.2686	0.022346
800.5049	0.018905
800.7412	0.019159
800.9776	0.018652
801.2139	0.017934
801.4503	0.020129
801.6867	0.018821
801.9230	0.016858
802.1594	0.018821
802.3958	0.017259
802.6322	0.016837
802.8686	0.015845
803.1051	0.019370
803.3415	0.017723
803.5779	0.020530
803.8144	0.017618
804.0508	0.018399
804.2873	0.015782
804.5238	0.018737
804.7603	0.017956
804.9968	0.018948
805.2333	0.017132
805.4698	0.019074
805.7063	0.017576
805.9428	0.019138
806.1794	0.022451
806.4159	0.024372
806.6525	0.025385
806.8890	0.023717
807.1256	0.023992
807.3622	0.023190
807.5988	0.020763
807.8354	0.021902
808.0720	0.023232
808.3086	0.023760
808.5452	0.025258
808.7818	0.024963
809.0185	0.023591
809.2551	0.021670
809.4918	0.022620
809.7284	0.021649
809.9651	0.019496
810.2018	0.020341
810.4385	0.020193
810.6752	0.019644
810.9119	0.018378
811.1486	0.019876
811.3853	0.017829
811.6221	0.018040
811.8588	0.018568
812.0956	0.016436
812.3323	0.015233
812.5691	0.016246
812.8059	0.014178
813.0427	0.014853
813.2795	0.014621
813.5163	0.016352
813.7531	0.019180
813.9899	0.021734
814.2267	0.018124
814.4636	0.018441
814.7004	0.019982
814.9373	0.016837
815.1742	0.016647
815.4110	0.018378
815.6479	0.015360
815.8848	0.013017
816.1217	0.014368
816.3586	0.014262
816.5955	0.015339
816.8324	0.015043
817.0694	0.015149
817.3063	0.014621
817.5433	0.014621
817.7802	0.015803
818.0172	0.015402
818.2542	0.014325
818.4912	0.013882
818.7282	0.014135
818.9652	0.013418
819.2022	0.012827
819.4392	0.012637
819.6762	0.013439
819.9133	0.012426
820.1503	0.013291
820.3874	0.014220
820.6244	0.014325
820.8615	0.016816
821.0986	0.015803
821.3357	0.014283
821.5727	0.014536
821.8099	0.015064
822.0470	0.014241
822.2841	0.013734
822.5212	0.013249
822.7584	0.014283
822.9955	0.011328
823.2327	0.011244
823.4698	0.012447
823.7070	0.013059
823.9442	0.011160
824.1814	0.012447
824.4186	0.011328
824.6558	0.010041
824.8930	0.011476
825.1302	0.012025
825.3675	0.013144
825.6047	0.013502
825.8419	0.014790
826.0792	0.012088
826.3165	0.012426
826.5537	0.013460
826.7910	0.012342
827.0283	0.011371
827.2656	0.014009
827.5029	0.013502
827.7402	0.012721
827.9776	0.013439
828.2149	0.011687
828.4522	0.012574
828.6896	0.012975
828.9270	0.011328
829.1643	0.014515
829.4017	0.012954
829.6391	0.013671
829.8765	0.013165
830.1139	0.012046
830.3513	0.010505
830.5887	0.009935
830.8261	0.009091
831.0636	0.010252
831.3010	0.008775
831.5385	0.008690
831.7759	0.009556
832.0134	0.008775
832.2509	0.009112
832.4884	0.007466
832.7259	0.008859
832.9634	0.009408
833.2009	0.010168
833.4384	0.010442
833.6759	0.010548
833.9135	0.009133
834.1510	0.009429
834.3886	0.011835
834.6261	0.012658
834.8637	0.010590
835.1013	0.011983
835.3389	0.010569
835.5765	0.009366
835.8141	0.010379
836.0517	0.010463
836.2893	0.009935
836.5269	0.008226
836.7646	0.007698
837.0022	0.007783
837.2399	0.007804
837.4775	0.007234
837.7152	0.008099
837.9529	0.007276
838.1906	0.006791
838.4283	0.008542
838.6660	0.006960
838.9037	0.008564
839.1414	0.007361
839.3791	0.007529
839.6169	0.008078
839.8546	0.007213
840.0924	0.008775
840.3302	0.007276
840.5679	0.007002
840.8057	0.008796
841.0435	0.006601
841.2813	0.006537
841.5191	0.007740
841.7569	0.006917
841.9947	0.006453
842.2326	0.005123
842.4704	0.006727
842.7082	0.007234
842.9461	0.005334
843.1840	0.005482
843.4218	0.006580
843.6597	0.005144
843.8976	0.005630
844.1355	0.005672
844.3734	0.006411
844.6113	0.005503
844.8492	0.005419
845.0872	0.006938
845.3251	0.006833
845.5631	0.005018
845.8010	0.007234
846.0390	0.005060
846.2770	0.005609
846.5149	0.005567
846.7529	0.006812
846.9909	0.005778
847.2289	0.004765
847.4669	0.007128
847.7050	0.004131
847.9430	0.005609
848.1810	0.005081
848.4191	0.005039
848.6571	0.004933
848.8952	0.005440
849.1333	0.003604
849.3713	0.004955
849.6094	0.005482
849.8475	0.005883
850.0856	0.003498
850.3237	0.005567
850.5619	0.003709
850.8000	0.005123
851.0381	0.006495
851.2763	0.005292
851.5144	0.003752
851.7526	0.006200
851.9908	0.004195
852.2289	0.007318
852.4671	0.006875
852.7053	0.009302
852.9435	0.008817
853.1817	0.012975
853.4200	0.014347
853.6582	0.014072
853.8964	0.012932
854.1347	0.015149
854.3729	0.013629
854.6112	0.014494
854.8495	0.014325
855.0877	0.013101
855.3260	0.011708
855.5643	0.012848
855.8026	0.012067
856.0409	0.012510
856.2792	0.012320
856.5176	0.012785
856.7559	0.012700
856.9942	0.013819
857.2326	0.012405
857.4710	0.011877
857.7093	0.010548
857.9477	0.010864
858.1861	0.011561
858.4245	0.010949
858.6629	0.010083
858.9013	0.009851
859.1397	0.009176
859.3781	0.009028
859.6166	0.010315
859.8550	0.010231
860.0935	0.008796
860.3319	0.007339
860.5704	0.008416
860.8089	0.008226
861.0473	0.007107
861.2858	0.007171
861.5243	0.006749
861.7628	0.007255
862.0013	0.007107
862.2399	0.006622
862.4784	0.005398
862.7169	0.006896
862.9555	0.006601
863.1940	0.006326
863.4326	0.005313
863.6712	0.006896
863.9098	0.006960
864.1483	0.007361
864.3869	0.006200
864.6255	0.006559
864.8642	0.005989
865.1028	0.007403
865.3414	0.005820
865.5800	0.006284
865.8187	0.006031
866.0573	0.005651
866.2960	0.006917
866.5347	0.005377
866.7733	0.005630
867.0120	0.006031
867.2507	0.005651
867.4894	0.005334
867.7281	0.004659
867.9669	0.004955
868.2056	0.005546
868.4443	0.004680
868.6831	0.004342
868.9218	0.005778
869.1606	0.005229
869.3993	0.004955
869.6381	0.005820
869.8769	0.005672
870.1157	0.005144
870.3545	0.004490
870.5933	0.006453
870.8321	0.005862
871.0709	0.006369
871.3097	0.006284
871.5486	0.005102
871.7874	0.005482
872.0263	0.005271
872.2651	0.004807
872.5040	0.005334
872.7429	0.004680
872.9818	0.005166
873.2207	0.005166
873.4596	0.006073
873.6985	0.005757
873.9374	0.005968
874.1763	0.005102
874.4153	0.005588
874.6542	0.006580
874.8932	0.007065
875.1321	0.005503
875.3711	0.006791
875.6101	0.007171
875.8491	0.004997
876.0880	0.005820
876.3270	0.005820
876.5661	0.004807
876.8051	0.005862
877.0441	0.006200
877.2831	0.006158
877.5222	0.005208
877.7612	0.006812
878.0003	0.007318
878.2393	0.007276
878.4784	0.006727
878.7175	0.007994
878.9566	0.006495
879.1957	0.006896
879.4348	0.007297
879.6739	0.007719
879.9130	0.007846
880.1521	0.008458
880.3913	0.008859
880.6304	0.009133
880.8696	0.008775
881.1087	0.006896
881.3479	0.006981
881.5871	0.008859
881.8262	0.007361
882.0654	0.007044
882.3046	0.006537
882.5438	0.005841
882.7831	0.006200
883.0223	0.006537
883.2615	0.006601
883.5007	0.006622
883.7400	0.007255
883.9792	0.007783
884.2185	0.005714
884.4578	0.006664
884.6971	0.005799
884.9363	0.004912
885.1756	0.006664
885.4149	0.005187
885.6542	0.007234
885.8936	0.006791
886.1329	0.005503
886.3722	0.007445
886.6116	0.006284
886.8509	0.006706
887.0903	0.006981
887.3296	0.006200
887.5690	0.005651
887.8084	0.005693
888.0478	0.005039
888.2872	0.006896
888.5266	0.006221
888.7660	0.005123
889.0054	0.005567
889.2448	0.005651
889.4843	0.004743
889.7237	0.004891
889.9632	0.004131
890.2026	0.004364
890.4421	0.004300
890.6816	0.004680
890.9211	0.004258
891.1606	0.005313
891.4001	0.004237
891.6396	0.005968
891.8791	0.004912
892.1186	0.004258
892.3581	0.005588
892.5977	0.004955
892.8372	0.005609
893.0768	0.005735
893.3163	0.004237
893.5559	0.005060
893.7955	0.006115
894.0351	0.004575
894.2747	0.005440
894.5143	0.005841
894.7539	0.004701
894.9935	0.005714
895.2331	0.004469
895.4727	0.003752
895.7124	0.005039
895.9520	0.005398
896.1917	0.006960
896.4314	0.004659
896.6710	0.005609
896.9107	0.004342
897.1504	0.005989
897.3901	0.005989
897.6298	0.004722
897.8695	0.004406
898.1092	0.006010
898.3489	0.005567
898.5887	0.005904
898.8284	0.003941
899.0682	0.004617
899.3079	0.004321
899.5477	0.003646
899.7875	0.005018
900.0272	0.003688
900.2670	0.003920
900.5068	0.002823
900.7466	0.005630
900.9864	0.004933
901.2263	0.004596
901.4661	0.003878
901.7059	0.005123
901.9458	0.004321
902.1856	0.005503
902.4255	0.006411
902.6654	0.003815
902.9052	0.004976
903.1451	0.004617
903.3850	0.003899
903.6249	0.004532
903.8648	0.005799
904.1047	0.006516
904.3446	0.005503
904.5846	0.005482
904.8245	0.003878
905.0644	0.004976
905.3044	0.004722
905.5444	0.006031
905.7843	0.005313
906.0243	0.004870
906.2643	0.005904
906.5043	0.005271
906.7443	0.004511
906.9843	0.003857
907.2243	0.006369
907.4643	0.006516
907.7043	0.004385
907.9444	0.005799
908.1844	0.004997
908.4245	0.004300
908.6645	0.003667
908.9046	0.004364
909.1447	0.004321
909.3847	0.004469
909.6248	0.002971
909.8649	0.003351
910.1050	0.003519
910.3452	0.003393
910.5853	0.003203
910.8254	0.004976
911.0655	0.003688
911.3057	0.006242
911.5458	0.004089
911.7860	0.005419
912.0262	0.004765
912.2663	0.004807
912.5065	0.004427
912.7467	0.004068
912.9869	0.003688
913.2271	0.004849
913.4673	0.004786
913.7075	0.003899
913.9478	0.002591
914.1880	0.003730
914.4283	0.003414
914.6685	0.003393
914.9088	0.002274
915.1490	0.003583
915.3893	0.003329
915.6296	0.004342
915.8699	0.004216
916.1102	0.005250
916.3505	0.003034
916.5908	0.004174
916.8311	0.005398
917.0714	0.004342
917.3118	0.004342
917.5521	0.002696
917.7925	0.004617
918.0328	0.005630
918.2732	0.003161
918.5136	0.003203
918.7539	0.003878
918.9943	0.004722
919.2347	0.005081
919.4751	0.003118
919.7155	0.003477
919.9560	0.004575
920.1964	0.003984
920.4368	0.004680
920.6773	0.003963
920.9177	0.001979
921.1582	0.003709
921.3986	0.003836
921.6391	0.003139
921.8796	0.002992
922.1201	0.003329
922.3606	0.003836
922.6011	0.003857
922.8416	0.005229
923.0821	0.002464
923.3226	0.005060
923.5631	0.003055
923.8037	0.002147
924.0442	0.004469
924.2848	0.003562
924.5254	0.004364
924.7659	0.003076
925.0065	0.002696
925.2471	0.001831
925.4877	0.002549
925.7283	0.002105
925.9689	0.002612
926.2095	0.004701
926.4501	0.001768
926.6908	0.003836
926.9314	0.001852
927.1720	0.002274
927.4127	0.002042
927.6533	0.003372
927.8940	0.002633
928.1347	0.003477
928.3754	0.002717
928.6161	0.001768
928.8568	0.003287
929.0975	0.000923
929.3382	0.003203
929.5789	0.002717
929.8196	0.002696
930.0604	0.002696
930.3011	0.002316
930.5419	0.003435
930.7826	0.002865
931.0234	0.001768
931.2642	0.002274
931.5049	0.002717
931.7457	0.002591
931.9865	0.002802
932.2273	0.002802
932.4681	0.003414
932.7089	0.001156
932.9498	0.001219
933.1906	0.002211
933.4314	0.001704
933.6723	0.003076
933.9131	0.003540
934.1540	0.002802
934.3949	0.004279
934.6358	0.001789
934.8766	0.002232
935.1175	0.004300
935.3584	0.003646
935.5993	0.000839
935.8403	0.002844
936.0812	0.003055
936.3221	0.001979
936.5630	0.001557
936.8040	0.001451
937.0449	0.001303
937.2859	0.001451
937.5269	0.001008
937.7678	0.002105
938.0088	0.002464
938.2498	0.000839
938.4908	0.002401
938.7318	0.002950
938.9728	0.002295
939.2138	0.001156
939.4549	0.004216
939.6959	0.001282
939.9369	0.003055
940.1780	0.001535
940.4190	0.003583
940.6601	0.002147
940.9012	0.002464
941.1422	0.001915
941.3833	0.002802
941.6244	0.001810
941.8655	0.003941
942.1066	0.001979
942.3477	0.002190
942.5889	0.000480
942.8300	0.000501
943.0711	0.001852
943.3123	0.001831
943.5534	0.001430
943.7946	0.001345
944.0357	0.002464
944.2769	0.002126
944.5181	0.000206
944.7593	0.002253
945.0005	0.001958
945.2417	0.001746
945.4829	0.001810
945.7241	0.001472
945.9653	0.000565
946.2066	0.001768
946.4478	0.000776
946.6891	0.001852
946.9303	0.000923
947.1716	0.001430
947.4128	0.001493
947.6541	0.000797
947.8954	0.000332
948.1367	0.001557
948.3780	0.001852
948.6193	0.001768
948.8606	0.000944
949.1019	0.002675
949.3433	0.001071
949.5846	0.002042
949.8259	0.001134
950.0673	0.000966
950.3086	0.000691
950.5500	0.002886
950.7914	0.000923
951.0327	0.000839
951.2741	0.001388
951.5155	0.002907
951.7569	0.000966
951.9983	0.002380
952.2398	0.002802
952.4812	0.002570
952.7226	0.003076
952.9640	0.002253
953.2055	0.001029
953.4469	0.002126
953.6884	0.001979
953.9299	0.001578
954.1713	0.001388
954.4128	0.002084
954.6543	0.000417
954.8958	0.001915
955.1373	0.002000
955.3788	0.001240
955.6203	0.001958
955.8618	0.003245
956.1034	0.000670
956.3449	0.001535
956.5865	0.001134
956.8280	0.000396
957.0696	0.001345
957.3111	0.001789
957.5527	0.001367
957.7943	0.000396
958.0359	0.002232
958.2775	0.000755
958.5191	0.001050
958.7607	0.001789
959.0023	0.000417
959.2439	0.002105
959.4856	0.001831
959.7272	0.001430
959.9688	0.001789
960.2105	0.002781
960.4522	0.001472
960.6938	0.001472
960.9355	0.000923
961.1772	0.001008
961.4189	0.001535
961.6606	0.001683
961.9023	0.001388
962.1440	0.001219
962.3857	0.001852
962.6274	0.001071
962.8692	0.000396
963.1109	0.001768
963.3527	0.000396
963.5944	0.001345
963.8362	0.000818
964.0779	0.002738
964.3197	0.001282
964.5615	0.000396
964.8033	0.000923
965.0451	0.001430
965.2869	0.001156
965.5287	0.000417
965.7705	0.001430
966.0123	0.002169
966.2542	0.001345
966.4960	0.000818
966.7379	0.001704
966.9797	0.002000
967.2216	0.000987
967.4634	0.001029
967.7053	0.000100
967.9472	-0.000153
968.1891	-0.000005
968.4310	0.002401
968.6729	0.001472
968.9148	0.001409
969.1567	-0.000174
969.3987	0.002316
969.6406	0.001936
969.8825	0.002359
970.1245	-0.000364
970.3664	0.001789
970.6084	0.001324
970.8504	-0.000026
971.0923	0.000290
971.3343	0.001303
971.5763	0.001620
971.8183	0.000565
972.0603	0.000016
972.3023	0.002021
972.5443	0.001388
972.7864	0.000607
973.0284	0.000565
973.2704	0.000797
973.5125	0.000733
973.7545	0.001599
973.9966	0.000543
974.2387	0.002232
974.4807	0.000269
974.7228	0.000311
974.9649	0.000966
975.2070	0.001177
975.4491	-0.000427
975.6912	0.001894
975.9333	0.000459
976.1755	0.001683
976.4176	-0.000174
976.6597	0.002464
976.9019	0.000311
977.1440	0.001451
977.3862	0.000733
977.6283	-0.000090
977.8705	0.001261
978.1127	0.001451
978.3549	0.000058
978.5971	0.001873
978.8393	0.001261
979.0815	0.001768
979.3237	0.000375
979.5659	0.000058
979.8082	-0.000047
980.0504	0.001092
980.2926	0.002274
980.5349	0.001768
980.7771	0.001134
981.0194	0.001557
981.2617	0.001704
981.5040	0.002865
981.7462	0.001725
981.9885	0.001725
982.2308	0.000058
982.4731	0.000206
982.7155	0.001177
982.9578	0.001725
983.2001	0.001177
983.4424	0.000797
983.6848	-0.000765
983.9271	0.002105
984.1695	-0.000195
984.4118	0.001662
984.6542	0.001768
984.8966	0.000375
985.1390	-0.002158
985.3814	0.002359
985.6238	-0.000195
985.8662	-0.000427
986.1086	0.000755
986.3510	0.000797
986.5934	0.000311
986.8358	0.002443
987.0783	0.001092
987.3207	0.002253
987.5632	0.000607
987.8056	0.001451
988.0481	-0.000385
988.2906	0.001177
988.5331	0.000712
988.7756	0.000332
989.0180	0.000522
989.2605	-0.000343
989.5031	0.001768
989.7456	0.002253
989.9881	0.002380
990.2306	0.000923
990.4732	0.000776
990.7157	0.000565
990.9582	0.001008
991.2008	0.001915
991.4434	-0.000744
991.6859	0.001029
991.9285	0.000058
992.1711	0.001915
992.4137	0.000332
992.6563	0.000586
992.8989	-0.000744
993.1415	0.001324
993.3841	0.001219
993.6267	0.001324
993.8694	0.000987
994.1120	0.001557
994.3547	0.000607
994.5973	0.001852
994.8400	0.000797
995.0826	0.000881
995.3253	-0.000638
995.5680	0.001113
995.8107	0.000797
996.0534	0.001451
996.2961	0.000607
996.5388	0.000121
996.7815	0.001430
997.0242	0.000691
997.2670	0.000755
997.5097	0.000501
997.7524	-0.000153
997.9952	0.000375
998.2379	0.000818
998.4807	0.001725
998.7235	0.000712
998.9662	0.001620
999.2090	-0.000026
999.4518	0.000037
999.6946	0.000459
999.9374	0.001578
1000.1802	-0.000448
1000.4230	0.001029
1000.6659	0.001683
1000.9087	0.001092
1001.1515	0.001599
1001.3944	-0.000406
1001.6372	-0.000723
1001.8801	0.000227
1002.1230	0.000776
1002.3658	0.000628
1002.6087	0.001915
1002.8516	0.000586
1003.0945	0.001493
1003.3374	0.000248
1003.5803	0.000164
1003.8232	0.001936
1004.0661	0.002105
1004.3091	-0.000596
1004.5520	0.000522
1004.7949	0.000586
1005.0379	0.000839
1005.2808	0.001430
1005.5238	0.001620
1005.7667	-0.000596
1006.0097	0.001768
1006.2527	0.000691
1006.4957	0.000586
1006.7387	0.000332
1006.9817	0.002359
1007.2247	0.000480
1007.4677	0.000037
1007.7107	-0.000976
1007.9538	0.000375
1008.1968	0.000142
1008.4398	0.001852
1008.6829	-0.000533
1008.9259	0.001789
1009.1690	-0.000871
1009.4121	0.001725
1009.6551	0.000396
1009.8982	0.001831
1010.1413	0.001831
1010.3844	0.001409
1010.6275	0.000438
1010.8706	0.000818
1011.1137	0.000501
1011.3568	0.001831
1011.6000	-0.000132
1011.8431	0.000396
1012.0863	0.000438
1012.3294	0.000733
1012.5726	0.000459
1012.8157	0.000860
1013.0589	0.001092
1013.3021	-0.000047
1013.5452	0.000290
1013.7884	0.003920
1014.0316	-0.000174
1014.2748	0.000290
1014.5180	0.000417
1014.7613	0.001662
1015.0045	0.000227
1015.2477	0.000607
1015.4909	-0.001187
1015.7342	0.000016
1015.9774	0.000944
1016.2207	0.002232
1016.4640	0.000269
1016.7072	0.000649
1016.9505	0.000670
1017.1938	0.002844
1017.4371	0.001303
1017.6804	0.000311
1017.9237	0.001198
1018.1670	0.000797
1018.4103	0.000100
1018.6536	0.000248
1018.8969	0.001071
1019.1403	0.001156
1019.3836	0.000839
1019.6270	0.001134
1019.8703	-0.000026
1020.1137	0.001113
1020.3571	0.000438
1020.6004	0.001810
1020.8438	0.001008
1021.0872	-0.000406
1021.3306	-0.000913
1021.5740	0.001198
1021.8174	-0.000174
1022.0608	0.000586
1022.3042	-0.000259
1022.5477	-0.000132
1022.7911	0.000565
1023.0345	0.001852
