# Wavelength (nm)	Intensity (a.u.)
197.7802	0.000410
197.9842	-0.000604
198.1882	-0.000055
198.3922	-0.000012
198.5963	0.000135
198.8003	-0.000625
199.0044	0.000832
199.2085	-0.000076
199.4126	0.001255
199.6168	-0.000857
199.8209	0.000410
200.0251	-0.000772
200.2292	0.000874
200.4334	0.000473
200.6376	0.000093
200.8418	0.000980
201.0461	0.002268
201.2503	0.000410
201.4546	0.001086
201.6589	-0.000033
201.8631	0.000874
202.0674	0.000663
202.2718	0.000853
202.4761	-0.001152
202.6805	0.000832
202.8848	-0.000160
203.0892	0.000347
203.2936	0.000114
203.4980	0.001677
203.7024	-0.000160
203.9069	0.001550
204.1113	-0.000245
204.3158	-0.000055
204.5203	0.000030
204.7248	0.000283
204.9293	0.000304
205.1338	0.001613
205.3384	0.000009
205.5430	-0.000097
205.7475	0.000283
205.9521	-0.000287
206.1567	0.001402
206.3614	0.000959
206.5660	-0.000836
206.7706	-0.000815
206.9753	0.000135
207.1800	0.000220
207.3847	0.000431
207.5894	0.000727
207.7941	-0.000012
207.9989	0.000283
208.2036	-0.000033
208.4084	0.000727
208.6132	-0.000287
208.8180	0.000790
209.0228	-0.002588
209.2276	0.000790
209.4325	-0.000984
209.6373	-0.000456
209.8422	0.000642
210.0471	-0.000160
210.2520	-0.000118
210.4569	0.000727
210.6618	-0.000392
210.8668	0.000452
211.0718	-0.001427
211.2767	0.000558
211.4817	0.000790
211.6867	0.000283
211.8918	-0.000899
212.0968	0.001233
212.3018	-0.000308
212.5069	-0.000772
212.7120	-0.000815
212.9171	-0.000329
213.1222	-0.000097
213.3273	-0.000625
213.5325	0.000874
213.7376	0.001233
213.9428	-0.000245
214.1480	0.000473
214.3532	-0.000287
214.5584	0.001191
214.7636	0.000874
214.9689	0.001233
215.1741	0.000262
215.3794	0.000579
215.5847	0.000262
215.7900	0.000072
215.9953	0.000431
216.2007	0.000093
216.4060	0.000537
216.6114	-0.000519
216.8168	-0.000435
217.0222	-0.000498
217.2276	0.000220
217.4330	0.001064
217.6384	0.000938
217.8439	0.000368
218.0494	0.001001
218.2548	0.000917
218.4603	-0.000646
218.6659	0.000389
218.8714	0.000410
219.0769	0.000537
219.2825	0.000769
219.4881	0.000304
219.6936	-0.000012
219.8992	-0.000118
220.1049	-0.000160
220.3105	0.000579
220.5161	-0.000984
220.7218	0.000473
220.9275	0.001233
221.1332	0.000706
221.3389	-0.000540
221.5446	0.000896
221.7503	-0.001089
221.9561	-0.000667
222.1618	-0.000582
222.3676	-0.000202
222.5734	-0.000012
222.7792	0.000389
222.9850	-0.000519
223.1909	0.000748
223.3967	-0.001237
223.6026	0.001297
223.8085	0.000009
224.0144	0.000896
224.2203	-0.000751
224.4262	0.002184
224.6322	-0.001638
224.8381	0.001381
225.0441	-0.000477
225.2501	0.000431
225.4561	-0.000350
225.6621	0.000114
225.8681	-0.000076
226.0742	0.001001
226.2802	-0.000329
226.4863	0.001043
226.6924	0.000241
226.8985	0.000199
227.1046	0.000537
227.3107	0.000558
227.5169	-0.000709
227.7230	0.001001
227.9292	-0.000287
228.1354	0.001635
228.3416	0.000410
228.5478	-0.000456
228.7541	0.000220
228.9603	0.001487
229.1666	0.001571
229.3729	0.000452
229.5791	0.000283
229.7855	0.000537
229.9918	0.000516
230.1981	-0.000392
230.4045	0.000135
230.6108	0.001740
230.8172	0.001212
231.0236	0.000410
231.2300	-0.000646
231.4364	0.001064
231.6429	-0.001300
231.8493	0.000811
232.0558	0.000452
232.2623	0.000199
232.4688	0.000874
232.6753	0.000304
232.8818	0.000051
233.0884	0.000262
233.2949	0.001360
233.5015	0.001782
233.7081	0.001064
233.9147	0.000706
234.1213	0.000853
234.3279	0.000684
234.5346	-0.000667
234.7413	-0.000836
234.9479	0.001064
235.1546	-0.001279
235.3613	-0.000266
235.5680	-0.000413
235.7748	0.001508
235.9815	0.000241
236.1883	-0.000815
236.3951	0.000811
236.6018	0.000072
236.8087	0.000494
237.0155	-0.000202
237.2223	0.000473
237.4292	-0.000223
237.6360	0.001043
237.8429	-0.000772
238.0498	0.001191
238.2567	-0.001427
238.4636	0.000304
238.6706	0.000030
238.8775	0.000853
239.0845	-0.000582
239.2915	0.000790
239.4985	-0.001026
239.7055	-0.000688
239.9125	0.001423
240.1195	0.001170
240.3266	0.000558
240.5337	0.000959
240.7407	0.000283
240.9478	0.000093
241.1549	0.000811
241.3621	-0.000519
241.5692	-0.000962
241.7764	-0.000033
241.9835	0.001571
242.1907	0.001276
242.3979	0.000368
242.6051	-0.000688
242.8124	-0.000709
243.0196	0.000959
243.2269	-0.001152
243.4341	0.000389
243.6414	-0.000371
243.8487	0.000220
244.0560	0.000030
244.2634	0.000452
244.4707	0.000516
244.6781	0.001381
244.8854	0.000072
245.0928	0.001381
245.3002	-0.000604
245.5076	0.001677
245.7151	0.000304
245.9225	0.000811
246.1300	-0.001152
246.3375	-0.000181
246.5449	0.000917
246.7524	-0.000456
246.9600	0.000283
247.1675	0.000874
247.3750	-0.000012
247.5826	-0.000055
247.7902	-0.000350
247.9978	0.001212
248.2054	0.000642
248.4130	0.000811
248.6206	0.000706
248.8283	0.000896
249.0359	0.000304
249.2436	0.001402
249.4513	0.000030
249.6590	0.000199
249.8667	0.000621
250.0745	-0.000308
250.2822	0.000896
250.4900	0.001149
250.6978	0.000135
250.9056	0.000917
251.1134	0.000009
251.3212	-0.000266
251.5290	-0.000857
251.7369	-0.000350
251.9447	-0.000012
252.1526	0.000621
252.3605	0.000199
252.5684	0.000558
252.7763	0.000516
252.9843	0.000917
253.1922	-0.000413
253.4002	0.001001
253.6082	-0.001174
253.8162	0.000811
254.0242	0.000473
254.2322	-0.000561
254.4402	0.000220
254.6483	0.001592
254.8564	-0.000604
255.0644	-0.000561
255.2725	0.000579
255.4806	0.001043
255.6888	-0.000012
255.8969	0.000853
256.1051	0.001086
256.3132	-0.000076
256.5214	0.000326
256.7296	0.000642
256.9378	-0.000688
257.1460	0.000304
257.3543	0.000178
257.5625	0.000157
257.7708	0.000220
257.9791	0.001825
258.1874	-0.000097
258.3957	0.001381
258.6040	0.000410
258.8124	0.001276
259.0207	0.000093
259.2291	0.000558
259.4375	-0.000709
259.6459	0.001149
259.8543	-0.000012
260.0627	-0.000139
260.2711	-0.001047
260.4796	0.001550
260.6881	0.001339
260.8965	0.000874
261.1050	0.000199
261.3135	0.000473
261.5221	-0.000012
261.7306	0.000896
261.9392	0.000579
262.1477	-0.000160
262.3563	0.000959
262.5649	0.000811
262.7735	0.000642
262.9822	0.000241
263.1908	-0.000118
263.3995	0.000030
263.6081	-0.001152
263.8168	0.001677
264.0255	0.000389
264.2342	0.001128
264.4429	0.000558
264.6517	-0.000350
264.8604	0.000874
265.0692	0.000072
265.2780	-0.000878
265.4868	0.001466
265.6956	-0.000012
265.9044	0.000368
266.1133	0.000684
266.3221	0.000684
266.5310	0.000009
266.7399	-0.000350
266.9488	0.001381
267.1577	0.001043
267.3666	-0.000477
267.5755	0.000304
267.7845	-0.001406
267.9935	0.001107
268.2024	0.000558
268.4114	0.000473
268.6205	0.001022
268.8295	0.000494
269.0385	0.000199
269.2476	0.001867
269.4566	-0.000625
269.6657	0.001170
269.8748	0.000537
270.0839	0.001128
270.2931	-0.000646
270.5022	0.001233
270.7114	-0.000329
270.9205	-0.000055
271.1297	0.000663
271.3389	0.000790
271.5481	-0.000245
271.7573	0.001972
271.9666	0.000494
272.1758	-0.000223
272.3851	-0.000582
272.5944	0.001487
272.8037	-0.000392
273.0130	-0.000245
273.2223	0.000938
273.4316	-0.000435
273.6410	0.000283
273.8504	-0.000582
274.0597	0.001445
274.2691	-0.000392
274.4785	0.000262
274.6880	0.000874
274.8974	0.001043
275.1069	0.000051
275.3163	0.001001
275.5258	0.000262
275.7353	-0.000498
275.9448	0.000832
276.1543	0.000706
276.3639	0.001466
276.5734	0.000853
276.7830	0.000368
276.9926	0.001466
277.2022	-0.000118
277.4118	-0.000878
277.6214	-0.000012
277.8310	-0.000625
278.0407	-0.000794
278.2503	-0.001385
278.4600	0.000874
278.6697	-0.002081
278.8794	0.000600
279.0891	0.000009
279.2989	-0.000730
279.5086	0.002036
279.7184	0.000135
279.9281	-0.000245
280.1379	0.000600
280.3477	0.000917
280.5576	0.000199
280.7674	-0.001131
280.9772	0.000706
281.1871	0.000874
281.3970	0.000220
281.6069	0.000917
281.8168	0.000304
282.0267	0.000452
282.2366	-0.000266
282.4466	-0.000055
282.6565	-0.001026
282.8665	-0.000266
283.0765	0.000072
283.2865	-0.000772
283.4965	0.000157
283.7065	-0.000646
283.9166	-0.000097
284.1266	0.000199
284.3367	0.000811
284.5468	0.000663
284.7569	0.001423
284.9670	0.000135
285.1771	0.002648
285.3873	0.000157
285.5974	-0.000266
285.8076	0.000748
286.0178	0.001529
286.2280	0.000093
286.4382	0.000452
286.6484	-0.000730
286.8587	0.002099
287.0689	-0.000308
287.2792	0.001529
287.4895	0.000093
287.6998	0.000135
287.9101	-0.001554
288.1204	0.000537
288.3308	0.001107
288.5411	0.000347
288.7515	0.001064
288.9619	0.000452
289.1723	-0.000181
289.3827	0.001318
289.5931	0.000135
289.8035	0.000621
290.0140	0.000537
290.2245	0.000051
290.4349	-0.000097
290.6454	0.000220
290.8559	-0.000625
291.0665	-0.000646
291.2770	0.000727
291.4875	-0.000815
291.6981	-0.000688
291.9087	0.001339
292.1193	-0.000266
292.3299	-0.000012
292.5405	0.000262
292.7511	0.001149
292.9618	-0.000392
293.1724	0.000326
293.3831	0.000832
293.5938	-0.000139
293.8045	-0.000413
294.0152	0.000304
294.2260	0.000537
294.4367	0.002205
294.6475	-0.000878
294.8582	0.000642
295.0690	-0.000202
295.2798	-0.000498
295.4906	-0.000266
295.7015	0.000473
295.9123	0.000135
296.1232	0.000600
296.3340	0.000009
296.5449	-0.000181
296.7558	-0.001068
296.9667	-0.000561
297.1777	-0.001026
297.3886	0.000684
297.5995	0.000874
297.8105	0.000537
298.0215	-0.000055
298.2325	0.001128
298.4435	-0.000097
298.6545	0.001381
298.8656	-0.000498
299.0766	0.001297
299.2877	-0.000688
299.4988	0.000938
299.7099	-0.000012
299.9210	-0.000582
300.1321	-0.000667
300.3432	-0.000097
300.5544	-0.000561
300.7655	0.000748
300.9767	0.000093
301.1879	0.000009
301.3991	-0.000139
301.6103	0.001107
301.8215	0.000220
302.0328	0.000706
302.2441	-0.000519
302.4553	0.001107
302.6666	0.001402
302.8779	-0.000561
303.0892	-0.000836
303.3006	0.000389
303.5119	0.000220
303.7233	0.000558
303.9346	-0.000012
304.1460	0.000389
304.3574	-0.000371
304.5688	0.001022
304.7803	-0.001385
304.9917	-0.000118
305.2031	-0.000477
305.4146	0.000938
305.6261	0.000114
305.8376	0.000262
306.0491	0.000494
306.2606	0.000473
306.4722	0.000178
306.6837	0.001170
306.8953	0.000790
307.1069	0.000473
307.3184	-0.000519
307.5301	0.000769
307.7417	-0.001701
307.9533	0.000283
308.1650	-0.000920
308.3766	0.001803
308.5883	0.000600
308.8000	-0.000519
309.0117	-0.000329
309.2234	0.001381
309.4351	0.000009
309.6469	0.001191
309.8586	0.000030
310.0704	-0.000392
310.2822	0.000473
310.4940	0.001487
310.7058	0.000030
310.9176	0.001592
311.1295	0.000600
311.3413	-0.000392
311.5532	-0.001195
311.7651	-0.000435
311.9770	0.000135
312.1889	0.000684
312.4008	-0.000477
312.6127	0.000684
312.8247	0.000030
313.0366	0.000516
313.2486	-0.000794
313.4606	0.001423
313.6726	0.001043
313.8846	-0.000245
314.0967	0.002289
314.3087	0.000347
314.5208	-0.000055
314.7328	-0.000392
314.9449	-0.000540
315.1570	-0.000181
315.3692	0.000051
315.5813	-0.000076
315.7934	-0.000118
316.0056	0.000917
316.2177	0.000220
316.4299	-0.000055
316.6421	-0.000287
316.8543	0.000389
317.0666	0.000663
317.2788	-0.000456
317.4911	0.001402
317.7033	-0.000076
317.9156	0.000030
318.1279	-0.000561
318.3402	-0.000392
318.5525	0.000410
318.7649	-0.001300
318.9772	0.001297
319.1896	0.000135
319.4019	0.000727
319.6143	0.001930
319.8267	0.000706
320.0392	0.000832
320.2516	-0.000055
320.4640	-0.000223
320.6765	0.001128
320.8890	-0.000287
321.1014	0.000811
321.3139	0.001001
321.5265	0.000790
321.7390	0.000621
321.9515	-0.000118
322.1641	0.001761
322.3766	-0.000012
322.5892	0.000347
322.8018	0.000579
323.0144	-0.001068
323.2270	0.000537
323.4397	-0.000350
323.6523	0.000389
323.8650	0.000030
324.0777	0.000938
324.2904	-0.000329
324.5031	-0.000815
324.7158	0.000389
324.9285	0.000135
325.1412	0.000452
325.3540	0.001381
325.5668	-0.000646
325.7796	0.000874
325.9924	-0.000540
326.2052	-0.000245
326.4180	0.000009
326.6308	0.000874
326.8437	0.000389
327.0566	0.001825
327.2694	0.000537
327.4823	-0.000223
327.6952	0.000959
327.9082	0.000494
328.1211	-0.000794
328.3340	-0.000223
328.5470	0.000347
328.7600	0.000452
328.9730	-0.000202
329.1860	0.000896
329.3990	0.000072
329.6120	0.001402
329.8251	-0.000181
330.0381	0.000199
330.2512	-0.000097
330.4643	0.000410
330.6774	0.000558
330.8905	0.000727
331.1036	0.000769
331.3167	0.001402
331.5299	0.000431
331.7431	0.000304
331.9562	-0.000118
332.1694	-0.000012
332.3826	0.000832
332.5959	0.000959
332.8091	-0.000477
333.0223	0.001043
333.2356	0.000558
333.4489	0.001191
333.6622	-0.000667
333.8755	0.001297
334.0888	-0.000223
334.3021	0.000896
334.5154	0.001656
334.7288	0.001170
334.9422	-0.000055
335.1555	0.001107
335.3689	0.001529
335.5823	0.000917
335.7958	0.000706
336.0092	0.001550
336.2227	0.000537
336.4361	0.001381
336.6496	0.000135
336.8631	-0.001237
337.0766	-0.000561
337.2901	0.000178
337.5036	-0.000033
337.7172	-0.000033
337.9307	0.000727
338.1443	0.001339
338.3579	-0.000794
338.5715	0.000199
338.7851	0.000769
338.9987	0.001571
339.2124	0.000410
339.4260	0.000853
339.6397	0.000135
339.8533	0.000727
340.0670	0.000663
340.2807	-0.000245
340.4945	0.000220
340.7082	0.000347
340.9219	-0.000625
341.1357	0.000431
341.3495	0.001466
341.5633	0.001782
341.7771	0.001064
341.9909	0.000706
342.2047	0.001803
342.4185	0.000051
342.6324	0.000874
342.8463	0.000452
343.0601	-0.001617
343.2740	0.000832
343.4879	-0.000413
343.7019	0.000072
343.9158	0.000769
344.1297	0.000917
344.3437	0.001191
344.5577	0.000030
344.7717	0.000706
344.9857	0.001149
345.1997	0.000832
345.4137	-0.000118
345.6277	-0.000477
345.8418	-0.000055
346.0559	-0.000941
346.2699	0.000093
346.4840	-0.000519
346.6981	0.001635
346.9123	0.000537
347.1264	0.000811
347.3406	-0.001152
347.5547	-0.000540
347.7689	-0.000751
347.9831	0.000030
348.1973	-0.000920
348.4115	0.001191
348.6257	0.000389
348.8400	0.000093
349.0542	-0.000266
349.2685	0.000537
349.4828	-0.001110
349.6971	0.000199
349.9114	-0.000076
350.1257	0.001022
350.3400	-0.000477
350.5544	0.000938
350.7687	-0.001237
350.9831	0.000917
351.1975	0.000748
351.4119	-0.000751
351.6263	0.000051
351.8407	0.000684
352.0552	0.000368
352.2696	0.000706
352.4841	-0.000941
352.6986	0.000009
352.9131	0.000304
353.1276	0.001846
353.3421	-0.000772
353.5566	-0.000392
353.7712	0.000241
353.9858	0.000684
354.2003	0.000494
354.4149	0.000241
354.6295	-0.000118
354.8441	0.000917
355.0588	0.000537
355.2734	0.000684
355.4881	0.000241
355.7027	0.000980
355.9174	0.001782
356.1321	-0.000413
356.3468	-0.000435
356.5615	0.000452
356.7763	0.000220
356.9910	0.000621
357.2058	0.000663
357.4206	0.001635
357.6353	0.001339
357.8501	0.000199
358.0650	-0.000920
358.2798	-0.000012
358.4946	-0.000371
358.7095	0.001592
358.9243	0.001909
359.1392	0.001550
359.3541	0.000748
359.5690	-0.000540
359.7839	-0.000287
359.9989	0.000347
360.2138	0.000853
360.4288	0.000959
360.6438	0.002479
360.8587	0.000558
361.0737	0.000199
361.2888	0.001740
361.5038	0.000389
361.7188	0.001423
361.9339	-0.000920
362.1489	-0.000202
362.3640	0.000579
362.5791	-0.000730
362.7942	0.001255
363.0093	-0.000181
363.2245	0.000326
363.4396	-0.000371
363.6548	0.000093
363.8699	0.000494
364.0851	0.001043
364.3003	0.000896
364.5155	0.000896
364.7308	0.001107
364.9460	-0.000709
365.1612	0.001318
365.3765	0.000980
365.5918	0.000326
365.8071	0.000135
366.0224	0.000410
366.2377	-0.000899
366.4530	0.000368
366.6684	-0.000371
366.8837	0.000220
367.0991	0.000769
367.3145	0.000473
367.5299	0.000220
367.7453	0.000326
367.9607	0.000389
368.1761	-0.000139
368.3916	0.000748
368.6070	0.001297
368.8225	0.000621
369.0380	0.000178
369.2535	-0.000477
369.4690	0.001571
369.6845	0.000896
369.9001	0.000558
370.1156	0.001107
370.3312	-0.000920
370.5468	0.000030
370.7624	0.000283
370.9780	0.000473
371.1936	0.001001
371.4092	0.000051
371.6249	0.000135
371.8405	-0.001047
372.0562	0.000537
372.2719	0.000494
372.4876	0.001782
372.7033	0.002247
372.9190	-0.000266
373.1348	0.000157
373.3505	0.000811
373.5663	0.001761
373.7820	0.000579
373.9978	-0.000097
374.2136	-0.000477
374.4294	-0.000582
374.6453	0.000706
374.8611	0.000304
375.0770	0.001255
375.2928	0.000811
375.5087	-0.001110
375.7246	0.001064
375.9405	0.001170
376.1564	0.001043
376.3724	0.000135
376.5883	0.001086
376.8043	-0.000202
377.0203	0.000684
377.2362	0.001508
377.4522	0.000959
377.6682	0.000051
377.8843	0.000537
378.1003	-0.000582
378.3164	0.000347
378.5324	-0.000625
378.7485	-0.001026
378.9646	0.000389
379.1807	0.000853
379.3968	0.000663
379.6129	0.000241
379.8291	-0.000287
380.0452	0.001381
380.2614	0.000600
380.4776	-0.001258
380.6938	0.001508
380.9100	-0.000561
381.1262	0.000410
381.3424	0.000832
381.5587	0.001423
381.7749	0.000220
381.9912	-0.000055
382.2075	-0.000055
382.4238	0.001297
382.6401	-0.000287
382.8564	0.000537
383.0728	0.000642
383.2891	-0.000012
383.5055	0.001170
383.7219	0.002352
383.9382	0.001592
384.1546	0.000326
384.3711	-0.000139
384.5875	0.001001
384.8039	-0.000392
385.0204	0.000959
385.2368	-0.000097
385.4533	0.000452
385.6698	-0.001110
385.8863	-0.000413
386.1028	-0.000878
386.3194	-0.000012
386.5359	-0.000498
386.7525	0.000663
386.9690	0.001212
387.1856	0.000030
387.4022	0.001423
387.6188	-0.000202
387.8355	0.000093
388.0521	-0.000055
388.2687	0.000030
388.4854	0.000410
388.7021	0.001212
388.9188	0.001212
389.1355	-0.000582
389.3522	0.001466
389.5689	0.000157
389.7856	0.000748
390.0024	0.000537
390.2192	0.001402
390.4359	0.000157
390.6527	0.001233
390.8695	-0.000202
391.0863	0.001635
391.3032	0.000853
391.5200	0.001339
391.7369	0.000663
391.9537	0.001276
392.1706	0.000663
392.3875	0.002141
392.6044	0.000980
392.8213	0.002226
393.0383	0.000874
393.2552	0.003345
393.4722	0.001888
393.6891	0.002986
393.9061	0.001191
394.1231	0.003450
394.3401	0.001064
394.5572	0.002310
394.7742	0.001212
394.9912	0.002796
395.2083	0.001972
395.4254	0.001782
395.6425	0.001930
395.8596	0.001529
396.0767	0.002395
396.2938	0.003324
396.5109	0.001761
396.7281	0.003091
396.9453	0.003049
397.1624	0.003767
397.3796	0.001867
397.5968	0.002965
397.8140	0.003809
398.0313	0.003725
398.2485	0.004147
398.4658	0.002817
398.6830	0.004506
398.9003	0.004844
399.1176	0.002564
399.3349	0.003598
399.5522	0.004105
399.7696	0.004654
399.9869	0.002057
400.2043	0.004105
400.4216	0.003767
400.6390	0.003704
400.8564	0.002500
401.0738	0.004253
401.2912	0.004612
401.5087	0.005604
401.7261	0.005161
401.9436	0.005266
402.1610	0.003598
402.3785	0.004379
402.5960	0.004633
402.8135	0.006744
403.0310	0.004992
403.2486	0.003915
403.4661	0.003598
403.6837	0.007356
403.9013	0.005625
404.1189	0.005287
404.3365	0.006554
404.5541	0.006364
404.7717	0.006280
404.9893	0.006829
405.2070	0.006005
405.4246	0.008539
405.6423	0.008243
405.8600	0.007568
406.0777	0.005456
406.2954	0.005646
406.5131	0.006617
406.7309	0.007293
406.9486	0.006385
407.1664	0.006829
407.3842	0.006997
407.6020	0.008032
407.8198	0.007990
408.0376	0.006195
408.2554	0.007546
408.4733	0.006723
408.6911	0.008412
408.9090	0.007969
409.1269	0.008011
409.3448	0.008644
409.5627	0.009763
409.7806	0.006132
409.9985	0.008116
410.2165	0.009404
410.4344	0.008877
410.6524	0.008602
410.8704	0.009003
411.0884	0.008370
411.3064	0.008919
411.5244	0.008813
411.7424	0.008602
411.9605	0.009489
412.1785	0.008729
412.3966	0.010249
412.6147	0.009552
412.8328	0.009806
413.0509	0.010418
413.2690	0.009024
413.4871	0.010946
413.7053	0.010756
413.9234	0.011220
414.1416	0.010545
414.3598	0.010904
414.5780	0.011157
414.7962	0.010671
415.0144	0.010249
415.2326	0.009827
415.4509	0.011284
415.6692	0.009953
415.8874	0.010080
416.1057	0.012107
416.3240	0.010861
416.5423	0.009721
416.7606	0.011938
416.9790	0.012508
417.1973	0.012529
417.4157	0.013733
417.6341	0.012023
417.8524	0.013353
418.0708	0.011685
418.2893	0.013838
418.5077	0.011664
418.7261	0.012909
418.9446	0.013374
419.1630	0.013733
419.3815	0.014282
419.6000	0.012804
419.8185	0.013036
420.0370	0.013669
420.2555	0.013057
420.4741	0.014957
420.6926	0.014282
420.9112	0.015591
421.1298	0.015337
421.3483	0.015591
421.5669	0.017090
421.7856	0.017301
422.0042	0.019201
422.2228	0.015929
422.4415	0.015654
422.6601	0.016140
422.8788	0.016752
423.0975	0.017069
423.3162	0.016583
423.5349	0.017027
423.7536	0.018167
423.9724	0.018019
424.1911	0.014620
424.4099	0.016435
424.6287	0.015527
424.8475	0.016879
425.0663	0.015992
425.2851	0.017449
425.5039	0.016266
425.7228	0.018082
425.9416	0.015971
426.1605	0.016689
426.3793	0.014810
426.5982	0.016203
426.8171	0.015739
427.0361	0.015485
427.2550	0.015739
427.4739	0.019117
427.6929	0.017343
427.9118	0.016076
428.1308	0.015907
428.3498	0.018378
428.5688	0.017385
428.7878	0.017744
429.0068	0.016098
429.2259	0.019180
429.4449	0.017660
429.6640	0.022157
429.8831	0.020510
430.1022	0.023572
430.3213	0.018462
430.5404	0.020743
430.7595	0.021925
430.9787	0.021017
431.1978	0.019792
431.4170	0.019539
431.6362	0.018589
431.8553	0.018652
432.0745	0.015316
432.2938	0.018483
432.5130	0.017174
432.7322	0.017322
432.9515	0.017702
433.1707	0.017407
433.3900	0.016625
433.6093	0.018906
433.8286	0.021862
434.0479	0.021228
434.2673	0.019032
434.4866	0.019539
434.7059	0.019645
434.9253	0.020764
435.1447	0.020194
435.3641	0.020764
435.5835	0.019349
435.8029	0.019201
436.0223	0.018779
436.2418	0.017956
436.4612	0.019771
436.6807	0.019455
436.9001	0.020088
437.1196	0.021038
437.3391	0.019792
437.5586	0.021144
437.7782	0.020637
437.9977	0.020468
438.2173	0.019898
438.4368	0.019771
438.6564	0.019138
438.8760	0.022685
439.0956	0.020721
439.3152	0.019645
439.5348	0.021524
439.7545	0.021334
439.9741	0.019476
440.1938	0.020025
440.4135	0.021249
440.6331	0.018969
440.8528	0.021080
441.0725	0.023340
441.2923	0.024036
441.5120	0.025535
441.7318	0.025493
441.9515	0.022791
442.1713	0.022643
442.3911	0.023635
442.6109	0.023065
442.8307	0.024100
443.0505	0.024269
443.2703	0.024775
443.4902	0.023677
443.7101	0.024902
443.9299	0.024627
444.1498	0.025134
444.3697	0.022347
444.5896	0.024817
444.8095	0.022453
445.0295	0.025050
445.2494	0.023635
445.4694	0.023888
445.6894	0.022284
445.9093	0.021524
446.1293	0.023276
446.3493	0.023825
446.5694	0.024036
446.7894	0.022284
447.0094	0.023530
447.2295	0.023466
447.4496	0.024079
447.6696	0.024459
447.8897	0.022157
448.1098	0.021144
448.3300	0.023023
448.5501	0.022178
448.7702	0.021608
448.9904	0.021439
449.2106	0.021587
449.4307	0.021376
449.6509	0.022833
449.8711	0.021566
450.0914	0.021988
450.3116	0.020869
450.5318	0.021693
450.7521	0.019877
450.9724	0.021059
451.1926	0.019814
451.4129	0.018357
451.6332	0.020595
451.8535	0.019518
452.0739	0.020278
452.2942	0.018948
452.5146	0.020088
452.7349	0.019581
452.9553	0.019096
453.1757	0.019624
453.3961	0.018378
453.6165	0.018146
453.8369	0.017470
454.0574	0.017723
454.2778	0.016731
454.4983	0.017597
454.7188	0.016963
454.9393	0.017111
455.1597	0.017787
455.3803	0.016900
455.6008	0.019708
455.8213	0.017005
456.0419	0.018230
456.2624	0.017956
456.4830	0.016161
456.7036	0.018779
456.9242	0.016773
457.1448	0.016942
457.3654	0.016773
457.5860	0.016288
457.8067	0.017533
458.0274	0.016858
458.2480	0.015591
458.4687	0.019771
458.6894	0.018547
458.9101	0.018103
459.1308	0.016984
459.3516	0.015591
459.5723	0.016773
459.7931	0.016646
460.0138	0.016836
460.2346	0.016182
460.4554	0.018568
460.6762	0.015549
460.8970	0.016182
461.1178	0.016731
461.3387	0.015675
461.5595	0.016752
461.7804	0.014852
462.0013	0.012297
462.2222	0.015633
462.4431	0.013310
462.6640	0.013353
462.8849	0.014218
463.1059	0.014071
463.3268	0.014493
463.5478	0.014451
463.7687	0.014704
463.9897	0.015232
464.2107	0.015337
464.4317	0.014176
464.6528	0.014577
464.8738	0.016245
465.0948	0.015633
465.3159	0.014218
465.5370	0.014704
465.7581	0.014535
465.9792	0.014514
466.2003	0.014641
466.4214	0.013923
466.6425	0.012445
466.8637	0.012740
467.0848	0.013226
467.3060	0.012529
467.5272	0.010946
467.7484	0.012213
467.9696	0.011431
468.1908	0.011685
468.4120	0.011706
468.6333	0.010523
468.8545	0.009088
469.0758	0.010650
469.2970	0.009637
469.5183	0.009869
469.7396	0.009341
469.9610	0.008919
470.1823	0.008497
470.4036	0.009088
470.6250	0.009383
470.8463	0.010017
471.0677	0.008497
471.2891	0.009045
471.5105	0.009003
471.7319	0.009257
471.9533	0.008475
472.1748	0.008982
472.3962	0.007736
472.6177	0.008919
472.8391	0.007863
473.0606	0.009658
473.2821	0.008898
473.5036	0.009827
473.7251	0.009489
473.9467	0.008771
474.1682	0.008729
474.3898	0.008623
474.6113	0.008518
474.8329	0.008307
475.0545	0.008792
475.2761	0.008518
475.4977	0.008116
475.7193	0.008095
475.9410	0.006829
476.1626	0.007715
476.3843	0.009109
476.6060	0.008855
476.8277	0.008053
477.0494	0.008138
477.2711	0.006575
477.4928	0.007800
477.7145	0.006723
477.9363	0.006449
478.1580	0.006406
478.3798	0.007631
478.6016	0.007420
478.8234	0.007124
479.0452	0.008644
479.2670	0.008222
479.4888	0.007842
479.7107	0.006491
479.9325	0.006744
480.1544	0.006976
480.3763	0.007483
480.5982	0.008307
480.8201	0.007272
481.0420	0.006639
481.2639	0.006554
481.4859	0.006575
481.7078	0.007673
481.9298	0.005688
482.1517	0.006406
482.3737	0.006934
482.5957	0.007272
482.8177	0.007145
483.0398	0.003978
483.2618	0.006934
483.4838	0.005203
483.7059	0.006955
483.9280	0.004886
484.1501	0.006765
484.3721	0.004738
484.5943	0.007420
484.8164	0.007990
485.0385	0.007399
485.2606	0.006807
485.4828	0.009932
485.7050	0.012191
485.9271	0.017787
486.1493	0.020151
486.3715	0.016562
486.5937	0.014324
486.8160	0.011811
487.0382	0.009573
487.2605	0.009806
487.4827	0.009404
487.7050	0.006512
487.9273	0.008307
488.1496	0.005604
488.3719	0.004590
488.5942	0.005097
488.8165	0.004253
489.0389	0.004675
489.2612	0.004971
489.4836	0.005625
489.7060	0.004928
489.9284	0.005646
490.1508	0.004105
490.3732	0.004928
490.5956	0.003894
490.8180	0.005456
491.0405	0.003915
491.2630	0.004337
491.4854	0.003471
491.7079	0.003661
491.9304	0.004527
492.1529	0.004147
492.3755	0.005541
492.5980	0.004443
492.8205	0.003704
493.0431	0.003640
493.2657	0.004337
493.4882	0.004443
493.7108	0.003514
493.9334	0.005942
494.1561	0.003767
494.3787	0.003852
494.6013	0.004189
494.8240	0.004781
495.0466	0.002184
495.2693	0.005963
495.4920	0.002648
495.7147	0.004781
495.9374	0.003134
496.1601	0.004358
496.3829	0.003303
496.6056	0.005139
496.8284	0.005203
497.0511	0.004020
497.2739	0.003809
497.4967	0.004253
497.7195	0.003028
497.9423	0.003556
498.1652	0.003345
498.3880	0.004612
498.6109	0.004189
498.8337	0.002352
499.0566	0.003999
499.2795	0.004781
499.5024	0.002901
499.7253	0.005076
499.9482	0.004105
500.1712	0.004464
500.3941	0.003809
500.6171	0.003767
500.8400	0.002416
501.0630	0.003070
501.2860	0.003915
501.5090	0.005013
501.7320	0.004443
501.9551	0.003535
502.1781	0.004464
502.4012	0.003007
502.6242	0.003218
502.8473	0.002859
503.0704	0.002479
503.2935	0.004590
503.5166	0.002057
503.7397	0.003345
503.9628	0.003830
504.1860	0.002986
504.4092	0.002416
504.6323	0.002754
504.8555	0.002648
505.0787	0.003725
505.3019	0.002268
505.5251	0.003345
505.7483	0.003408
505.9716	0.003936
506.1948	0.002648
506.4181	0.003577
506.6414	0.004654
506.8647	0.003260
507.0880	0.003809
507.3113	0.001128
507.5346	0.002838
507.7579	0.004527
507.9813	0.003366
508.2046	0.003873
508.4280	0.002817
508.6514	0.003134
508.8748	0.002965
509.0982	0.002162
509.3216	0.002500
509.5450	0.003281
509.7685	0.003577
509.9919	0.004274
510.2154	0.002226
510.4388	0.002542
510.6623	0.003303
510.8858	0.002859
511.1093	0.002606
511.3329	0.004358
511.5564	0.003113
511.7799	0.003091
512.0035	0.003091
512.2270	0.002564
512.4506	0.002923
512.6742	0.003661
512.8978	0.002542
513.1214	0.004992
513.3451	0.003450
513.5687	0.003239
513.7923	0.004274
514.0160	0.003218
514.2397	0.002648
514.4634	0.003155
514.6871	0.001233
514.9108	0.004253
515.1345	0.002205
515.3582	0.003873
515.5819	0.002754
515.8057	0.004084
516.0295	0.002817
516.2532	0.002838
516.4770	0.002500
516.7008	0.002711
516.9246	0.002986
517.1485	0.004295
517.3723	0.003640
517.5961	0.003915
517.8200	0.003619
518.0439	0.002564
518.2677	0.002901
518.4916	0.003028
518.7155	0.001064
518.9395	0.003661
519.1634	0.003704
519.3873	0.003704
519.6113	0.002965
519.8352	0.003894
520.0592	0.002521
520.2832	0.001698
520.5072	0.003239
520.7312	0.003429
520.9552	0.003366
521.1792	0.003915
521.4033	0.002838
521.6273	0.003471
521.8514	0.003324
522.0755	0.003725
522.2996	0.004443
522.5237	0.002606
522.7478	0.003852
522.9719	0.003704
523.1960	0.003788
523.4202	0.003683
523.6443	0.004063
523.8685	0.004168
524.0927	0.004654
524.3169	0.003999
524.5411	0.003978
524.7653	0.003598
524.9895	0.003915
525.2138	0.003830
525.4380	0.004105
525.6623	0.005224
525.8865	0.003028
526.1108	0.002901
526.3351	0.004063
526.5594	0.003873
526.7837	0.004949
527.0081	0.004443
527.2324	0.004253
527.4568	0.003598
527.6811	0.004379
527.9055	0.004358
528.1299	0.003661
528.3543	0.003936
528.5787	0.004253
528.8031	0.005794
529.0276	0.006617
529.2520	0.002817
529.4765	0.006090
529.7009	0.004569
529.9254	0.005731
530.1499	0.005731
530.3744	0.005055
530.5989	0.005435
530.8234	0.004147
531.0480	0.005203
531.2725	0.004971
531.4971	0.004717
531.7217	0.007019
531.9462	0.004548
532.1708	0.006068
532.3954	0.004717
532.6200	0.006491
532.8447	0.005182
533.0693	0.007378
533.2940	0.006765
533.5186	0.007673
533.7433	0.007124
533.9680	0.007251
534.1927	0.006976
534.4174	0.008349
534.6421	0.007335
534.8668	0.008264
535.0916	0.007251
535.3163	0.008433
535.5411	0.005836
535.7659	0.009447
535.9907	0.006702
536.2155	0.008539
536.4403	0.007631
536.6651	0.008095
536.8899	0.007504
537.1148	0.007758
537.3396	0.008243
537.5645	0.008011
537.7894	0.008201
538.0143	0.007758
538.2392	0.011241
538.4641	0.009383
538.6890	0.009214
538.9139	0.010946
539.1389	0.009447
539.3638	0.010756
539.5888	0.010545
539.8138	0.008750
540.0388	0.011115
540.2638	0.008285
540.4888	0.009278
540.7138	0.011220
540.9389	0.010777
541.1639	0.010756
541.3890	0.010861
541.6140	0.011727
541.8391	0.012466
542.0642	0.012360
542.2893	0.010861
542.5144	0.012656
542.7396	0.013881
542.9647	0.013205
543.1899	0.010418
543.4150	0.012952
543.6402	0.011410
543.8654	0.013036
544.0906	0.014176
544.3158	0.014408
544.5410	0.015211
544.7662	0.013838
544.9915	0.014049
545.2167	0.015211
545.4420	0.015380
545.6673	0.014430
545.8926	0.013944
546.1179	0.015274
546.3432	0.013437
546.5685	0.013986
546.7938	0.015739
547.0192	0.014577
547.2445	0.013733
547.4699	0.017259
547.6953	0.017934
547.9206	0.018885
548.1460	0.017554
548.3715	0.017808
548.5969	0.019053
548.8223	0.018694
549.0478	0.018631
549.2732	0.017554
549.4987	0.017702
549.7242	0.017048
549.9496	0.017364
550.1751	0.017470
550.4007	0.017111
550.6262	0.018378
550.8517	0.016520
551.0773	0.017892
551.3028	0.017723
551.5284	0.018167
551.7540	0.017639
551.9796	0.018885
552.2052	0.020299
552.4308	0.021482
552.6564	0.022157
552.8820	0.021038
553.1077	0.020531
553.3333	0.020426
553.5590	0.022411
553.7847	0.023171
554.0104	0.021883
554.2361	0.020299
554.4618	0.021693
554.6875	0.020278
554.9132	0.020869
555.1390	0.023234
555.3648	0.024860
555.5905	0.023255
555.8163	0.025176
556.0421	0.027161
556.2679	0.024015
556.4937	0.025472
556.7195	0.025493
556.9454	0.023994
557.1712	0.024353
557.3971	0.025725
557.6230	0.024501
557.8488	0.025662
558.0747	0.026253
558.3006	0.024142
558.5266	0.023023
558.7525	0.024839
558.9784	0.022516
559.2044	0.022769
559.4303	0.023888
559.6563	0.026084
559.8823	0.025979
560.1083	0.026021
560.3343	0.029420
560.5603	0.031046
560.7863	0.030159
561.0124	0.031785
561.2384	0.032038
561.4645	0.033495
561.6905	0.031321
561.9166	0.033939
562.1427	0.033136
562.3688	0.031004
562.5949	0.032672
562.8211	0.031891
563.0472	0.031785
563.2733	0.033369
563.4995	0.035079
563.7257	0.033749
563.9519	0.034720
564.1781	0.033580
564.4043	0.034403
564.6305	0.036177
564.8567	0.038119
565.0829	0.038288
565.3092	0.036599
565.5355	0.038710
565.7617	0.037993
565.9880	0.038204
566.2143	0.038330
566.4406	0.039977
566.6669	0.039977
566.8932	0.042067
567.1196	0.044791
567.3459	0.046016
567.5723	0.050217
567.7987	0.051294
568.0250	0.052772
568.2514	0.054419
568.4778	0.055517
568.7043	0.061323
568.9307	0.062738
569.1571	0.069515
569.3836	0.071416
569.6100	0.079291
569.8365	0.090186
570.0630	0.093311
570.2895	0.096435
570.5160	0.098420
570.7425	0.099940
570.9690	0.104226
571.1956	0.113115
571.4221	0.115417
571.6487	0.119830
571.8752	0.124453
572.1018	0.132244
572.3284	0.127557
572.5550	0.123482
572.7816	0.111933
573.0082	0.109885
573.2349	0.117718
573.4615	0.131358
573.6882	0.142421
573.9149	0.145715
574.1415	0.149537
574.3682	0.158784
574.5949	0.164675
574.8216	0.161677
575.0484	0.162247
575.2751	0.167399
575.5018	0.167652
575.7286	0.161677
575.9554	0.153612
576.1821	0.153759
576.4089	0.156378
576.6357	0.163387
576.8626	0.171474
577.0894	0.174493
577.3162	0.179835
577.5431	0.184353
577.7699	0.203377
577.9968	0.236589
578.2237	0.227911
578.4505	0.213891
578.6774	0.204707
578.9044	0.190223
579.1313	0.185852
579.3582	0.182115
579.5851	0.188787
579.8121	0.194361
580.0391	0.196663
580.2660	0.202933
580.4930	0.197402
580.7200	0.195755
580.9470	0.196916
581.1741	0.231015
581.4011	0.271532
581.6281	0.304174
581.8552	0.306243
582.0822	0.301873
582.3093	0.289690
582.5364	0.272672
582.7635	0.251242
582.9906	0.229685
583.2177	0.213575
583.4449	0.200822
583.6720	0.189716
583.8991	0.185177
584.1263	0.183973
584.3535	0.195185
584.5807	0.189399
584.8079	0.202701
585.0351	0.215728
585.2623	0.223435
585.4895	0.223752
585.7167	0.230973
585.9440	0.217861
586.1713	0.203398
586.3985	0.196979
586.6258	0.187731
586.8531	0.192250
587.0804	0.201434
587.3077	0.216362
587.5350	0.221640
587.7624	0.220310
587.9897	0.206797
588.2171	0.194509
588.4445	0.191321
588.6718	0.189484
588.8992	0.178484
589.1266	0.165224
589.3540	0.163704
589.5815	0.157307
589.8089	0.160748
590.0363	0.157032
590.2638	0.146327
590.4913	0.141725
590.7187	0.143815
590.9462	0.132730
591.1737	0.129521
591.4012	0.126670
591.6288	0.125488
591.8563	0.128887
592.0838	0.128064
592.3114	0.128761
592.5389	0.148819
592.7665	0.173775
592.9941	0.189632
593.2217	0.193052
593.4493	0.195818
593.6769	0.194931
593.9046	0.179962
594.1322	0.175633
594.3598	0.162775
594.5875	0.158024
594.8152	0.175169
595.0429	0.180954
595.2705	0.188449
595.4983	0.184586
595.7260	0.177639
595.9537	0.170123
596.1814	0.161128
596.4092	0.150001
596.6369	0.140268
596.8647	0.133554
597.0925	0.142126
597.3203	0.145018
597.5481	0.145483
597.7759	0.144110
598.0037	0.140817
598.2315	0.138072
598.4594	0.138959
598.6872	0.150233
598.9151	0.169299
599.1430	0.180954
599.3709	0.175908
599.5988	0.173965
599.8267	0.172403
600.0546	0.174451
600.2825	0.178146
600.5105	0.175739
600.7384	0.177069
600.9664	0.179750
601.1944	0.182559
601.4223	0.178125
601.6503	0.174430
601.8783	0.164422
602.1064	0.161149
602.3344	0.161952
602.5624	0.163577
602.7905	0.164717
603.0185	0.170988
603.2466	0.175443
603.4747	0.185831
603.7028	0.184543
603.9309	0.179413
604.1590	0.173353
604.3871	0.161571
604.6152	0.155533
604.8434	0.152619
605.0715	0.152197
605.2997	0.153253
605.5279	0.159481
605.7561	0.168856
605.9843	0.170883
606.2125	0.166597
606.4407	0.159713
606.6689	0.154161
606.8972	0.152598
607.1254	0.153232
607.3537	0.152915
607.5819	0.154097
607.8102	0.154646
608.0385	0.152134
608.2668	0.146475
608.4951	0.144659
608.7235	0.143055
608.9518	0.138579
609.1801	0.135475
609.4085	0.132603
609.6369	0.127346
609.8653	0.132730
610.0936	0.143456
610.3220	0.143730
610.5505	0.144089
610.7789	0.140437
611.0073	0.138156
611.2357	0.132603
611.4642	0.131189
611.6927	0.135285
611.9211	0.135876
612.1496	0.127853
612.3781	0.127705
612.6066	0.124453
612.8351	0.127494
613.0637	0.128930
613.2922	0.126734
613.5208	0.127494
613.7493	0.126333
613.9779	0.124707
614.2065	0.127663
614.4351	0.124939
614.6637	0.126776
614.8923	0.122764
615.1209	0.121835
615.3495	0.123757
615.5782	0.128338
615.8068	0.131125
616.0355	0.124707
616.2642	0.115396
616.4929	0.112039
616.7216	0.110729
616.9503	0.109505
617.1790	0.107035
617.4077	0.107225
617.6365	0.108914
617.8652	0.107119
618.0940	0.108154
618.3227	0.106528
618.5515	0.102221
618.7803	0.096942
619.0091	0.091537
619.2379	0.089890
619.4667	0.089383
619.6956	0.089109
619.9244	0.094176
620.1533	0.094387
620.3821	0.097745
620.6110	0.096224
620.8399	0.089996
621.0688	0.079587
621.2977	0.075005
621.5266	0.070592
621.7556	0.075026
621.9845	0.079692
622.2135	0.081973
622.4424	0.081592
622.6714	0.082817
622.9004	0.087504
623.1294	0.087188
623.3584	0.090524
623.5874	0.090439
623.8164	0.086533
624.0454	0.083176
624.2745	0.085034
624.5035	0.089552
624.7326	0.088687
624.9617	0.089405
625.1908	0.084928
625.4199	0.083767
625.6490	0.080283
625.8781	0.081466
626.1072	0.078447
626.3364	0.070972
626.5655	0.071542
626.7947	0.068037
627.0238	0.069536
627.2530	0.068671
627.4822	0.070951
627.7114	0.069368
627.9406	0.068460
628.1698	0.064131
628.3991	0.060373
628.6283	0.055327
628.8576	0.060648
629.0868	0.059149
629.3161	0.060943
629.5454	0.061598
629.7747	0.063941
630.0040	0.060626
630.2333	0.060521
630.4626	0.059571
630.6920	0.059972
630.9213	0.056995
631.1507	0.054250
631.3801	0.053131
631.6094	0.053490
631.8388	0.053026
632.0682	0.051062
632.2976	0.051020
632.5271	0.049563
632.7565	0.046311
632.9859	0.046649
633.2154	0.044200
633.4448	0.042384
633.6743	0.044749
633.9038	0.043609
634.1333	0.043039
634.3628	0.042215
634.5923	0.041138
634.8218	0.038985
635.0514	0.040146
635.2809	0.039829
635.5105	0.042595
635.7400	0.040885
635.9696	0.040948
636.1992	0.042553
636.4288	0.045593
636.6584	0.045678
636.8880	0.044664
637.1177	0.043778
637.3473	0.041899
637.5770	0.040843
637.8066	0.039766
638.0363	0.040526
638.2660	0.040737
638.4957	0.043714
638.7254	0.042342
638.9551	0.042616
639.1848	0.039048
639.4145	0.041772
639.6443	0.037387
639.8740	0.037351
640.1038	0.036493
640.3336	0.036541
640.5633	0.036936
640.7931	0.037557
641.0229	0.035389
641.2528	0.035769
641.4826	0.033805
641.7124	0.035118
641.9423	0.030862
642.1721	0.031556
642.4020	0.029137
642.6319	0.030144
642.8617	0.029832
643.0916	0.029973
643.3216	0.029575
643.5515	0.027661
643.7814	0.028586
644.0113	0.030528
644.2413	0.027549
644.4712	0.027228
644.7012	0.026665
644.9312	0.027735
645.1612	0.028613
645.3912	0.026756
645.6212	0.026492
645.8512	0.026980
646.0812	0.024129
646.3113	0.027901
646.5413	0.023674
646.7714	0.027616
647.0015	0.024451
647.2316	0.025343
647.4616	0.025472
647.6918	0.025765
647.9219	0.026763
648.1520	0.027968
648.3821	0.029780
648.6123	0.031933
648.8424	0.032336
649.0726	0.034115
649.3028	0.033289
649.5329	0.032952
649.7631	0.033432
649.9933	0.032778
650.2236	0.031788
650.4538	0.028712
650.6840	0.028811
650.9143	0.028679
651.1445	0.028214
651.3748	0.028125
651.6051	0.030031
651.8354	0.030618
652.0657	0.029626
652.2960	0.028850
652.5263	0.031224
652.7566	0.030731
652.9870	0.033389
653.2173	0.031226
653.4477	0.032230
653.6780	0.031600
653.9084	0.030988
654.1388	0.032029
654.3692	0.032671
654.5996	0.036062
654.8300	0.040600
655.0605	0.067074
655.2909	0.184875
655.5213	0.515339
655.7518	0.944649
655.9823	1.000000
656.2128	1.000000
656.4433	1.000000
656.6738	1.000000
656.9043	1.000000
657.1348	0.860107
657.3653	0.699805
657.5959	0.603251
657.8264	0.522724
658.0570	0.476529
658.2875	0.446412
658.5181	0.402796
658.7487	0.371294
658.9793	0.365985
659.2099	0.328325
659.4406	0.254568
659.6712	0.167898
659.9018	0.097214
660.1325	0.059703
660.3632	0.041476
660.5938	0.030986
660.8245	0.024996
661.0552	0.025847
661.2859	0.024427
661.5166	0.022907
661.7474	0.022568
661.9781	0.022858
662.2088	0.025537
662.4396	0.022384
662.6704	0.022563
662.9011	0.023517
663.1319	0.021380
663.3627	0.021378
663.5935	0.021012
663.8243	0.020005
664.0552	0.022352
664.2860	0.020628
664.5168	0.022773
664.7477	0.020942
664.9786	0.024181
665.2094	0.024133
665.4403	0.024017
665.6712	0.024355
665.9021	0.023202
666.1330	0.022966
666.3640	0.022430
666.5949	0.023167
666.8259	0.020478
667.0568	0.020119
667.2878	0.021480
667.5188	0.022389
667.7497	0.022176
667.9807	0.020444
668.2117	0.021141
668.4428	0.022115
668.6738	0.020151
668.9048	0.021714
669.1359	0.020257
669.3669	0.022347
669.5980	0.020848
669.8291	0.020595
670.0602	0.022453
670.2913	0.021228
670.5224	0.021756
670.7535	0.020996
670.9846	0.022601
671.2157	0.024923
671.4469	0.026866
671.6781	0.027795
671.9092	0.029948
672.1404	0.032250
672.3716	0.033537
672.6028	0.034213
672.8340	0.032355
673.0652	0.033854
673.2964	0.031553
673.5277	0.031848
673.7589	0.028407
673.9902	0.028660
674.2214	0.030793
674.4527	0.028745
674.6840	0.026253
674.9153	0.026549
675.1466	0.027056
675.3779	0.026549
675.6093	0.025451
675.8406	0.026844
676.0719	0.026148
676.3033	0.024796
676.5347	0.026000
676.7661	0.024733
676.9974	0.024311
677.2288	0.023698
677.4602	0.025176
677.6917	0.027816
677.9231	0.028407
678.1545	0.029061
678.3860	0.030223
678.6174	0.029336
678.8489	0.030750
679.0804	0.032672
679.3119	0.030497
679.5434	0.037042
679.7749	0.033305
680.0064	0.035501
680.2379	0.034509
680.4694	0.039090
680.7010	0.033347
680.9325	0.034171
681.1641	0.034382
681.3957	0.036979
681.6273	0.034952
681.8589	0.033770
682.0905	0.032566
682.3221	0.032186
682.5537	0.031870
682.7854	0.031109
683.0170	0.029716
683.2487	0.029336
683.4803	0.031067
683.7120	0.034150
683.9437	0.032820
684.1754	0.035015
684.4071	0.036008
684.6388	0.037993
684.8705	0.037486
685.1023	0.040421
685.3340	0.043440
685.5658	0.046269
685.7975	0.045572
686.0293	0.044876
686.2611	0.041645
686.4929	0.042638
686.7247	0.045298
686.9565	0.041941
687.1883	0.044284
687.4202	0.046100
687.6520	0.045066
687.8838	0.041117
688.1157	0.040104
688.3476	0.040294
688.5795	0.038520
688.8114	0.037106
689.0433	0.033136
689.2752	0.036747
689.5071	0.035733
689.7390	0.038267
689.9710	0.035100
690.2029	0.035902
690.4349	0.033559
690.6669	0.034614
690.8988	0.034593
691.1308	0.037254
691.3628	0.038246
691.5948	0.037845
691.8269	0.036557
692.0589	0.037549
692.2909	0.036472
692.5230	0.036219
692.7550	0.038436
692.9871	0.036747
693.2192	0.037528
693.4513	0.038816
693.6834	0.037190
693.9155	0.035501
694.1476	0.034424
694.3797	0.033094
694.6119	0.031109
694.8440	0.034614
695.0762	0.033664
695.3083	0.037739
695.5405	0.033770
695.7727	0.029209
696.0049	0.030962
696.2371	0.027731
696.4693	0.031342
696.7016	0.034129
696.9338	0.040083
697.1660	0.040442
697.3983	0.038731
697.6306	0.038605
697.8628	0.037338
698.0951	0.039133
698.3274	0.039217
698.5597	0.037148
698.7920	0.038014
699.0243	0.036705
699.2567	0.033601
699.4890	0.034699
699.7214	0.032820
699.9537	0.030455
700.1861	0.033094
700.4185	0.032482
700.6509	0.033305
700.8833	0.031489
701.1157	0.031088
701.3481	0.027985
701.5806	0.029927
701.8130	0.028259
702.0454	0.028935
702.2779	0.028787
702.5104	0.031532
702.7429	0.030729
702.9753	0.028027
703.2078	0.029209
703.4403	0.029082
703.6729	0.029209
703.9054	0.028998
704.1379	0.026570
704.3705	0.028449
704.6030	0.026295
704.8356	0.028829
705.0682	0.025092
705.3008	0.024290
705.5334	0.024522
705.7660	0.025768
705.9986	0.027879
706.2312	0.029505
706.4638	0.028914
706.6965	0.033601
706.9291	0.035628
707.1618	0.036134
707.3945	0.038626
707.6272	0.040188
707.8599	0.035248
708.0926	0.038879
708.3253	0.036831
708.5580	0.036240
708.7907	0.036325
709.0235	0.035564
709.2562	0.034340
709.4890	0.035966
709.7217	0.033115
709.9545	0.033284
710.1873	0.033622
710.4201	0.033939
710.6529	0.034952
710.8857	0.034403
711.1186	0.033728
711.3514	0.032630
711.5842	0.031299
711.8171	0.029378
712.0500	0.030096
712.2828	0.029336
712.5157	0.029125
712.7486	0.028238
712.9815	0.029821
713.2144	0.031236
713.4474	0.032397
713.6803	0.032503
713.9132	0.031405
714.1462	0.034171
714.3791	0.036726
714.6121	0.036198
714.8451	0.034804
715.0781	0.035776
715.3111	0.034572
715.5441	0.036029
715.7771	0.032608
716.0102	0.031532
716.2432	0.029695
716.4762	0.029167
716.7093	0.028069
716.9424	0.030877
717.1754	0.027795
717.4085	0.027710
717.6416	0.028534
717.8747	0.027816
718.1078	0.029441
718.3410	0.028386
718.5741	0.029589
718.8072	0.027985
719.0404	0.030096
719.2736	0.027414
719.5067	0.031785
719.7399	0.030729
719.9731	0.028153
720.2063	0.026612
720.4395	0.028386
720.6727	0.030054
720.9060	0.029104
721.1392	0.031447
721.3725	0.029843
721.6057	0.031996
721.8390	0.028322
722.0723	0.029589
722.3055	0.031067
722.5388	0.029631
722.7721	0.028386
723.0055	0.026887
723.2388	0.027858
723.4721	0.028766
723.7055	0.029104
723.9388	0.027689
724.1722	0.026633
724.4056	0.026971
724.6389	0.028808
724.8723	0.026950
725.1057	0.032144
725.3391	0.030877
725.5726	0.031532
725.8060	0.034804
726.0394	0.033094
726.2729	0.033474
726.5063	0.033031
726.7398	0.035966
726.9733	0.032207
727.2068	0.032587
727.4403	0.031996
727.6738	0.034741
727.9073	0.035079
728.1408	0.034129
728.3743	0.032967
728.6079	0.033052
728.8414	0.034994
729.0750	0.033200
729.3086	0.035776
729.5421	0.035818
729.7757	0.036768
730.0093	0.038077
730.2429	0.035987
730.4766	0.036325
730.7102	0.041455
730.9438	0.044031
731.1775	0.042236
731.4111	0.044517
731.6448	0.043841
731.8785	0.044918
732.1122	0.042511
732.3458	0.040716
732.5795	0.042490
732.8133	0.045256
733.0470	0.043355
733.2807	0.044158
733.5145	0.043778
733.7482	0.044770
733.9820	0.048423
734.2157	0.050429
734.4495	0.052118
734.6833	0.050302
734.9171	0.049014
735.1509	0.048254
735.3847	0.049225
735.6185	0.049141
735.8524	0.046544
736.0862	0.052054
736.3201	0.046164
736.5539	0.048254
736.7878	0.046734
737.0217	0.049732
737.2556	0.047979
737.4895	0.050956
737.7234	0.045023
737.9573	0.043355
738.1912	0.041793
738.4252	0.041624
738.6591	0.040062
738.8931	0.041540
739.1271	0.045382
739.3610	0.046881
739.5950	0.046755
739.8290	0.046438
740.0630	0.044348
740.2970	0.041244
740.5310	0.038478
740.7651	0.039808
740.9991	0.038626
741.2332	0.037570
741.4672	0.035522
741.7013	0.034298
741.9354	0.034889
742.1695	0.035058
742.4036	0.033896
742.6377	0.033643
742.8718	0.037127
743.1059	0.033706
743.3400	0.031384
743.5742	0.031743
743.8083	0.030877
744.0425	0.030856
744.2767	0.029167
744.5108	0.028935
744.7450	0.028238
744.9792	0.029104
745.2134	0.029146
745.4477	0.028491
745.6819	0.028449
745.9161	0.027752
746.1504	0.029251
746.3846	0.030497
746.6189	0.029251
746.8532	0.025388
747.0874	0.029357
747.3217	0.031236
747.5560	0.031827
747.7903	0.031363
748.0247	0.029779
748.2590	0.027457
748.4933	0.028914
748.7277	0.028407
748.9620	0.030835
749.1964	0.030180
749.4308	0.033981
749.6652	0.033326
749.8995	0.036705
750.1339	0.038288
750.3684	0.041941
750.6028	0.040822
750.8372	0.038541
751.0717	0.037760
751.3061	0.036282
751.5406	0.039344
751.7750	0.041455
752.0095	0.038605
752.2440	0.038985
752.4785	0.038140
752.7130	0.035184
752.9475	0.032714
753.1820	0.036726
753.4166	0.035543
753.6511	0.040737
753.8856	0.043165
754.1202	0.042616
754.3548	0.041138
754.5894	0.040188
754.8239	0.041561
755.0585	0.041645
755.2931	0.041138
755.5278	0.044390
755.7624	0.042279
755.9970	0.043778
756.2317	0.046185
756.4663	0.048929
756.7010	0.049521
756.9356	0.052392
757.1703	0.053955
757.4050	0.055179
757.6397	0.061471
757.8744	0.059909
758.1091	0.058494
758.3438	0.056910
758.5786	0.053722
758.8133	0.051970
759.0481	0.054884
759.2828	0.055623
759.5176	0.058937
759.7524	0.058790
759.9872	0.060690
760.2220	0.061914
760.4568	0.063202
760.6916	0.064237
760.9264	0.063625
761.1613	0.062252
761.3961	0.059317
761.6310	0.056678
761.8658	0.054989
762.1007	0.050703
762.3356	0.049331
762.5705	0.050724
762.8054	0.050576
763.0403	0.049373
763.2752	0.049837
763.5101	0.048676
763.7450	0.050914
763.9800	0.051231
764.2149	0.050597
764.4499	0.056995
764.6849	0.059275
764.9198	0.059761
765.1548	0.057692
765.3898	0.057818
765.6248	0.055559
765.8599	0.052308
766.0949	0.046987
766.3299	0.047114
766.5650	0.043862
766.8000	0.042975
767.0351	0.038879
767.2701	0.040146
767.5052	0.037042
767.7403	0.039893
767.9754	0.041497
768.2105	0.041307
768.4456	0.044749
768.6808	0.048022
768.9159	0.048085
769.1510	0.047663
769.3862	0.048254
769.6214	0.044707
769.8565	0.046522
770.0917	0.045002
770.3269	0.045446
770.5621	0.045910
770.7973	0.047198
771.0325	0.050703
771.2677	0.048169
771.5030	0.047473
771.7382	0.045995
771.9735	0.041455
772.2087	0.040611
772.4440	0.042194
772.6793	0.043039
772.9146	0.040188
773.1499	0.039470
773.3852	0.039660
773.6205	0.037570
773.8558	0.038584
774.0911	0.037000
774.3265	0.036958
774.5618	0.032418
774.7972	0.032250
775.0326	0.030729
775.2679	0.030708
775.5033	0.029399
775.7387	0.027668
775.9741	0.026654
776.2095	0.027161
776.4450	0.025176
776.6804	0.026844
776.9158	0.024775
777.1513	0.024585
777.3868	0.024775
777.6222	0.025958
777.8577	0.024627
778.0932	0.026127
778.3287	0.026401
778.5642	0.026338
778.7997	0.028301
779.0352	0.030286
779.2707	0.032714
779.5063	0.032587
779.7418	0.030096
779.9774	0.032566
780.2130	0.027541
780.4485	0.027900
780.6841	0.028998
780.9197	0.031764
781.1553	0.033728
781.3909	0.036409
781.6265	0.037338
781.8622	0.033685
782.0978	0.033559
782.3335	0.035522
782.5691	0.034762
782.8048	0.034044
783.0405	0.034593
783.2761	0.032756
783.5118	0.034276
783.7475	0.034424
783.9832	0.033432
784.2190	0.031975
784.4547	0.031743
784.6904	0.029779
784.9262	0.028132
785.1619	0.028534
785.3977	0.029294
785.6335	0.029420
785.8692	0.026908
786.1050	0.028850
786.3408	0.028449
786.5766	0.028217
786.8124	0.026570
787.0483	0.029082
787.2841	0.026084
787.5199	0.029315
787.7558	0.030898
787.9917	0.030392
788.2275	0.028006
788.4634	0.029610
788.6993	0.031025
788.9352	0.033854
789.1711	0.032693
789.4070	0.031891
789.6429	0.028301
789.8789	0.026507
790.1148	0.026127
790.3507	0.026802
790.5867	0.026908
790.8227	0.026359
791.0586	0.023192
791.2946	0.024712
791.5306	0.025578
791.7666	0.023677
792.0026	0.023318
792.2387	0.025725
792.4747	0.022030
792.7107	0.023002
792.9468	0.022368
793.1828	0.021313
793.4189	0.022368
793.6550	0.025092
793.8910	0.026654
794.1271	0.030455
794.3632	0.029378
794.5993	0.033918
794.8355	0.031468
795.0716	0.033812
795.3077	0.032440
795.5439	0.030708
795.7800	0.029885
796.0162	0.026380
796.2523	0.024100
796.4885	0.025050
796.7247	0.021798
796.9609	0.021608
797.1971	0.020510
797.4333	0.023973
797.6695	0.023931
797.9058	0.023086
798.1420	0.024374
798.3783	0.023255
798.6145	0.022242
798.8508	0.022368
799.0871	0.023572
799.3233	0.023150
799.5596	0.022748
799.7959	0.020890
800.0322	0.021650
800.2686	0.018885
800.5049	0.020595
800.7412	0.019286
800.9776	0.017787
801.2139	0.020911
801.4503	0.019455
801.6867	0.019961
801.9230	0.018969
802.1594	0.017174
802.3958	0.017048
802.6322	0.016098
802.8686	0.016478
803.1051	0.017977
803.3415	0.017702
803.5779	0.020637
803.8144	0.017597
804.0508	0.018378
804.2873	0.015992
804.5238	0.016773
804.7603	0.016710
804.9968	0.018209
805.2333	0.015865
805.4698	0.017027
805.7063	0.018103
805.9428	0.020658
806.1794	0.021313
806.4159	0.023276
806.6525	0.024522
806.8890	0.025029
807.1256	0.022009
807.3622	0.023741
807.5988	0.024036
807.8354	0.023044
808.0720	0.021672
808.3086	0.023635
808.5452	0.022432
808.7818	0.023403
809.0185	0.023340
809.2551	0.021988
809.4918	0.020236
809.7284	0.018969
809.9651	0.019645
810.2018	0.020130
810.4385	0.018863
810.6752	0.021038
810.9119	0.018716
811.1486	0.018758
811.3853	0.019455
811.6221	0.019265
811.8588	0.017554
812.0956	0.018019
812.3323	0.015781
812.5691	0.016435
812.8059	0.015105
813.0427	0.014472
813.2795	0.015126
813.5163	0.015612
813.7531	0.017322
813.9899	0.019117
814.2267	0.019560
814.4636	0.017956
814.7004	0.017364
814.9373	0.018779
815.1742	0.016161
815.4110	0.016013
815.6479	0.014113
815.8848	0.013395
816.1217	0.014577
816.3586	0.013205
816.5955	0.014831
816.8324	0.014535
817.0694	0.015084
817.3063	0.015464
817.5433	0.014978
817.7802	0.014641
818.0172	0.014472
818.2542	0.014007
818.4912	0.013437
818.7282	0.014978
818.9652	0.013015
819.2022	0.013585
819.4392	0.012318
819.6762	0.013374
819.9133	0.012149
820.1503	0.013057
820.3874	0.014662
820.6244	0.015000
820.8615	0.016435
821.0986	0.016414
821.3357	0.016288
821.5727	0.014746
821.8099	0.014218
822.0470	0.013247
822.2841	0.014261
822.5212	0.013944
822.7584	0.014239
822.9955	0.012149
823.2327	0.012698
823.4698	0.009869
823.7070	0.011030
823.9442	0.011431
824.1814	0.011474
824.4186	0.011579
824.6558	0.009869
824.8930	0.012170
825.1302	0.011854
825.3675	0.011917
825.6047	0.013733
825.8419	0.014746
826.0792	0.012888
826.3165	0.010038
826.5537	0.010840
826.7910	0.012804
827.0283	0.012255
827.2656	0.013437
827.5029	0.014746
827.7402	0.013838
827.9776	0.013395
828.2149	0.014915
828.4522	0.011051
828.6896	0.013142
828.9270	0.014303
829.1643	0.014915
829.4017	0.011347
829.6391	0.013712
829.8765	0.013374
830.1139	0.012487
830.3513	0.011178
830.5887	0.009088
830.8261	0.010523
831.0636	0.010460
831.3010	0.008180
831.5385	0.008940
831.7759	0.008138
832.0134	0.008475
832.2509	0.007103
832.4884	0.007103
832.7259	0.009362
832.9634	0.008834
833.2009	0.008497
833.4384	0.008307
833.6759	0.008391
833.9135	0.009045
834.1510	0.010333
834.3886	0.010925
834.6261	0.011854
834.8637	0.009531
835.1013	0.011854
835.3389	0.010967
835.5765	0.011516
835.8141	0.008771
836.0517	0.008982
836.2893	0.008201
836.5269	0.008243
836.7646	0.007779
837.0022	0.007504
837.2399	0.007145
837.4775	0.007652
837.7152	0.006596
837.9529	0.008454
838.1906	0.005182
838.4283	0.008877
838.6660	0.005519
838.9037	0.006216
839.1414	0.006681
839.3791	0.008349
839.6169	0.008074
839.8546	0.008792
840.0924	0.006216
840.3302	0.007926
840.5679	0.007462
840.8057	0.008898
841.0435	0.007209
841.2813	0.008032
841.5191	0.007293
841.7569	0.005372
841.9947	0.006786
842.2326	0.006997
842.4704	0.005182
842.7082	0.005203
842.9461	0.005287
843.1840	0.004844
843.4218	0.006364
843.6597	0.005329
843.8976	0.004612
844.1355	0.006090
844.3734	0.005097
844.6113	0.005710
844.8492	0.005710
845.0872	0.004506
845.3251	0.003260
845.5631	0.005815
845.8010	0.004548
846.0390	0.005900
846.2770	0.005836
846.5149	0.006216
846.7529	0.005414
846.9909	0.005836
847.2289	0.004781
847.4669	0.007103
847.7050	0.005963
847.9430	0.005752
848.1810	0.005182
848.4191	0.003577
848.6571	0.006723
848.8952	0.004781
849.1333	0.005034
849.3713	0.006723
849.6094	0.003493
849.8475	0.006047
850.0856	0.005773
850.3237	0.004105
850.5619	0.004886
850.8000	0.004527
851.0381	0.004865
851.2763	0.005541
851.5144	0.005688
851.7526	0.005773
851.9908	0.003915
852.2289	0.007230
852.4671	0.005625
852.7053	0.009510
852.9435	0.010460
853.1817	0.013965
853.4200	0.013036
853.6582	0.014767
853.8964	0.013353
854.1347	0.015168
854.3729	0.012276
854.6112	0.015232
854.8495	0.013163
855.0877	0.012276
855.3260	0.013015
855.5643	0.012762
855.8026	0.010967
856.0409	0.012023
856.2792	0.013120
856.5176	0.011854
856.7559	0.012170
856.9942	0.011410
857.2326	0.011115
857.4710	0.009953
857.7093	0.010017
857.9477	0.010291
858.1861	0.011136
858.4245	0.010946
858.6629	0.008159
858.9013	0.009299
859.1397	0.009109
859.3781	0.010587
859.6166	0.009531
859.8550	0.009658
860.0935	0.008264
860.3319	0.008264
860.5704	0.007209
860.8089	0.008074
861.0473	0.007209
861.2858	0.008180
861.5243	0.005393
861.7628	0.006744
862.0013	0.005245
862.2399	0.006744
862.4784	0.006216
862.7169	0.006195
862.9555	0.006660
863.1940	0.007758
863.4326	0.007420
863.6712	0.005836
863.9098	0.006934
864.1483	0.006913
864.3869	0.007715
864.6255	0.007061
864.8642	0.005562
865.1028	0.004548
865.3414	0.006090
865.5800	0.005583
865.8187	0.004844
866.0573	0.005794
866.2960	0.005583
866.5347	0.005562
866.7733	0.006913
867.0120	0.005182
867.2507	0.004168
867.4894	0.006216
867.7281	0.007272
867.9669	0.005139
868.2056	0.005836
868.4443	0.006153
868.6831	0.005076
868.9218	0.005625
869.1606	0.003894
869.3993	0.004844
869.6381	0.003746
869.8769	0.005245
870.1157	0.004042
870.3545	0.006237
870.5933	0.005372
870.8321	0.005393
871.0709	0.006153
871.3097	0.006744
871.5486	0.005266
871.7874	0.006702
872.0263	0.003873
872.2651	0.005984
872.5040	0.003661
872.7429	0.005604
872.9818	0.004147
873.2207	0.006026
873.4596	0.006111
873.6985	0.006406
873.9374	0.003978
874.1763	0.006216
874.4153	0.005076
874.6542	0.004147
874.8932	0.005182
875.1321	0.006111
875.3711	0.004844
875.6101	0.006575
875.8491	0.006237
876.0880	0.005815
876.3270	0.004759
876.5661	0.004992
876.8051	0.005308
877.0441	0.004675
877.2831	0.005688
877.5222	0.005667
877.7612	0.005604
878.0003	0.005836
878.2393	0.007082
878.4784	0.005688
878.7175	0.006702
878.9566	0.008898
879.1957	0.008708
879.4348	0.007187
879.6739	0.007546
879.9130	0.007568
880.1521	0.009130
880.3913	0.008222
880.6304	0.007926
880.8696	0.008813
881.1087	0.007673
881.3479	0.008053
881.5871	0.008074
881.8262	0.005329
882.0654	0.007589
882.3046	0.006533
882.5438	0.004612
882.7831	0.005477
883.0223	0.009024
883.2615	0.005815
883.5007	0.007103
883.7400	0.006702
883.9792	0.006807
884.2185	0.007103
884.4578	0.005731
884.6971	0.007230
884.9363	0.006047
885.1756	0.006026
885.4149	0.008771
885.6542	0.004590
885.8936	0.008539
886.1329	0.007251
886.3722	0.006005
886.6116	0.006111
886.8509	0.005351
887.0903	0.005245
887.3296	0.005414
887.5690	0.004042
887.8084	0.005878
888.0478	0.004358
888.2872	0.006111
888.5266	0.004506
888.7660	0.005013
889.0054	0.006786
889.2448	0.005287
889.4843	0.005667
889.7237	0.007061
889.9632	0.005308
890.2026	0.003514
890.4421	0.004548
890.6816	0.005013
890.9211	0.003873
891.1606	0.005815
891.4001	0.005583
891.6396	0.005055
891.8791	0.005456
892.1186	0.006681
892.3581	0.004654
892.5977	0.004886
892.8372	0.003936
893.0768	0.005794
893.3163	0.005034
893.5559	0.005287
893.7955	0.005161
894.0351	0.004949
894.2747	0.004464
894.5143	0.005393
894.7539	0.005519
894.9935	0.003197
895.2331	0.004992
895.4727	0.005139
895.7124	0.004464
895.9520	0.005139
896.1917	0.005794
896.4314	0.005034
896.6710	0.004548
896.9107	0.006132
897.1504	0.004675
897.3901	0.004274
897.6298	0.003767
897.8695	0.004358
898.1092	0.004781
898.3489	0.004210
898.5887	0.005266
898.8284	0.006364
899.0682	0.004126
899.3079	0.004738
899.5477	0.002690
899.7875	0.004506
900.0272	0.003260
900.2670	0.003556
900.5068	0.005456
900.7466	0.004949
900.9864	0.004844
901.2263	0.004295
901.4661	0.004548
901.7059	0.005562
901.9458	0.003936
902.1856	0.004232
902.4255	0.004717
902.6654	0.004232
902.9052	0.003852
903.1451	0.004590
903.3850	0.003619
903.6249	0.003303
903.8648	0.004612
904.1047	0.004126
904.3446	0.005118
904.5846	0.005013
904.8245	0.003260
905.0644	0.005224
905.3044	0.005710
905.5444	0.005245
905.7843	0.005498
906.0243	0.004147
906.2643	0.004949
906.5043	0.006026
906.7443	0.004105
906.9843	0.004590
907.2243	0.004253
907.4643	0.004147
907.7043	0.004020
907.9444	0.004105
908.1844	0.003113
908.4245	0.004992
908.6645	0.002880
908.9046	0.003028
909.1447	0.003873
909.3847	0.003978
909.6248	0.003176
909.8649	0.003683
910.1050	0.002226
910.3452	0.004210
910.5853	0.002732
910.8254	0.004316
911.0655	0.003640
911.3057	0.003704
911.5458	0.003894
911.7860	0.004485
912.0262	0.003535
912.2663	0.003155
912.5065	0.003725
912.7467	0.003704
912.9869	0.003324
913.2271	0.003725
913.4673	0.001402
913.7075	0.004443
913.9478	0.002923
914.1880	0.002859
914.4283	0.002965
914.6685	0.002796
914.9088	0.003746
915.1490	0.003577
915.3893	0.002521
915.6296	0.003535
915.8699	0.003091
916.1102	0.003303
916.3505	0.002247
916.5908	0.003788
916.8311	0.003197
917.0714	0.004400
917.3118	0.004844
917.5521	0.005161
917.7925	0.004084
918.0328	0.005055
918.2732	0.004253
918.5136	0.005351
918.7539	0.003049
918.9943	0.003429
919.2347	0.004253
919.4751	0.004295
919.7155	0.004464
919.9560	0.004295
920.1964	0.004020
920.4368	0.003999
920.6773	0.003493
920.9177	0.004337
921.1582	0.003577
921.3986	0.003366
921.6391	0.002395
921.8796	0.004105
922.1201	0.002732
922.3606	0.002564
922.6011	0.002796
922.8416	0.003894
923.0821	0.003134
923.3226	0.004633
923.5631	0.003345
923.8037	0.002775
924.0442	0.003556
924.2848	0.004337
924.5254	0.002310
924.7659	0.001592
925.0065	0.002859
925.2471	0.002965
925.4877	0.002838
925.7283	0.001656
925.9689	0.003999
926.2095	0.003852
926.4501	0.002944
926.6908	0.004337
926.9314	0.001825
927.1720	0.002775
927.4127	0.002923
927.6533	0.002606
927.8940	0.002627
928.1347	0.003070
928.3754	0.002162
928.6161	0.002331
928.8568	0.002458
929.0975	0.001613
929.3382	0.001402
929.5789	0.002901
929.8196	0.002965
930.0604	0.003091
930.3011	0.001740
930.5419	0.002944
930.7826	0.001613
931.0234	0.003493
931.2642	0.002078
931.5049	0.001001
931.7457	0.001782
931.9865	0.001212
932.2273	0.001550
932.4681	0.002669
932.7089	0.003049
932.9498	0.002817
933.1906	0.002564
933.4314	0.002247
933.6723	0.002500
933.9131	0.002901
934.1540	0.001930
934.3949	0.002775
934.6358	0.003345
934.8766	0.003450
935.1175	0.001951
935.3584	0.003049
935.5993	0.002817
935.8403	0.002374
936.0812	0.002331
936.3221	0.001191
936.5630	0.001761
936.8040	0.000642
937.0449	0.002141
937.2859	0.002247
937.5269	0.001571
937.7678	0.002205
938.0088	0.002374
938.2498	0.000558
938.4908	0.001170
938.7318	0.001149
938.9728	0.001339
939.2138	0.000938
939.4549	0.002374
939.6959	0.002205
939.9369	0.001445
940.1780	0.001888
940.4190	0.001930
940.6601	0.000093
940.9012	0.001782
941.1422	0.002479
941.3833	0.002184
941.6244	0.001951
941.8655	0.001888
942.1066	0.000874
942.3477	0.002226
942.5889	-0.000055
942.8300	0.002184
943.0711	0.001402
943.3123	0.000537
943.5534	0.002205
943.7946	0.001825
944.0357	0.001466
944.2769	0.003113
944.5181	0.001993
944.7593	0.001233
945.0005	0.000283
945.2417	0.002542
945.4829	-0.000350
945.7241	0.000790
945.9653	0.002120
946.2066	0.001656
946.4478	0.000642
946.6891	0.002416
946.9303	0.000389
947.1716	0.001466
947.4128	0.001149
947.6541	0.002247
947.8954	-0.000329
948.1367	0.000093
948.3780	0.000516
948.6193	0.000663
948.8606	0.002268
949.1019	0.000853
949.3433	0.002247
949.5846	0.001212
949.8259	0.000051
950.0673	0.003134
950.3086	0.000135
950.5500	0.002690
950.7914	0.002310
951.0327	0.000769
951.2741	0.000980
951.5155	0.000980
951.7569	0.002226
951.9983	0.001867
952.2398	-0.000350
952.4812	0.002564
952.7226	0.001782
952.9640	0.002374
953.2055	0.001761
953.4469	0.003113
953.6884	0.001803
953.9299	0.002141
954.1713	0.001445
954.4128	0.001803
954.6543	0.001466
954.8958	0.002416
955.1373	0.002500
955.3788	0.001001
955.6203	0.000199
955.8618	0.000938
956.1034	0.000938
956.3449	0.001888
956.5865	0.000853
956.8280	0.002416
957.0696	0.001402
957.3111	0.001930
957.5527	0.000368
957.7943	0.000959
958.0359	0.000473
958.2775	0.001001
958.5191	0.001445
958.7607	0.001064
959.0023	0.000157
959.2439	0.000790
959.4856	-0.000287
959.7272	0.002690
959.9688	0.000241
960.2105	0.001613
960.4522	0.001613
960.6938	0.000959
960.9355	0.000389
961.1772	0.000389
961.4189	0.000410
961.6606	0.002416
961.9023	0.001107
962.1440	0.000473
962.3857	0.001086
962.6274	0.001381
962.8692	0.001043
963.1109	0.002521
963.3527	-0.000350
963.5944	0.002078
963.8362	0.001043
964.0779	0.000537
964.3197	0.000600
964.5615	0.001276
964.8033	0.000368
965.0451	0.001867
965.2869	0.000135
965.5287	0.000853
965.7705	0.001297
966.0123	0.001445
966.2542	-0.000287
966.4960	-0.000181
966.7379	0.000642
966.9797	0.000790
967.2216	0.001381
967.4634	0.000980
967.7053	-0.000308
967.9472	0.000727
968.1891	0.000072
968.4310	0.001255
968.6729	0.000135
968.9148	-0.000055
969.1567	0.001276
969.3987	0.001297
969.6406	-0.000139
969.8825	0.000114
970.1245	-0.000899
970.3664	0.001508
970.6084	0.000874
970.8504	0.001276
971.0923	-0.000308
971.3343	0.000642
971.5763	0.000410
971.8183	0.001846
972.0603	0.001149
972.3023	0.001064
972.5443	0.000642
972.7864	0.000389
973.0284	-0.000139
973.2704	0.001339
973.5125	0.000663
973.7545	0.000600
973.9966	0.000537
974.2387	0.000473
974.4807	0.000473
974.7228	0.000114
974.9649	0.001022
975.2070	0.002648
975.4491	0.000706
975.6912	0.001212
975.9333	0.001740
976.1755	0.000727
976.4176	0.001064
976.6597	-0.000625
976.9019	0.000009
977.1440	0.001487
977.3862	0.000410
977.6283	-0.000413
977.8705	-0.000118
978.1127	0.001381
978.3549	-0.000794
978.5971	0.000537
978.8393	0.000199
979.0815	0.001381
979.3237	-0.000202
979.5659	0.001487
979.8082	-0.000836
980.0504	0.001360
980.2926	0.000853
980.5349	0.001318
980.7771	0.000135
981.0194	0.001402
981.2617	0.000706
981.5040	0.000769
981.7462	-0.000308
981.9885	0.000811
982.2308	0.001297
982.4731	0.000790
982.7155	0.000769
982.9578	0.001930
983.2001	0.000135
983.4424	0.002120
983.6848	0.001086
983.9271	-0.000181
984.1695	0.000072
984.4118	0.000558
984.6542	0.000220
984.8966	0.000727
985.1390	0.000811
985.3814	0.000516
985.6238	0.001466
985.8662	0.001107
986.1086	-0.000245
986.3510	-0.000730
986.5934	0.000579
986.8358	0.000600
987.0783	-0.001321
987.3207	0.000874
987.5632	0.001043
987.8056	0.001782
988.0481	0.000157
988.2906	-0.000033
988.5331	0.000389
988.7756	0.000917
989.0180	0.000410
989.2605	0.001761
989.5031	-0.000097
989.7456	0.000093
989.9881	0.000326
990.2306	0.001698
990.4732	-0.000012
990.7157	0.000389
990.9582	0.000874
991.2008	0.000727
991.4434	0.000706
991.6859	0.000537
991.9285	-0.000435
992.1711	-0.001575
992.4137	-0.000498
992.6563	0.001212
992.8989	0.001339
993.1415	0.000663
993.3841	-0.001934
993.6267	0.000368
993.8694	0.001276
994.1120	-0.000055
994.3547	0.001001
994.5973	0.000431
994.8400	0.000220
995.0826	0.002458
995.3253	-0.000540
995.5680	0.000072
995.8107	0.000199
996.0534	0.000959
996.2961	0.000326
996.5388	0.000241
996.7815	0.000769
997.0242	0.000516
997.2670	0.000220
997.5097	-0.000245
997.7524	0.000537
997.9952	0.001508
998.2379	-0.000625
998.4807	0.000114
998.7235	0.000811
998.9662	0.000663
999.2090	0.000769
999.4518	0.000157
999.6946	-0.000181
999.9374	0.001001
1000.1802	0.000283
1000.4230	0.000832
1000.6659	0.001719
1000.9087	-0.000857
1001.1515	0.002331
1001.3944	0.000516
1001.6372	-0.001828
1001.8801	0.001297
1002.1230	0.000452
1002.3658	0.001276
1002.6087	0.002775
1002.8516	-0.000435
1003.0945	0.000093
1003.3374	0.000389
1003.5803	0.001782
1003.8232	-0.000709
1004.0661	0.001677
1004.3091	0.000220
1004.5520	0.000093
1004.7949	-0.000477
1005.0379	0.000959
1005.2808	-0.000794
1005.5238	0.001402
1005.7667	0.000959
1006.0097	0.001233
1006.2527	-0.000118
1006.4957	0.001149
1006.7387	0.000938
1006.9817	0.000072
1007.2247	-0.000582
1007.4677	-0.000139
1007.7107	0.000600
1007.9538	0.000853
1008.1968	-0.000097
1008.4398	0.001466
1008.6829	0.001993
1008.9259	0.001402
1009.1690	-0.000055
1009.4121	0.000917
1009.6551	-0.001195
1009.8982	0.000135
1010.1413	0.000009
1010.3844	0.000452
1010.6275	-0.000012
1010.8706	0.001043
1011.1137	0.000241
1011.3568	-0.000097
1011.6000	0.000853
1011.8431	0.002184
1012.0863	0.000537
1012.3294	0.001170
1012.5726	-0.000456
1012.8157	0.001022
1013.0589	-0.000878
1013.3021	0.000790
1013.5452	0.000663
1013.7884	0.000051
1014.0316	0.001360
1014.2748	-0.000012
1014.5180	0.000579
1014.7613	0.000368
1015.0045	-0.000667
1015.2477	0.000326
1015.4909	0.001993
1015.7342	0.000516
1015.9774	0.000832
1016.2207	0.000410
1016.4640	0.000811
1016.7072	0.000114
1016.9505	0.001529
1017.1938	-0.000160
1017.4371	-0.000371
1017.6804	0.000832
1017.9237	0.000389
1018.1670	0.001255
1018.4103	-0.000836
1018.6536	0.000326
1018.8969	0.000410
1019.1403	0.001276
1019.3836	-0.000223
1019.6270	0.001086
1019.8703	0.001613
1020.1137	0.001360
1020.3571	0.000051
1020.6004	-0.000287
1020.8438	-0.001216
1021.0872	0.000283
1021.3306	-0.000625
1021.5740	-0.000287
1021.8174	-0.000055
1022.0608	0.001740
1022.3042	-0.000308
1022.5477	-0.001005
1022.7911	-0.001638
1023.0345	-0.000308
